70BCSV 	
// AQ6370B OPTICAL SPECTRUM ANALYZER //                 
25
"CTRWL",1550.000000
"SPAN", 100.000000
"START WL",1500.000000
"STOP WL",1600.000000
"WLFREQ", 0
"REFL",-28.8
"LSCL", 5.0
"RESLN",0.100
"AVG",   1
"SMPLAUTO",      0
"SMPL",       5001
"SMPLINTVL",0.0200
"HIGH1"
"MEAS"
"LSUNT",0
"NMSKH","OFF"
"RESCOR",0
"RESPARM", 9050
"FREQPARM", 9050






"[TRACE DATA]"
1500.0000, -61.660
1500.0200, -61.616
1500.0400, -61.612
1500.0600, -61.666
1500.0800, -61.615
1500.1000, -61.616
1500.1200, -61.647
1500.1400, -61.582
1500.1600, -61.576
1500.1800, -61.593
1500.2000, -61.615
1500.2200, -61.565
1500.2400, -61.566
1500.2600, -61.568
1500.2800, -61.553
1500.3000, -61.570
1500.3200, -61.561
1500.3400, -61.559
1500.3600, -61.529
1500.3800, -61.541
1500.4000, -61.536
1500.4200, -61.523
1500.4400, -61.544
1500.4600, -61.536
1500.4800, -61.485
1500.5000, -61.522
1500.5200, -61.465
1500.5400, -61.485
1500.5600, -61.514
1500.5800, -61.464
1500.6000, -61.489
1500.6200, -61.474
1500.6400, -61.484
1500.6600, -61.488
1500.6800, -61.477
1500.7000, -61.480
1500.7200, -61.437
1500.7400, -61.430
1500.7600, -61.397
1500.7800, -61.428
1500.8000, -61.427
1500.8200, -61.398
1500.8400, -61.384
1500.8600, -61.404
1500.8800, -61.400
1500.9000, -61.378
1500.9200, -61.396
1500.9400, -61.384
1500.9600, -61.375
1500.9800, -61.356
1501.0000, -61.342
1501.0200, -61.362
1501.0400, -61.343
1501.0600, -61.334
1501.0800, -61.352
1501.1000, -61.323
1501.1200, -61.297
1501.1400, -61.331
1501.1600, -61.312
1501.1800, -61.300
1501.2000, -61.286
1501.2200, -61.255
1501.2400, -61.295
1501.2600, -61.293
1501.2800, -61.311
1501.3000, -61.284
1501.3200, -61.285
1501.3400, -61.248
1501.3600, -61.224
1501.3800, -61.237
1501.4000, -61.243
1501.4200, -61.222
1501.4400, -61.210
1501.4600, -61.229
1501.4800, -61.224
1501.5000, -61.204
1501.5200, -61.240
1501.5400, -61.205
1501.5600, -61.197
1501.5800, -61.213
1501.6000, -61.215
1501.6200, -61.214
1501.6400, -61.178
1501.6600, -61.187
1501.6800, -61.138
1501.7000, -61.170
1501.7200, -61.144
1501.7400, -61.156
1501.7600, -61.122
1501.7800, -61.128
1501.8000, -61.131
1501.8200, -61.136
1501.8400, -61.135
1501.8600, -61.114
1501.8800, -61.143
1501.9000, -61.125
1501.9200, -61.059
1501.9400, -61.107
1501.9600, -61.058
1501.9800, -61.084
1502.0000, -61.071
1502.0200, -61.076
1502.0400, -61.039
1502.0600, -61.029
1502.0800, -61.086
1502.1000, -61.021
1502.1200, -61.052
1502.1400, -61.035
1502.1600, -60.999
1502.1800, -61.032
1502.2000, -60.996
1502.2200, -61.010
1502.2400, -61.011
1502.2600, -60.979
1502.2800, -60.964
1502.3000, -61.022
1502.3200, -60.964
1502.3400, -60.961
1502.3600, -60.939
1502.3800, -60.985
1502.4000, -60.949
1502.4200, -60.913
1502.4400, -60.944
1502.4600, -60.908
1502.4800, -60.922
1502.5000, -60.913
1502.5200, -60.890
1502.5400, -60.891
1502.5600, -60.930
1502.5800, -60.886
1502.6000, -60.880
1502.6200, -60.870
1502.6400, -60.851
1502.6600, -60.848
1502.6800, -60.852
1502.7000, -60.853
1502.7200, -60.813
1502.7400, -60.841
1502.7600, -60.837
1502.7800, -60.804
1502.8000, -60.807
1502.8200, -60.819
1502.8400, -60.775
1502.8600, -60.798
1502.8800, -60.814
1502.9000, -60.778
1502.9200, -60.768
1502.9400, -60.742
1502.9600, -60.742
1502.9800, -60.721
1503.0000, -60.723
1503.0200, -60.712
1503.0400, -60.734
1503.0600, -60.715
1503.0800, -60.722
1503.1000, -60.714
1503.1200, -60.702
1503.1400, -60.682
1503.1600, -60.686
1503.1800, -60.696
1503.2000, -60.666
1503.2200, -60.666
1503.2400, -60.685
1503.2600, -60.666
1503.2800, -60.643
1503.3000, -60.662
1503.3200, -60.663
1503.3400, -60.615
1503.3600, -60.607
1503.3800, -60.660
1503.4000, -60.590
1503.4200, -60.571
1503.4400, -60.606
1503.4600, -60.603
1503.4800, -60.589
1503.5000, -60.561
1503.5200, -60.587
1503.5400, -60.584
1503.5600, -60.546
1503.5800, -60.550
1503.6000, -60.557
1503.6200, -60.520
1503.6400, -60.521
1503.6600, -60.529
1503.6800, -60.511
1503.7000, -60.495
1503.7200, -60.489
1503.7400, -60.483
1503.7600, -60.465
1503.7800, -60.472
1503.8000, -60.447
1503.8200, -60.467
1503.8400, -60.447
1503.8600, -60.448
1503.8800, -60.456
1503.9000, -60.436
1503.9200, -60.433
1503.9400, -60.417
1503.9600, -60.393
1503.9800, -60.423
1504.0000, -60.407
1504.0200, -60.375
1504.0400, -60.379
1504.0600, -60.384
1504.0800, -60.363
1504.1000, -60.366
1504.1200, -60.353
1504.1400, -60.322
1504.1600, -60.339
1504.1800, -60.353
1504.2000, -60.312
1504.2200, -60.330
1504.2400, -60.321
1504.2600, -60.294
1504.2800, -60.293
1504.3000, -60.303
1504.3200, -60.280
1504.3400, -60.269
1504.3600, -60.270
1504.3800, -60.269
1504.4000, -60.244
1504.4200, -60.277
1504.4400, -60.243
1504.4600, -60.206
1504.4800, -60.257
1504.5000, -60.229
1504.5200, -60.210
1504.5400, -60.190
1504.5600, -60.178
1504.5800, -60.176
1504.6000, -60.162
1504.6200, -60.167
1504.6400, -60.141
1504.6600, -60.156
1504.6800, -60.160
1504.7000, -60.117
1504.7200, -60.150
1504.7400, -60.107
1504.7600, -60.127
1504.7800, -60.097
1504.8000, -60.106
1504.8200, -60.107
1504.8400, -60.051
1504.8600, -60.094
1504.8800, -60.059
1504.9000, -60.066
1504.9200, -60.038
1504.9400, -60.031
1504.9600, -60.018
1504.9800, -60.013
1505.0000, -60.036
1505.0200, -60.002
1505.0400, -59.986
1505.0600, -59.988
1505.0800, -59.987
1505.1000, -59.967
1505.1200, -59.983
1505.1400, -59.956
1505.1600, -59.977
1505.1800, -59.952
1505.2000, -59.951
1505.2200, -59.951
1505.2400, -59.921
1505.2600, -59.928
1505.2800, -59.918
1505.3000, -59.880
1505.3200, -59.921
1505.3400, -59.910
1505.3600, -59.880
1505.3800, -59.889
1505.4000, -59.866
1505.4200, -59.851
1505.4400, -59.845
1505.4600, -59.880
1505.4800, -59.862
1505.5000, -59.813
1505.5200, -59.807
1505.5400, -59.804
1505.5600, -59.793
1505.5800, -59.794
1505.6000, -59.786
1505.6200, -59.784
1505.6400, -59.765
1505.6600, -59.752
1505.6800, -59.756
1505.7000, -59.757
1505.7200, -59.755
1505.7400, -59.757
1505.7600, -59.722
1505.7800, -59.721
1505.8000, -59.678
1505.8200, -59.707
1505.8400, -59.675
1505.8600, -59.695
1505.8800, -59.677
1505.9000, -59.663
1505.9200, -59.658
1505.9400, -59.651
1505.9600, -59.648
1505.9800, -59.634
1506.0000, -59.613
1506.0200, -59.619
1506.0400, -59.627
1506.0600, -59.612
1506.0800, -59.620
1506.1000, -59.615
1506.1200, -59.569
1506.1400, -59.583
1506.1600, -59.573
1506.1800, -59.566
1506.2000, -59.578
1506.2200, -59.564
1506.2400, -59.529
1506.2600, -59.530
1506.2800, -59.508
1506.3000, -59.521
1506.3200, -59.514
1506.3400, -59.516
1506.3600, -59.484
1506.3800, -59.483
1506.4000, -59.467
1506.4200, -59.461
1506.4400, -59.502
1506.4600, -59.413
1506.4800, -59.456
1506.5000, -59.415
1506.5200, -59.433
1506.5400, -59.408
1506.5600, -59.429
1506.5800, -59.389
1506.6000, -59.397
1506.6200, -59.381
1506.6400, -59.345
1506.6600, -59.362
1506.6800, -59.354
1506.7000, -59.355
1506.7200, -59.350
1506.7400, -59.351
1506.7600, -59.322
1506.7800, -59.298
1506.8000, -59.339
1506.8200, -59.306
1506.8400, -59.273
1506.8600, -59.295
1506.8800, -59.270
1506.9000, -59.274
1506.9200, -59.254
1506.9400, -59.243
1506.9600, -59.239
1506.9800, -59.240
1507.0000, -59.219
1507.0200, -59.219
1507.0400, -59.206
1507.0600, -59.177
1507.0800, -59.193
1507.1000, -59.201
1507.1200, -59.189
1507.1400, -59.169
1507.1600, -59.173
1507.1800, -59.163
1507.2000, -59.182
1507.2200, -59.113
1507.2400, -59.172
1507.2600, -59.120
1507.2800, -59.141
1507.3000, -59.129
1507.3200, -59.097
1507.3400, -59.089
1507.3600, -59.088
1507.3800, -59.075
1507.4000, -59.064
1507.4200, -59.063
1507.4400, -59.048
1507.4600, -59.041
1507.4800, -59.042
1507.5000, -59.027
1507.5200, -59.008
1507.5400, -58.999
1507.5600, -58.992
1507.5800, -58.975
1507.6000, -58.964
1507.6200, -58.957
1507.6400, -58.979
1507.6600, -58.944
1507.6800, -58.940
1507.7000, -58.938
1507.7200, -58.921
1507.7400, -58.909
1507.7600, -58.898
1507.7800, -58.898
1507.8000, -58.894
1507.8200, -58.869
1507.8400, -58.864
1507.8600, -58.869
1507.8800, -58.842
1507.9000, -58.868
1507.9200, -58.829
1507.9400, -58.827
1507.9600, -58.840
1507.9800, -58.800
1508.0000, -58.776
1508.0200, -58.807
1508.0400, -58.779
1508.0600, -58.797
1508.0800, -58.792
1508.1000, -58.771
1508.1200, -58.777
1508.1400, -58.743
1508.1600, -58.741
1508.1800, -58.744
1508.2000, -58.716
1508.2200, -58.714
1508.2400, -58.729
1508.2600, -58.718
1508.2800, -58.711
1508.3000, -58.677
1508.3200, -58.690
1508.3400, -58.681
1508.3600, -58.666
1508.3800, -58.647
1508.4000, -58.645
1508.4200, -58.633
1508.4400, -58.601
1508.4600, -58.620
1508.4800, -58.600
1508.5000, -58.595
1508.5200, -58.607
1508.5400, -58.574
1508.5600, -58.590
1508.5800, -58.568
1508.6000, -58.562
1508.6200, -58.539
1508.6400, -58.539
1508.6600, -58.520
1508.6800, -58.513
1508.7000, -58.513
1508.7200, -58.500
1508.7400, -58.508
1508.7600, -58.480
1508.7800, -58.487
1508.8000, -58.464
1508.8200, -58.464
1508.8400, -58.468
1508.8600, -58.444
1508.8800, -58.447
1508.9000, -58.410
1508.9200, -58.413
1508.9400, -58.400
1508.9600, -58.385
1508.9800, -58.388
1509.0000, -58.381
1509.0200, -58.354
1509.0400, -58.367
1509.0600, -58.365
1509.0800, -58.351
1509.1000, -58.349
1509.1200, -58.336
1509.1400, -58.311
1509.1600, -58.336
1509.1800, -58.302
1509.2000, -58.290
1509.2200, -58.297
1509.2400, -58.264
1509.2600, -58.261
1509.2800, -58.260
1509.3000, -58.263
1509.3200, -58.239
1509.3400, -58.240
1509.3600, -58.190
1509.3800, -58.198
1509.4000, -58.191
1509.4200, -58.181
1509.4400, -58.165
1509.4600, -58.173
1509.4800, -58.160
1509.5000, -58.139
1509.5200, -58.139
1509.5400, -58.138
1509.5600, -58.119
1509.5800, -58.109
1509.6000, -58.101
1509.6200, -58.088
1509.6400, -58.088
1509.6600, -58.071
1509.6800, -58.074
1509.7000, -58.059
1509.7200, -58.045
1509.7400, -58.030
1509.7600, -58.052
1509.7800, -58.010
1509.8000, -57.995
1509.8200, -57.991
1509.8400, -58.013
1509.8600, -57.980
1509.8800, -57.971
1509.9000, -57.938
1509.9200, -57.935
1509.9400, -57.962
1509.9600, -57.945
1509.9800, -57.928
1510.0000, -57.928
1510.0200, -57.891
1510.0400, -57.893
1510.0600, -57.897
1510.0800, -57.870
1510.1000, -57.876
1510.1200, -57.857
1510.1400, -57.839
1510.1600, -57.835
1510.1800, -57.841
1510.2000, -57.823
1510.2200, -57.792
1510.2400, -57.803
1510.2600, -57.799
1510.2800, -57.755
1510.3000, -57.766
1510.3200, -57.728
1510.3400, -57.746
1510.3600, -57.713
1510.3800, -57.695
1510.4000, -57.708
1510.4200, -57.697
1510.4400, -57.682
1510.4600, -57.649
1510.4800, -57.659
1510.5000, -57.652
1510.5200, -57.632
1510.5400, -57.624
1510.5600, -57.622
1510.5800, -57.600
1510.6000, -57.592
1510.6200, -57.582
1510.6400, -57.585
1510.6600, -57.554
1510.6800, -57.543
1510.7000, -57.536
1510.7200, -57.532
1510.7400, -57.519
1510.7600, -57.513
1510.7800, -57.506
1510.8000, -57.471
1510.8200, -57.455
1510.8400, -57.464
1510.8600, -57.452
1510.8800, -57.419
1510.9000, -57.433
1510.9200, -57.429
1510.9400, -57.419
1510.9600, -57.419
1510.9800, -57.373
1511.0000, -57.392
1511.0200, -57.370
1511.0400, -57.353
1511.0600, -57.336
1511.0800, -57.341
1511.1000, -57.319
1511.1200, -57.321
1511.1400, -57.306
1511.1600, -57.316
1511.1800, -57.302
1511.2000, -57.274
1511.2200, -57.271
1511.2400, -57.246
1511.2600, -57.237
1511.2800, -57.219
1511.3000, -57.193
1511.3200, -57.195
1511.3400, -57.192
1511.3600, -57.178
1511.3800, -57.177
1511.4000, -57.158
1511.4200, -57.125
1511.4400, -57.129
1511.4600, -57.127
1511.4800, -57.100
1511.5000, -57.096
1511.5200, -57.074
1511.5400, -57.064
1511.5600, -57.053
1511.5800, -57.046
1511.6000, -57.040
1511.6200, -57.027
1511.6400, -57.011
1511.6600, -56.999
1511.6800, -56.993
1511.7000, -56.978
1511.7200, -56.962
1511.7400, -56.956
1511.7600, -56.938
1511.7800, -56.922
1511.8000, -56.922
1511.8200, -56.906
1511.8400, -56.912
1511.8600, -56.879
1511.8800, -56.868
1511.9000, -56.881
1511.9200, -56.861
1511.9400, -56.848
1511.9600, -56.841
1511.9800, -56.814
1512.0000, -56.797
1512.0200, -56.797
1512.0400, -56.809
1512.0600, -56.769
1512.0800, -56.753
1512.1000, -56.763
1512.1200, -56.729
1512.1400, -56.714
1512.1600, -56.716
1512.1800, -56.712
1512.2000, -56.695
1512.2200, -56.682
1512.2400, -56.687
1512.2600, -56.649
1512.2800, -56.654
1512.3000, -56.630
1512.3200, -56.628
1512.3400, -56.613
1512.3600, -56.594
1512.3800, -56.601
1512.4000, -56.581
1512.4200, -56.577
1512.4400, -56.548
1512.4600, -56.553
1512.4800, -56.540
1512.5000, -56.518
1512.5200, -56.512
1512.5400, -56.487
1512.5600, -56.484
1512.5800, -56.476
1512.6000, -56.468
1512.6200, -56.432
1512.6400, -56.437
1512.6600, -56.419
1512.6800, -56.407
1512.7000, -56.405
1512.7200, -56.380
1512.7400, -56.369
1512.7600, -56.363
1512.7800, -56.344
1512.8000, -56.345
1512.8200, -56.322
1512.8400, -56.315
1512.8600, -56.324
1512.8800, -56.307
1512.9000, -56.300
1512.9200, -56.270
1512.9400, -56.261
1512.9600, -56.271
1512.9800, -56.247
1513.0000, -56.213
1513.0200, -56.231
1513.0400, -56.218
1513.0600, -56.213
1513.0800, -56.179
1513.1000, -56.180
1513.1200, -56.169
1513.1400, -56.141
1513.1600, -56.132
1513.1800, -56.116
1513.2000, -56.109
1513.2200, -56.096
1513.2400, -56.093
1513.2600, -56.066
1513.2800, -56.056
1513.3000, -56.041
1513.3200, -56.026
1513.3400, -56.034
1513.3600, -56.010
1513.3800, -55.983
1513.4000, -55.980
1513.4200, -55.972
1513.4400, -55.956
1513.4600, -55.944
1513.4800, -55.936
1513.5000, -55.919
1513.5200, -55.911
1513.5400, -55.893
1513.5600, -55.881
1513.5800, -55.876
1513.6000, -55.869
1513.6200, -55.842
1513.6400, -55.821
1513.6600, -55.827
1513.6800, -55.800
1513.7000, -55.792
1513.7200, -55.780
1513.7400, -55.792
1513.7600, -55.770
1513.7800, -55.753
1513.8000, -55.748
1513.8200, -55.732
1513.8400, -55.717
1513.8600, -55.718
1513.8800, -55.694
1513.9000, -55.685
1513.9200, -55.656
1513.9400, -55.649
1513.9600, -55.651
1513.9800, -55.626
1514.0000, -55.602
1514.0200, -55.591
1514.0400, -55.569
1514.0600, -55.589
1514.0800, -55.560
1514.1000, -55.539
1514.1200, -55.522
1514.1400, -55.515
1514.1600, -55.513
1514.1800, -55.503
1514.2000, -55.465
1514.2200, -55.464
1514.2400, -55.454
1514.2600, -55.440
1514.2800, -55.425
1514.3000, -55.418
1514.3200, -55.393
1514.3400, -55.386
1514.3600, -55.369
1514.3800, -55.354
1514.4000, -55.341
1514.4200, -55.327
1514.4400, -55.327
1514.4600, -55.303
1514.4800, -55.277
1514.5000, -55.285
1514.5200, -55.254
1514.5400, -55.254
1514.5600, -55.243
1514.5800, -55.220
1514.6000, -55.203
1514.6200, -55.186
1514.6400, -55.180
1514.6600, -55.166
1514.6800, -55.153
1514.7000, -55.161
1514.7200, -55.143
1514.7400, -55.115
1514.7600, -55.110
1514.7800, -55.090
1514.8000, -55.078
1514.8200, -55.071
1514.8400, -55.064
1514.8600, -55.042
1514.8800, -55.050
1514.9000, -55.016
1514.9200, -55.002
1514.9400, -55.005
1514.9600, -54.967
1514.9800, -54.953
1515.0000, -54.972
1515.0200, -54.949
1515.0400, -54.928
1515.0600, -54.890
1515.0800, -54.886
1515.1000, -54.863
1515.1200, -54.862
1515.1400, -54.850
1515.1600, -54.810
1515.1800, -54.808
1515.2000, -54.804
1515.2200, -54.770
1515.2400, -54.761
1515.2600, -54.745
1515.2800, -54.729
1515.3000, -54.716
1515.3200, -54.700
1515.3400, -54.704
1515.3600, -54.666
1515.3800, -54.677
1515.4000, -54.654
1515.4200, -54.633
1515.4400, -54.623
1515.4600, -54.602
1515.4800, -54.585
1515.5000, -54.572
1515.5200, -54.547
1515.5400, -54.532
1515.5600, -54.522
1515.5800, -54.509
1515.6000, -54.493
1515.6200, -54.477
1515.6400, -54.460
1515.6600, -54.451
1515.6800, -54.457
1515.7000, -54.454
1515.7200, -54.406
1515.7400, -54.398
1515.7600, -54.399
1515.7800, -54.379
1515.8000, -54.354
1515.8200, -54.342
1515.8400, -54.330
1515.8600, -54.306
1515.8800, -54.306
1515.9000, -54.289
1515.9200, -54.262
1515.9400, -54.266
1515.9600, -54.251
1515.9800, -54.234
1516.0000, -54.214
1516.0200, -54.180
1516.0400, -54.155
1516.0600, -54.167
1516.0800, -54.142
1516.1000, -54.114
1516.1200, -54.097
1516.1400, -54.088
1516.1600, -54.060
1516.1800, -54.045
1516.2000, -54.040
1516.2200, -54.013
1516.2400, -54.000
1516.2600, -53.984
1516.2800, -53.982
1516.3000, -53.961
1516.3200, -53.950
1516.3400, -53.927
1516.3600, -53.897
1516.3800, -53.891
1516.4000, -53.871
1516.4200, -53.845
1516.4400, -53.841
1516.4600, -53.817
1516.4800, -53.796
1516.5000, -53.780
1516.5200, -53.760
1516.5400, -53.747
1516.5600, -53.728
1516.5800, -53.716
1516.6000, -53.691
1516.6200, -53.696
1516.6400, -53.674
1516.6600, -53.666
1516.6800, -53.624
1516.7000, -53.620
1516.7200, -53.629
1516.7400, -53.578
1516.7600, -53.569
1516.7800, -53.563
1516.8000, -53.535
1516.8200, -53.525
1516.8400, -53.537
1516.8600, -53.509
1516.8800, -53.455
1516.9000, -53.465
1516.9200, -53.449
1516.9400, -53.396
1516.9600, -53.385
1516.9800, -53.368
1517.0000, -53.352
1517.0200, -53.336
1517.0400, -53.322
1517.0600, -53.291
1517.0800, -53.277
1517.1000, -53.255
1517.1200, -53.237
1517.1400, -53.226
1517.1600, -53.205
1517.1800, -53.176
1517.2000, -53.160
1517.2200, -53.143
1517.2400, -53.135
1517.2600, -53.107
1517.2800, -53.102
1517.3000, -53.072
1517.3200, -53.059
1517.3400, -53.035
1517.3600, -53.010
1517.3800, -53.003
1517.4000, -52.969
1517.4200, -52.960
1517.4400, -52.934
1517.4600, -52.911
1517.4800, -52.896
1517.5000, -52.871
1517.5200, -52.856
1517.5400, -52.838
1517.5600, -52.839
1517.5800, -52.825
1517.6000, -52.797
1517.6200, -52.789
1517.6400, -52.750
1517.6600, -52.748
1517.6800, -52.703
1517.7000, -52.681
1517.7200, -52.667
1517.7400, -52.647
1517.7600, -52.656
1517.7800, -52.630
1517.8000, -52.609
1517.8200, -52.563
1517.8400, -52.582
1517.8600, -52.572
1517.8800, -52.534
1517.9000, -52.477
1517.9200, -52.460
1517.9400, -52.438
1517.9600, -52.415
1517.9800, -52.414
1518.0000, -52.382
1518.0200, -52.358
1518.0400, -52.336
1518.0600, -52.317
1518.0800, -52.290
1518.1000, -52.278
1518.1200, -52.263
1518.1400, -52.231
1518.1600, -52.211
1518.1800, -52.190
1518.2000, -52.161
1518.2200, -52.144
1518.2400, -52.135
1518.2600, -52.099
1518.2800, -52.077
1518.3000, -52.054
1518.3200, -52.029
1518.3400, -52.025
1518.3600, -52.003
1518.3800, -51.972
1518.4000, -51.953
1518.4200, -51.921
1518.4400, -51.905
1518.4600, -51.874
1518.4800, -51.877
1518.5000, -51.859
1518.5200, -51.826
1518.5400, -51.811
1518.5600, -51.779
1518.5800, -51.761
1518.6000, -51.747
1518.6200, -51.710
1518.6400, -51.673
1518.6600, -51.676
1518.6800, -51.641
1518.7000, -51.626
1518.7200, -51.596
1518.7400, -51.592
1518.7600, -51.573
1518.7800, -51.545
1518.8000, -51.511
1518.8200, -51.468
1518.8400, -51.441
1518.8600, -51.435
1518.8800, -51.389
1518.9000, -51.374
1518.9200, -51.348
1518.9400, -51.317
1518.9600, -51.288
1518.9800, -51.264
1519.0000, -51.242
1519.0200, -51.232
1519.0400, -51.205
1519.0600, -51.166
1519.0800, -51.156
1519.1000, -51.119
1519.1200, -51.094
1519.1400, -51.061
1519.1600, -51.050
1519.1800, -51.016
1519.2000, -50.989
1519.2200, -50.972
1519.2400, -50.933
1519.2600, -50.916
1519.2800, -50.893
1519.3000, -50.866
1519.3200, -50.842
1519.3400, -50.798
1519.3600, -50.787
1519.3800, -50.787
1519.4000, -50.764
1519.4200, -50.738
1519.4400, -50.686
1519.4600, -50.673
1519.4800, -50.645
1519.5000, -50.625
1519.5200, -50.592
1519.5400, -50.539
1519.5600, -50.514
1519.5800, -50.485
1519.6000, -50.466
1519.6200, -50.455
1519.6400, -50.426
1519.6600, -50.402
1519.6800, -50.363
1519.7000, -50.351
1519.7200, -50.325
1519.7400, -50.298
1519.7600, -50.269
1519.7800, -50.240
1519.8000, -50.181
1519.8200, -50.143
1519.8400, -50.116
1519.8600, -50.087
1519.8800, -50.055
1519.9000, -50.037
1519.9200, -50.008
1519.9400, -49.972
1519.9600, -49.942
1519.9800, -49.914
1520.0000, -49.879
1520.0200, -49.856
1520.0400, -49.824
1520.0600, -49.790
1520.0800, -49.763
1520.1000, -49.724
1520.1200, -49.691
1520.1400, -49.660
1520.1600, -49.642
1520.1800, -49.605
1520.2000, -49.569
1520.2200, -49.541
1520.2400, -49.504
1520.2600, -49.484
1520.2800, -49.444
1520.3000, -49.407
1520.3200, -49.376
1520.3400, -49.370
1520.3600, -49.361
1520.3800, -49.313
1520.4000, -49.292
1520.4200, -49.257
1520.4400, -49.222
1520.4600, -49.191
1520.4800, -49.134
1520.5000, -49.095
1520.5200, -49.073
1520.5400, -49.048
1520.5600, -49.013
1520.5800, -48.993
1520.6000, -48.967
1520.6200, -48.933
1520.6400, -48.908
1520.6600, -48.869
1520.6800, -48.838
1520.7000, -48.800
1520.7200, -48.769
1520.7400, -48.703
1520.7600, -48.660
1520.7800, -48.627
1520.8000, -48.585
1520.8200, -48.554
1520.8400, -48.515
1520.8600, -48.486
1520.8800, -48.447
1520.9000, -48.411
1520.9200, -48.385
1520.9400, -48.338
1520.9600, -48.308
1520.9800, -48.264
1521.0000, -48.234
1521.0200, -48.200
1521.0400, -48.154
1521.0600, -48.119
1521.0800, -48.080
1521.1000, -48.046
1521.1200, -48.013
1521.1400, -47.992
1521.1600, -47.948
1521.1800, -47.907
1521.2000, -47.866
1521.2200, -47.826
1521.2400, -47.789
1521.2600, -47.756
1521.2800, -47.756
1521.3000, -47.724
1521.3200, -47.663
1521.3400, -47.622
1521.3600, -47.591
1521.3800, -47.558
1521.4000, -47.496
1521.4200, -47.467
1521.4400, -47.437
1521.4600, -47.398
1521.4800, -47.348
1521.5000, -47.331
1521.5200, -47.262
1521.5400, -47.231
1521.5600, -47.223
1521.5800, -47.178
1521.6000, -47.146
1521.6200, -47.122
1521.6400, -47.068
1521.6600, -46.993
1521.6800, -46.960
1521.7000, -46.915
1521.7200, -46.887
1521.7400, -46.860
1521.7600, -46.796
1521.7800, -46.753
1521.8000, -46.714
1521.8200, -46.668
1521.8400, -46.634
1521.8600, -46.602
1521.8800, -46.572
1521.9000, -46.517
1521.9200, -46.473
1521.9400, -46.432
1521.9600, -46.392
1521.9800, -46.355
1522.0000, -46.333
1522.0200, -46.273
1522.0400, -46.232
1522.0600, -46.189
1522.0800, -46.148
1522.1000, -46.106
1522.1200, -46.083
1522.1400, -46.034
1522.1600, -45.987
1522.1800, -45.944
1522.2000, -45.926
1522.2200, -45.869
1522.2400, -45.822
1522.2600, -45.791
1522.2800, -45.746
1522.3000, -45.728
1522.3200, -45.656
1522.3400, -45.634
1522.3600, -45.590
1522.3800, -45.541
1522.4000, -45.510
1522.4200, -45.462
1522.4400, -45.417
1522.4600, -45.395
1522.4800, -45.349
1522.5000, -45.314
1522.5200, -45.251
1522.5400, -45.195
1522.5600, -45.157
1522.5800, -45.112
1522.6000, -45.065
1522.6200, -45.029
1522.6400, -44.980
1522.6600, -44.940
1522.6800, -44.918
1522.7000, -44.862
1522.7200, -44.815
1522.7400, -44.768
1522.7600, -44.725
1522.7800, -44.680
1522.8000, -44.638
1522.8200, -44.600
1522.8400, -44.556
1522.8600, -44.511
1522.8800, -44.466
1522.9000, -44.424
1522.9200, -44.384
1522.9400, -44.350
1522.9600, -44.302
1522.9800, -44.265
1523.0000, -44.212
1523.0200, -44.174
1523.0400, -44.132
1523.0600, -44.085
1523.0800, -44.040
1523.1000, -43.997
1523.1200, -43.955
1523.1400, -43.914
1523.1600, -43.872
1523.1800, -43.830
1523.2000, -43.787
1523.2200, -43.744
1523.2400, -43.711
1523.2600, -43.677
1523.2800, -43.620
1523.3000, -43.588
1523.3200, -43.539
1523.3400, -43.495
1523.3600, -43.443
1523.3800, -43.411
1523.4000, -43.357
1523.4200, -43.314
1523.4400, -43.288
1523.4600, -43.230
1523.4800, -43.188
1523.5000, -43.162
1523.5200, -43.108
1523.5400, -43.057
1523.5600, -43.017
1523.5800, -42.972
1523.6000, -42.935
1523.6200, -42.899
1523.6400, -42.849
1523.6600, -42.805
1523.6800, -42.765
1523.7000, -42.720
1523.7200, -42.677
1523.7400, -42.637
1523.7600, -42.593
1523.7800, -42.556
1523.8000, -42.510
1523.8200, -42.472
1523.8400, -42.427
1523.8600, -42.383
1523.8800, -42.344
1523.9000, -42.297
1523.9200, -42.256
1523.9400, -42.215
1523.9600, -42.173
1523.9800, -42.132
1524.0000, -42.089
1524.0200, -42.048
1524.0400, -42.005
1524.0600, -41.966
1524.0800, -41.920
1524.1000, -41.882
1524.1200, -41.843
1524.1400, -41.797
1524.1600, -41.756
1524.1800, -41.714
1524.2000, -41.672
1524.2200, -41.627
1524.2400, -41.585
1524.2600, -41.545
1524.2800, -41.501
1524.3000, -41.462
1524.3200, -41.422
1524.3400, -41.379
1524.3600, -41.335
1524.3800, -41.293
1524.4000, -41.253
1524.4200, -41.215
1524.4400, -41.174
1524.4600, -41.131
1524.4800, -41.089
1524.5000, -41.043
1524.5200, -40.998
1524.5400, -40.958
1524.5600, -40.918
1524.5800, -40.878
1524.6000, -40.837
1524.6200, -40.797
1524.6400, -40.755
1524.6600, -40.710
1524.6800, -40.668
1524.7000, -40.627
1524.7200, -40.584
1524.7400, -40.541
1524.7600, -40.502
1524.7800, -40.463
1524.8000, -40.419
1524.8200, -40.379
1524.8400, -40.336
1524.8600, -40.294
1524.8800, -40.255
1524.9000, -40.212
1524.9200, -40.172
1524.9400, -40.131
1524.9600, -40.089
1524.9800, -40.050
1525.0000, -40.009
1525.0200, -39.967
1525.0400, -39.925
1525.0600, -39.883
1525.0800, -39.840
1525.1000, -39.798
1525.1200, -39.759
1525.1400, -39.719
1525.1600, -39.677
1525.1800, -39.639
1525.2000, -39.597
1525.2200, -39.557
1525.2400, -39.520
1525.2600, -39.480
1525.2800, -39.441
1525.3000, -39.401
1525.3200, -39.363
1525.3400, -39.324
1525.3600, -39.288
1525.3800, -39.249
1525.4000, -39.211
1525.4200, -39.170
1525.4400, -39.127
1525.4600, -39.087
1525.4800, -39.046
1525.5000, -39.004
1525.5200, -38.961
1525.5400, -38.919
1525.5600, -38.878
1525.5800, -38.836
1525.6000, -38.796
1525.6200, -38.757
1525.6400, -38.717
1525.6600, -38.677
1525.6800, -38.635
1525.7000, -38.592
1525.7200, -38.549
1525.7400, -38.508
1525.7600, -38.467
1525.7800, -38.425
1525.8000, -38.385
1525.8200, -38.342
1525.8400, -38.300
1525.8600, -38.261
1525.8800, -38.219
1525.9000, -38.181
1525.9200, -38.139
1525.9400, -38.100
1525.9600, -38.062
1525.9800, -38.027
1526.0000, -37.988
1526.0200, -37.945
1526.0400, -37.908
1526.0600, -37.867
1526.0800, -37.828
1526.1000, -37.787
1526.1200, -37.749
1526.1400, -37.706
1526.1600, -37.665
1526.1800, -37.632
1526.2000, -37.593
1526.2200, -37.551
1526.2400, -37.507
1526.2600, -37.455
1526.2800, -37.417
1526.3000, -37.386
1526.3200, -37.348
1526.3400, -37.308
1526.3600, -37.260
1526.3800, -37.226
1526.4000, -37.186
1526.4200, -37.144
1526.4400, -37.103
1526.4600, -37.060
1526.4800, -37.018
1526.5000, -36.979
1526.5200, -36.939
1526.5400, -36.900
1526.5600, -36.861
1526.5800, -36.821
1526.6000, -36.775
1526.6200, -36.734
1526.6400, -36.696
1526.6600, -36.650
1526.6800, -36.612
1526.7000, -36.571
1526.7200, -36.533
1526.7400, -36.497
1526.7600, -36.458
1526.7800, -36.416
1526.8000, -36.372
1526.8200, -36.330
1526.8400, -36.288
1526.8600, -36.249
1526.8800, -36.230
1526.9000, -36.188
1526.9200, -36.145
1526.9400, -36.088
1526.9600, -36.055
1526.9800, -36.022
1527.0000, -35.978
1527.0200, -35.934
1527.0400, -35.903
1527.0600, -35.855
1527.0800, -35.816
1527.1000, -35.775
1527.1200, -35.738
1527.1400, -35.696
1527.1600, -35.658
1527.1800, -35.611
1527.2000, -35.558
1527.2200, -35.550
1527.2400, -35.518
1527.2600, -35.482
1527.2800, -35.433
1527.3000, -35.370
1527.3200, -35.334
1527.3400, -35.300
1527.3600, -35.268
1527.3800, -35.223
1527.4000, -35.189
1527.4200, -35.146
1527.4400, -35.104
1527.4600, -35.073
1527.4800, -35.028
1527.5000, -34.988
1527.5200, -34.930
1527.5400, -34.877
1527.5600, -34.837
1527.5800, -34.785
1527.6000, -34.740
1527.6200, -34.689
1527.6400, -34.641
1527.6600, -34.599
1527.6800, -34.550
1527.7000, -34.527
1527.7200, -34.465
1527.7400, -34.428
1527.7600, -34.378
1527.7800, -34.327
1527.8000, -34.281
1527.8200, -34.259
1527.8400, -34.228
1527.8600, -34.189
1527.8800, -34.109
1527.9000, -34.075
1527.9200, -34.049
1527.9400, -33.991
1527.9600, -33.950
1527.9800, -33.900
1528.0000, -33.822
1528.0200, -33.784
1528.0400, -33.722
1528.0600, -33.676
1528.0800, -33.639
1528.1000, -33.601
1528.1200, -33.528
1528.1400, -33.483
1528.1600, -33.468
1528.1800, -33.424
1528.2000, -33.377
1528.2200, -33.285
1528.2400, -33.215
1528.2600, -33.160
1528.2800, -33.123
1528.3000, -33.089
1528.3200, -33.021
1528.3400, -32.986
1528.3600, -32.936
1528.3800, -32.908
1528.4000, -32.838
1528.4200, -32.774
1528.4400, -32.724
1528.4600, -32.670
1528.4800, -32.638
1528.5000, -32.593
1528.5200, -32.545
1528.5400, -32.514
1528.5600, -32.469
1528.5800, -32.425
1528.6000, -32.382
1528.6200, -32.352
1528.6400, -32.305
1528.6600, -32.279
1528.6800, -32.240
1528.7000, -32.186
1528.7200, -32.134
1528.7400, -32.121
1528.7600, -32.096
1528.7800, -32.057
1528.8000, -32.003
1528.8200, -31.924
1528.8400, -31.916
1528.8600, -31.869
1528.8800, -31.834
1528.9000, -31.749
1528.9200, -31.706
1528.9400, -31.662
1528.9600, -31.629
1528.9800, -31.570
1529.0000, -31.526
1529.0200, -31.479
1529.0400, -31.472
1529.0600, -31.381
1529.0800, -31.402
1529.1000, -31.376
1529.1200, -31.357
1529.1400, -31.250
1529.1600, -31.209
1529.1800, -31.169
1529.2000, -31.095
1529.2200, -31.160
1529.2400, -31.106
1529.2600, -30.962
1529.2800, -31.012
1529.3000, -30.952
1529.3200, -30.963
1529.3400, -30.908
1529.3600, -30.816
1529.3800, -30.889
1529.4000, -30.681
1529.4200, -30.619
1529.4400, -30.602
1529.4600, -30.573
1529.4800, -30.496
1529.5000, -30.683
1529.5200, -30.495
1529.5400, -30.541
1529.5600, -30.466
1529.5800, -30.346
1529.6000, -30.429
1529.6200, -30.266
1529.6400, -30.151
1529.6600, -30.236
1529.6800, -30.157
1529.7000, -30.156
1529.7200, -30.160
1529.7400, -30.056
1529.7600, -30.100
1529.7800, -30.042
1529.8000, -29.962
1529.8200, -29.939
1529.8400, -29.756
1529.8600, -29.751
1529.8800, -29.628
1529.9000, -29.654
1529.9200, -29.537
1529.9400, -29.579
1529.9600, -29.449
1529.9800, -29.402
1530.0000, -29.311
1530.0200, -29.360
1530.0400, -29.160
1530.0600, -29.253
1530.0800, -29.100
1530.1000, -29.072
1530.1200, -29.180
1530.1400, -29.032
1530.1600, -29.072
1530.1800, -29.008
1530.2000, -29.021
1530.2200, -29.216
1530.2400, -28.972
1530.2600, -29.083
1530.2800, -28.953
1530.3000, -28.869
1530.3200, -28.851
1530.3400, -28.908
1530.3600, -28.877
1530.3800, -28.776
1530.4000, -28.795
1530.4200, -28.577
1530.4400, -28.655
1530.4600, -28.490
1530.4800, -28.416
1530.5000, -28.170
1530.5200, -28.224
1530.5400, -28.132
1530.5600, -27.667
1530.5800, -28.056
1530.6000, -28.129
1530.6200, -28.213
1530.6400, -28.157
1530.6600, -27.667
1530.6800, -28.026
1530.7000, -26.770
1530.7200, -26.892
1530.7400, -27.788
1530.7600, -27.687
1530.7800, -27.415
1530.8000, -27.116
1530.8200, -28.147
1530.8400, -27.957
1530.8600, -27.876
1530.8800, -27.888
1530.9000, -27.839
1530.9200, -27.527
1530.9400, -27.442
1530.9600, -27.831
1530.9800, -26.939
1531.0000, -28.028
1531.0200, -28.088
1531.0400, -28.160
1531.0600, -28.159
1531.0800, -28.270
1531.1000, -28.232
1531.1200, -28.170
1531.1400, -28.039
1531.1600, -28.188
1531.1800, -27.801
1531.2000, -26.869
1531.2200, -27.891
1531.2400, -27.979
1531.2600, -26.801
1531.2800, -26.969
1531.3000, -28.098
1531.3200, -27.923
1531.3400, -27.785
1531.3600, -27.545
1531.3800, -27.529
1531.4000, -26.814
1531.4200, -27.631
1531.4400, -27.165
1531.4600, -26.619
1531.4800, -26.561
1531.5000, -26.574
1531.5200, -27.091
1531.5400, -27.709
1531.5600, -26.828
1531.5800, -25.457
1531.6000, -26.814
1531.6200, -27.583
1531.6400, -27.503
1531.6600, -27.037
1531.6800, -25.888
1531.7000, -27.076
1531.7200, -27.590
1531.7400, -26.697
1531.7600, -27.070
1531.7800, -26.919
1531.8000, -27.199
1531.8200, -25.974
1531.8400, -26.218
1531.8600, -26.613
1531.8800, -25.544
1531.9000, -26.918
1531.9200, -26.733
1531.9400, -24.234
1531.9600, -26.466
1531.9800, -26.766
1532.0000, -25.451
1532.0200, -26.447
1532.0400, -26.730
1532.0600, -26.098
1532.0800, -25.503
1532.1000, -23.501
1532.1200, -24.369
1532.1400, -26.882
1532.1600, -26.317
1532.1800, -25.879
1532.2000, -26.791
1532.2200, -27.072
1532.2400, -26.809
1532.2600, -25.883
1532.2800, -27.169
1532.3000, -27.298
1532.3200, -25.281
1532.3400, -27.263
1532.3600, -27.014
1532.3800, -27.152
1532.4000, -27.217
1532.4200, -24.261
1532.4400, -26.545
1532.4600, -24.598
1532.4800, -25.884
1532.5000, -24.697
1532.5200, -25.643
1532.5400, -27.300
1532.5600, -26.455
1532.5800, -26.315
1532.6000, -26.863
1532.6200, -26.985
1532.6400, -24.382
1532.6600, -26.715
1532.6800, -25.983
1532.7000, -25.721
1532.7200, -26.370
1532.7400, -26.693
1532.7600, -27.613
1532.7800, -28.180
1532.8000, -28.180
1532.8200, -25.476
1532.8400, -27.150
1532.8600, -27.545
1532.8800, -28.059
1532.9000, -27.707
1532.9200, -26.947
1532.9400, -25.613
1532.9600, -25.113
1532.9800, -27.344
1533.0000, -28.174
1533.0200, -28.358
1533.0400, -27.911
1533.0600, -28.087
1533.0800, -27.503
1533.1000, -27.214
1533.1200, -26.160
1533.1400, -27.602
1533.1600, -28.575
1533.1800, -28.586
1533.2000, -28.261
1533.2200, -27.952
1533.2400, -28.384
1533.2600, -28.459
1533.2800, -28.681
1533.3000, -28.170
1533.3200, -28.363
1533.3400, -27.801
1533.3600, -28.793
1533.3800, -28.839
1533.4000, -28.963
1533.4200, -28.977
1533.4400, -28.616
1533.4600, -28.649
1533.4800, -29.133
1533.5000, -29.135
1533.5200, -29.076
1533.5400, -29.028
1533.5600, -29.207
1533.5800, -29.499
1533.6000, -29.532
1533.6200, -29.243
1533.6400, -29.641
1533.6600, -29.453
1533.6800, -29.729
1533.7000, -29.856
1533.7200, -29.898
1533.7400, -30.003
1533.7600, -30.080
1533.7800, -30.019
1533.8000, -30.170
1533.8200, -30.237
1533.8400, -30.340
1533.8600, -30.318
1533.8800, -30.361
1533.9000, -30.460
1533.9200, -30.663
1533.9400, -30.743
1533.9600, -30.770
1533.9800, -30.769
1534.0000, -30.767
1534.0200, -30.845
1534.0400, -30.900
1534.0600, -31.030
1534.0800, -31.060
1534.1000, -31.013
1534.1200, -31.072
1534.1400, -31.271
1534.1600, -31.199
1534.1800, -31.361
1534.2000, -31.387
1534.2200, -31.472
1534.2400, -31.433
1534.2600, -31.579
1534.2800, -31.639
1534.3000, -31.693
1534.3200, -31.654
1534.3400, -31.823
1534.3600, -31.946
1534.3800, -32.046
1534.4000, -32.057
1534.4200, -32.134
1534.4400, -32.183
1534.4600, -32.356
1534.4800, -32.424
1534.5000, -32.449
1534.5200, -32.579
1534.5400, -32.580
1534.5600, -32.724
1534.5800, -32.751
1534.6000, -32.793
1534.6200, -32.866
1534.6400, -32.874
1534.6600, -33.036
1534.6800, -33.057
1534.7000, -33.075
1534.7200, -33.157
1534.7400, -33.192
1534.7600, -33.219
1534.7800, -33.314
1534.8000, -33.382
1534.8200, -33.485
1534.8400, -33.571
1534.8600, -33.630
1534.8800, -33.746
1534.9000, -33.820
1534.9200, -33.795
1534.9400, -33.799
1534.9600, -33.894
1534.9800, -33.926
1535.0000, -33.995
1535.0200, -34.082
1535.0400, -34.164
1535.0600, -34.136
1535.0800, -34.212
1535.1000, -34.253
1535.1200, -34.352
1535.1400, -34.370
1535.1600, -34.429
1535.1800, -34.478
1535.2000, -34.506
1535.2200, -34.585
1535.2400, -34.602
1535.2600, -34.648
1535.2800, -34.730
1535.3000, -34.785
1535.3200, -34.841
1535.3400, -34.948
1535.3600, -34.974
1535.3800, -35.027
1535.4000, -35.055
1535.4200, -35.093
1535.4400, -35.136
1535.4600, -35.209
1535.4800, -35.271
1535.5000, -35.336
1535.5200, -35.386
1535.5400, -35.435
1535.5600, -35.492
1535.5800, -35.546
1535.6000, -35.596
1535.6200, -35.650
1535.6400, -35.704
1535.6600, -35.742
1535.6800, -35.807
1535.7000, -35.871
1535.7200, -35.923
1535.7400, -35.976
1535.7600, -36.040
1535.7800, -36.104
1535.8000, -36.163
1535.8200, -36.219
1535.8400, -36.268
1535.8600, -36.308
1535.8800, -36.360
1535.9000, -36.410
1535.9200, -36.463
1535.9400, -36.524
1535.9600, -36.577
1535.9800, -36.629
1536.0000, -36.680
1536.0200, -36.735
1536.0400, -36.781
1536.0600, -36.828
1536.0800, -36.869
1536.1000, -36.913
1536.1200, -36.959
1536.1400, -37.007
1536.1600, -37.057
1536.1800, -37.104
1536.2000, -37.148
1536.2200, -37.195
1536.2400, -37.244
1536.2600, -37.305
1536.2800, -37.349
1536.3000, -37.383
1536.3200, -37.417
1536.3400, -37.460
1536.3600, -37.503
1536.3800, -37.547
1536.4000, -37.600
1536.4200, -37.641
1536.4400, -37.672
1536.4600, -37.721
1536.4800, -37.760
1536.5000, -37.786
1536.5200, -37.854
1536.5400, -37.898
1536.5600, -37.919
1536.5800, -37.947
1536.6000, -37.992
1536.6200, -38.022
1536.6400, -38.057
1536.6600, -38.089
1536.6800, -38.120
1536.7000, -38.160
1536.7200, -38.195
1536.7400, -38.232
1536.7600, -38.261
1536.7800, -38.287
1536.8000, -38.319
1536.8200, -38.349
1536.8400, -38.385
1536.8600, -38.414
1536.8800, -38.450
1536.9000, -38.480
1536.9200, -38.514
1536.9400, -38.553
1536.9600, -38.580
1536.9800, -38.615
1537.0000, -38.645
1537.0200, -38.670
1537.0400, -38.703
1537.0600, -38.734
1537.0800, -38.766
1537.1000, -38.796
1537.1200, -38.828
1537.1400, -38.869
1537.1600, -38.892
1537.1800, -38.932
1537.2000, -38.959
1537.2200, -38.981
1537.2400, -39.008
1537.2600, -39.041
1537.2800, -39.060
1537.3000, -39.091
1537.3200, -39.122
1537.3400, -39.148
1537.3600, -39.171
1537.3800, -39.210
1537.4000, -39.214
1537.4200, -39.242
1537.4400, -39.271
1537.4600, -39.292
1537.4800, -39.315
1537.5000, -39.336
1537.5200, -39.362
1537.5400, -39.386
1537.5600, -39.412
1537.5800, -39.438
1537.6000, -39.465
1537.6200, -39.500
1537.6400, -39.517
1537.6600, -39.542
1537.6800, -39.566
1537.7000, -39.580
1537.7200, -39.602
1537.7400, -39.623
1537.7600, -39.653
1537.7800, -39.667
1537.8000, -39.684
1537.8200, -39.704
1537.8400, -39.726
1537.8600, -39.751
1537.8800, -39.770
1537.9000, -39.799
1537.9200, -39.810
1537.9400, -39.829
1537.9600, -39.844
1537.9800, -39.861
1538.0000, -39.878
1538.0200, -39.900
1538.0400, -39.917
1538.0600, -39.948
1538.0800, -39.961
1538.1000, -39.988
1538.1200, -40.003
1538.1400, -40.017
1538.1600, -40.027
1538.1800, -40.056
1538.2000, -40.066
1538.2200, -40.086
1538.2400, -40.107
1538.2600, -40.111
1538.2800, -40.123
1538.3000, -40.158
1538.3200, -40.166
1538.3400, -40.181
1538.3600, -40.196
1538.3800, -40.212
1538.4000, -40.223
1538.4200, -40.220
1538.4400, -40.236
1538.4600, -40.241
1538.4800, -40.253
1538.5000, -40.265
1538.5200, -40.284
1538.5400, -40.300
1538.5600, -40.314
1538.5800, -40.330
1538.6000, -40.341
1538.6200, -40.347
1538.6400, -40.357
1538.6600, -40.374
1538.6800, -40.383
1538.7000, -40.392
1538.7200, -40.398
1538.7400, -40.406
1538.7600, -40.414
1538.7800, -40.427
1538.8000, -40.445
1538.8200, -40.449
1538.8400, -40.458
1538.8600, -40.462
1538.8800, -40.472
1538.9000, -40.478
1538.9200, -40.498
1538.9400, -40.517
1538.9600, -40.524
1538.9800, -40.526
1539.0000, -40.529
1539.0200, -40.549
1539.0400, -40.552
1539.0600, -40.545
1539.0800, -40.551
1539.1000, -40.564
1539.1200, -40.573
1539.1400, -40.585
1539.1600, -40.594
1539.1800, -40.588
1539.2000, -40.602
1539.2200, -40.612
1539.2400, -40.614
1539.2600, -40.634
1539.2800, -40.641
1539.3000, -40.645
1539.3200, -40.627
1539.3400, -40.635
1539.3600, -40.642
1539.3800, -40.642
1539.4000, -40.646
1539.4200, -40.651
1539.4400, -40.655
1539.4600, -40.661
1539.4800, -40.673
1539.5000, -40.678
1539.5200, -40.683
1539.5400, -40.683
1539.5600, -40.687
1539.5800, -40.703
1539.6000, -40.701
1539.6200, -40.709
1539.6400, -40.718
1539.6600, -40.718
1539.6800, -40.719
1539.7000, -40.720
1539.7200, -40.726
1539.7400, -40.727
1539.7600, -40.728
1539.7800, -40.727
1539.8000, -40.729
1539.8200, -40.733
1539.8400, -40.755
1539.8600, -40.757
1539.8800, -40.757
1539.9000, -40.749
1539.9200, -40.770
1539.9400, -40.772
1539.9600, -40.768
1539.9800, -40.759
1540.0000, -40.768
1540.0200, -40.769
1540.0400, -40.761
1540.0600, -40.778
1540.0800, -40.771
1540.1000, -40.776
1540.1200, -40.784
1540.1400, -40.784
1540.1600, -40.781
1540.1800, -40.801
1540.2000, -40.792
1540.2200, -40.783
1540.2400, -40.782
1540.2600, -40.784
1540.2800, -40.787
1540.3000, -40.779
1540.3200, -40.780
1540.3400, -40.775
1540.3600, -40.774
1540.3800, -40.768
1540.4000, -40.771
1540.4200, -40.772
1540.4400, -40.770
1540.4600, -40.763
1540.4800, -40.762
1540.5000, -40.761
1540.5200, -40.757
1540.5400, -40.763
1540.5600, -40.758
1540.5800, -40.756
1540.6000, -40.762
1540.6200, -40.757
1540.6400, -40.760
1540.6600, -40.760
1540.6800, -40.747
1540.7000, -40.746
1540.7200, -40.743
1540.7400, -40.742
1540.7600, -40.739
1540.7800, -40.738
1540.8000, -40.736
1540.8200, -40.732
1540.8400, -40.743
1540.8600, -40.744
1540.8800, -40.740
1540.9000, -40.730
1540.9200, -40.737
1540.9400, -40.726
1540.9600, -40.730
1540.9800, -40.740
1541.0000, -40.735
1541.0200, -40.723
1541.0400, -40.740
1541.0600, -40.723
1541.0800, -40.720
1541.1000, -40.725
1541.1200, -40.715
1541.1400, -40.698
1541.1600, -40.694
1541.1800, -40.695
1541.2000, -40.693
1541.2200, -40.691
1541.2400, -40.686
1541.2600, -40.686
1541.2800, -40.694
1541.3000, -40.686
1541.3200, -40.685
1541.3400, -40.679
1541.3600, -40.670
1541.3800, -40.667
1541.4000, -40.665
1541.4200, -40.663
1541.4400, -40.660
1541.4600, -40.656
1541.4800, -40.652
1541.5000, -40.649
1541.5200, -40.653
1541.5400, -40.650
1541.5600, -40.652
1541.5800, -40.647
1541.6000, -40.639
1541.6200, -40.635
1541.6400, -40.632
1541.6600, -40.628
1541.6800, -40.624
1541.7000, -40.619
1541.7200, -40.617
1541.7400, -40.616
1541.7600, -40.627
1541.7800, -40.625
1541.8000, -40.615
1541.8200, -40.603
1541.8400, -40.610
1541.8600, -40.598
1541.8800, -40.609
1541.9000, -40.607
1541.9200, -40.603
1541.9400, -40.596
1541.9600, -40.604
1541.9800, -40.579
1542.0000, -40.579
1542.0200, -40.583
1542.0400, -40.562
1542.0600, -40.553
1542.0800, -40.547
1542.1000, -40.549
1542.1200, -40.543
1542.1400, -40.537
1542.1600, -40.532
1542.1800, -40.533
1542.2000, -40.529
1542.2200, -40.530
1542.2400, -40.525
1542.2600, -40.516
1542.2800, -40.503
1542.3000, -40.507
1542.3200, -40.500
1542.3400, -40.493
1542.3600, -40.489
1542.3800, -40.482
1542.4000, -40.478
1542.4200, -40.480
1542.4400, -40.472
1542.4600, -40.468
1542.4800, -40.469
1542.5000, -40.455
1542.5200, -40.450
1542.5400, -40.444
1542.5600, -40.440
1542.5800, -40.437
1542.6000, -40.434
1542.6200, -40.430
1542.6400, -40.424
1542.6600, -40.422
1542.6800, -40.433
1542.7000, -40.428
1542.7200, -40.416
1542.7400, -40.420
1542.7600, -40.413
1542.7800, -40.405
1542.8000, -40.415
1542.8200, -40.414
1542.8400, -40.404
1542.8600, -40.410
1542.8800, -40.404
1542.9000, -40.387
1542.9200, -40.398
1542.9400, -40.388
1542.9600, -40.372
1542.9800, -40.372
1543.0000, -40.367
1543.0200, -40.368
1543.0400, -40.359
1543.0600, -40.349
1543.0800, -40.345
1543.1000, -40.349
1543.1200, -40.336
1543.1400, -40.335
1543.1600, -40.340
1543.1800, -40.325
1543.2000, -40.321
1543.2200, -40.316
1543.2400, -40.317
1543.2600, -40.312
1543.2800, -40.313
1543.3000, -40.307
1543.3200, -40.304
1543.3400, -40.310
1543.3600, -40.301
1543.3800, -40.304
1543.4000, -40.301
1543.4200, -40.291
1543.4400, -40.288
1543.4600, -40.284
1543.4800, -40.281
1543.5000, -40.276
1543.5200, -40.274
1543.5400, -40.272
1543.5600, -40.266
1543.5800, -40.278
1543.6000, -40.275
1543.6200, -40.267
1543.6400, -40.255
1543.6600, -40.262
1543.6800, -40.254
1543.7000, -40.255
1543.7200, -40.261
1543.7400, -40.251
1543.7600, -40.235
1543.7800, -40.246
1543.8000, -40.221
1543.8200, -40.229
1543.8400, -40.235
1543.8600, -40.225
1543.8800, -40.213
1543.9000, -40.210
1543.9200, -40.215
1543.9400, -40.211
1543.9600, -40.204
1543.9800, -40.204
1544.0000, -40.208
1544.0200, -40.213
1544.0400, -40.207
1544.0600, -40.207
1544.0800, -40.201
1544.1000, -40.192
1544.1200, -40.189
1544.1400, -40.186
1544.1600, -40.183
1544.1800, -40.181
1544.2000, -40.177
1544.2200, -40.182
1544.2400, -40.179
1544.2600, -40.181
1544.2800, -40.181
1544.3000, -40.188
1544.3200, -40.175
1544.3400, -40.170
1544.3600, -40.167
1544.3800, -40.162
1544.4000, -40.161
1544.4200, -40.160
1544.4400, -40.157
1544.4600, -40.153
1544.4800, -40.157
1544.5000, -40.171
1544.5200, -40.162
1544.5400, -40.167
1544.5600, -40.152
1544.5800, -40.145
1544.6000, -40.141
1544.6200, -40.155
1544.6400, -40.154
1544.6600, -40.154
1544.6800, -40.155
1544.7000, -40.144
1544.7200, -40.142
1544.7400, -40.154
1544.7600, -40.153
1544.7800, -40.145
1544.8000, -40.149
1544.8200, -40.151
1544.8400, -40.151
1544.8600, -40.146
1544.8800, -40.144
1544.9000, -40.146
1544.9200, -40.146
1544.9400, -40.143
1544.9600, -40.153
1544.9800, -40.150
1545.0000, -40.137
1545.0200, -40.131
1545.0400, -40.131
1545.0600, -40.129
1545.0800, -40.132
1545.1000, -40.133
1545.1200, -40.133
1545.1400, -40.136
1545.1600, -40.132
1545.1800, -40.136
1545.2000, -40.135
1545.2200, -40.131
1545.2400, -40.126
1545.2600, -40.127
1545.2800, -40.130
1545.3000, -40.133
1545.3200, -40.149
1545.3400, -40.153
1545.3600, -40.136
1545.3800, -40.131
1545.4000, -40.145
1545.4200, -40.153
1545.4400, -40.150
1545.4600, -40.143
1545.4800, -40.136
1545.5000, -40.121
1545.5200, -40.128
1545.5400, -40.126
1545.5600, -40.127
1545.5800, -40.110
1545.6000, -40.116
1545.6200, -40.103
1545.6400, -40.106
1545.6600, -40.109
1545.6800, -40.110
1545.7000, -40.109
1545.7200, -40.107
1545.7400, -40.114
1545.7600, -40.105
1545.7800, -40.103
1545.8000, -40.100
1545.8200, -40.098
1545.8400, -40.098
1545.8600, -40.102
1545.8800, -40.100
1545.9000, -40.101
1545.9200, -40.096
1545.9400, -40.094
1545.9600, -40.095
1545.9800, -40.093
1546.0000, -40.094
1546.0200, -40.099
1546.0400, -40.097
1546.0600, -40.097
1546.0800, -40.090
1546.1000, -40.088
1546.1200, -40.088
1546.1400, -40.085
1546.1600, -40.082
1546.1800, -40.087
1546.2000, -40.087
1546.2200, -40.106
1546.2400, -40.109
1546.2600, -40.106
1546.2800, -40.091
1546.3000, -40.100
1546.3200, -40.111
1546.3400, -40.101
1546.3600, -40.103
1546.3800, -40.091
1546.4000, -40.096
1546.4200, -40.098
1546.4400, -40.114
1546.4600, -40.116
1546.4800, -40.115
1546.5000, -40.128
1546.5200, -40.113
1546.5400, -40.112
1546.5600, -40.128
1546.5800, -40.128
1546.6000, -40.114
1546.6200, -40.112
1546.6400, -40.113
1546.6600, -40.121
1546.6800, -40.120
1546.7000, -40.123
1546.7200, -40.127
1546.7400, -40.128
1546.7600, -40.127
1546.7800, -40.129
1546.8000, -40.126
1546.8200, -40.112
1546.8400, -40.109
1546.8600, -40.108
1546.8800, -40.107
1546.9000, -40.107
1546.9200, -40.114
1546.9400, -40.107
1546.9600, -40.109
1546.9800, -40.115
1547.0000, -40.116
1547.0200, -40.116
1547.0400, -40.105
1547.0600, -40.098
1547.0800, -40.099
1547.1000, -40.099
1547.1200, -40.099
1547.1400, -40.101
1547.1600, -40.104
1547.1800, -40.106
1547.2000, -40.124
1547.2200, -40.130
1547.2400, -40.124
1547.2600, -40.114
1547.2800, -40.126
1547.3000, -40.124
1547.3200, -40.117
1547.3400, -40.128
1547.3600, -40.135
1547.3800, -40.133
1547.4000, -40.137
1547.4200, -40.138
1547.4400, -40.124
1547.4600, -40.135
1547.4800, -40.141
1547.5000, -40.123
1547.5200, -40.122
1547.5400, -40.124
1547.5600, -40.128
1547.5800, -40.123
1547.6000, -40.122
1547.6200, -40.121
1547.6400, -40.125
1547.6600, -40.128
1547.6800, -40.134
1547.7000, -40.142
1547.7200, -40.134
1547.7400, -40.132
1547.7600, -40.134
1547.7800, -40.137
1547.8000, -40.134
1547.8200, -40.138
1547.8400, -40.136
1547.8600, -40.136
1547.8800, -40.141
1547.9000, -40.140
1547.9200, -40.148
1547.9400, -40.150
1547.9600, -40.141
1547.9800, -40.143
1548.0000, -40.147
1548.0200, -40.153
1548.0400, -40.155
1548.0600, -40.156
1548.0800, -40.159
1548.1000, -40.161
1548.1200, -40.172
1548.1400, -40.170
1548.1600, -40.167
1548.1800, -40.169
1548.2000, -40.159
1548.2200, -40.167
1548.2400, -40.177
1548.2600, -40.185
1548.2800, -40.183
1548.3000, -40.190
1548.3200, -40.170
1548.3400, -40.166
1548.3600, -40.168
1548.3800, -40.171
1548.4000, -40.171
1548.4200, -40.173
1548.4400, -40.174
1548.4600, -40.179
1548.4800, -40.190
1548.5000, -40.197
1548.5200, -40.195
1548.5400, -40.189
1548.5600, -40.192
1548.5800, -40.193
1548.6000, -40.201
1548.6200, -40.211
1548.6400, -40.207
1548.6600, -40.208
1548.6800, -40.211
1548.7000, -40.213
1548.7200, -40.218
1548.7400, -40.225
1548.7600, -40.224
1548.7800, -40.222
1548.8000, -40.231
1548.8200, -40.235
1548.8400, -40.232
1548.8600, -40.231
1548.8800, -40.233
1548.9000, -40.232
1548.9200, -40.246
1548.9400, -40.250
1548.9600, -40.251
1548.9800, -40.247
1549.0000, -40.245
1549.0200, -40.254
1549.0400, -40.257
1549.0600, -40.256
1549.0800, -40.259
1549.1000, -40.258
1549.1200, -40.257
1549.1400, -40.255
1549.1600, -40.265
1549.1800, -40.256
1549.2000, -40.265
1549.2200, -40.265
1549.2400, -40.282
1549.2600, -40.289
1549.2800, -40.295
1549.3000, -40.296
1549.3200, -40.274
1549.3400, -40.268
1549.3600, -40.271
1549.3800, -40.270
1549.4000, -40.276
1549.4200, -40.270
1549.4400, -40.272
1549.4600, -40.278
1549.4800, -40.285
1549.5000, -40.288
1549.5200, -40.293
1549.5400, -40.293
1549.5600, -40.296
1549.5800, -40.298
1549.6000, -40.298
1549.6200, -40.304
1549.6400, -40.307
1549.6600, -40.306
1549.6800, -40.308
1549.7000, -40.312
1549.7200, -40.313
1549.7400, -40.315
1549.7600, -40.319
1549.7800, -40.317
1549.8000, -40.319
1549.8200, -40.325
1549.8400, -40.330
1549.8600, -40.334
1549.8800, -40.336
1549.9000, -40.351
1549.9200, -40.350
1549.9400, -40.352
1549.9600, -40.343
1549.9800, -40.340
1550.0000, -40.355
1550.0200, -40.349
1550.0400, -40.362
1550.0600, -40.361
1550.0800, -40.353
1550.1000, -40.362
1550.1200, -40.379
1550.1400, -40.381
1550.1600, -40.371
1550.1800, -40.379
1550.2000, -40.374
1550.2200, -40.370
1550.2400, -40.368
1550.2600, -40.374
1550.2800, -40.376
1550.3000, -40.391
1550.3200, -40.389
1550.3400, -40.394
1550.3600, -40.397
1550.3800, -40.404
1550.4000, -40.410
1550.4200, -40.416
1550.4400, -40.414
1550.4600, -40.418
1550.4800, -40.417
1550.5000, -40.418
1550.5200, -40.424
1550.5400, -40.428
1550.5600, -40.430
1550.5800, -40.431
1550.6000, -40.434
1550.6200, -40.441
1550.6400, -40.448
1550.6600, -40.455
1550.6800, -40.460
1550.7000, -40.460
1550.7200, -40.464
1550.7400, -40.469
1550.7600, -40.474
1550.7800, -40.479
1550.8000, -40.493
1550.8200, -40.498
1550.8400, -40.504
1550.8600, -40.506
1550.8800, -40.510
1550.9000, -40.523
1550.9200, -40.518
1550.9400, -40.521
1550.9600, -40.519
1550.9800, -40.507
1551.0000, -40.509
1551.0200, -40.514
1551.0400, -40.526
1551.0600, -40.530
1551.0800, -40.537
1551.1000, -40.535
1551.1200, -40.519
1551.1400, -40.516
1551.1600, -40.520
1551.1800, -40.523
1551.2000, -40.526
1551.2200, -40.526
1551.2400, -40.531
1551.2600, -40.536
1551.2800, -40.546
1551.3000, -40.547
1551.3200, -40.548
1551.3400, -40.550
1551.3600, -40.553
1551.3800, -40.555
1551.4000, -40.554
1551.4200, -40.557
1551.4400, -40.555
1551.4600, -40.556
1551.4800, -40.560
1551.5000, -40.560
1551.5200, -40.569
1551.5400, -40.568
1551.5600, -40.566
1551.5800, -40.570
1551.6000, -40.569
1551.6200, -40.574
1551.6400, -40.580
1551.6600, -40.585
1551.6800, -40.594
1551.7000, -40.607
1551.7200, -40.616
1551.7400, -40.623
1551.7600, -40.618
1551.7800, -40.618
1551.8000, -40.635
1551.8200, -40.634
1551.8400, -40.643
1551.8600, -40.644
1551.8800, -40.643
1551.9000, -40.648
1551.9200, -40.663
1551.9400, -40.663
1551.9600, -40.667
1551.9800, -40.676
1552.0000, -40.680
1552.0200, -40.665
1552.0400, -40.665
1552.0600, -40.672
1552.0800, -40.674
1552.1000, -40.681
1552.1200, -40.679
1552.1400, -40.686
1552.1600, -40.690
1552.1800, -40.699
1552.2000, -40.702
1552.2200, -40.706
1552.2400, -40.707
1552.2600, -40.710
1552.2800, -40.711
1552.3000, -40.714
1552.3200, -40.718
1552.3400, -40.720
1552.3600, -40.716
1552.3800, -40.716
1552.4000, -40.721
1552.4200, -40.725
1552.4400, -40.727
1552.4600, -40.729
1552.4800, -40.725
1552.5000, -40.728
1552.5200, -40.735
1552.5400, -40.733
1552.5600, -40.735
1552.5800, -40.751
1552.6000, -40.757
1552.6200, -40.762
1552.6400, -40.764
1552.6600, -40.760
1552.6800, -40.758
1552.7000, -40.775
1552.7200, -40.767
1552.7400, -40.774
1552.7600, -40.782
1552.7800, -40.774
1552.8000, -40.787
1552.8200, -40.792
1552.8400, -40.793
1552.8600, -40.782
1552.8800, -40.792
1552.9000, -40.790
1552.9200, -40.792
1552.9400, -40.788
1552.9600, -40.795
1552.9800, -40.797
1553.0000, -40.802
1553.0200, -40.801
1553.0400, -40.802
1553.0600, -40.808
1553.0800, -40.813
1553.1000, -40.817
1553.1200, -40.823
1553.1400, -40.820
1553.1600, -40.823
1553.1800, -40.825
1553.2000, -40.830
1553.2200, -40.833
1553.2400, -40.837
1553.2600, -40.839
1553.2800, -40.842
1553.3000, -40.848
1553.3200, -40.855
1553.3400, -40.861
1553.3600, -40.862
1553.3800, -40.864
1553.4000, -40.859
1553.4200, -40.858
1553.4400, -40.860
1553.4600, -40.861
1553.4800, -40.864
1553.5000, -40.879
1553.5200, -40.879
1553.5400, -40.878
1553.5600, -40.870
1553.5800, -40.878
1553.6000, -40.893
1553.6200, -40.895
1553.6400, -40.899
1553.6600, -40.904
1553.6800, -40.897
1553.7000, -40.903
1553.7200, -40.910
1553.7400, -40.911
1553.7600, -40.920
1553.7800, -40.925
1553.8000, -40.924
1553.8200, -40.914
1553.8400, -40.916
1553.8600, -40.918
1553.8800, -40.925
1553.9000, -40.924
1553.9200, -40.926
1553.9400, -40.928
1553.9600, -40.929
1553.9800, -40.936
1554.0000, -40.937
1554.0200, -40.939
1554.0400, -40.942
1554.0600, -40.950
1554.0800, -40.953
1554.1000, -40.954
1554.1200, -40.957
1554.1400, -40.961
1554.1600, -40.964
1554.1800, -40.966
1554.2000, -40.970
1554.2200, -40.980
1554.2400, -40.981
1554.2600, -40.982
1554.2800, -40.983
1554.3000, -40.984
1554.3200, -40.986
1554.3400, -40.987
1554.3600, -40.992
1554.3800, -40.995
1554.4000, -40.997
1554.4200, -40.995
1554.4400, -40.995
1554.4600, -40.986
1554.4800, -40.986
1554.5000, -40.993
1554.5200, -40.998
1554.5400, -41.004
1554.5600, -41.004
1554.5800, -41.000
1554.6000, -40.995
1554.6200, -40.999
1554.6400, -41.000
1554.6600, -41.012
1554.6800, -41.016
1554.7000, -41.018
1554.7200, -41.011
1554.7400, -41.012
1554.7600, -41.014
1554.7800, -41.013
1554.8000, -41.014
1554.8200, -41.017
1554.8400, -41.018
1554.8600, -41.022
1554.8800, -41.028
1554.9000, -41.032
1554.9200, -41.035
1554.9400, -41.038
1554.9600, -41.034
1554.9800, -41.036
1555.0000, -41.039
1555.0200, -41.038
1555.0400, -41.037
1555.0600, -41.037
1555.0800, -41.039
1555.1000, -41.040
1555.1200, -41.043
1555.1400, -41.044
1555.1600, -41.053
1555.1800, -41.051
1555.2000, -41.057
1555.2200, -41.057
1555.2400, -41.073
1555.2600, -41.078
1555.2800, -41.073
1555.3000, -41.084
1555.3200, -41.090
1555.3400, -41.086
1555.3600, -41.079
1555.3800, -41.081
1555.4000, -41.085
1555.4200, -41.088
1555.4400, -41.096
1555.4600, -41.093
1555.4800, -41.091
1555.5000, -41.100
1555.5200, -41.111
1555.5400, -41.114
1555.5600, -41.128
1555.5800, -41.132
1555.6000, -41.124
1555.6200, -41.120
1555.6400, -41.124
1555.6600, -41.129
1555.6800, -41.133
1555.7000, -41.132
1555.7200, -41.132
1555.7400, -41.130
1555.7600, -41.133
1555.7800, -41.139
1555.8000, -41.138
1555.8200, -41.141
1555.8400, -41.147
1555.8600, -41.149
1555.8800, -41.152
1555.9000, -41.153
1555.9200, -41.156
1555.9400, -41.161
1555.9600, -41.159
1555.9800, -41.161
1556.0000, -41.164
1556.0200, -41.170
1556.0400, -41.173
1556.0600, -41.177
1556.0800, -41.178
1556.1000, -41.180
1556.1200, -41.194
1556.1400, -41.201
1556.1600, -41.205
1556.1800, -41.201
1556.2000, -41.200
1556.2200, -41.204
1556.2400, -41.214
1556.2600, -41.207
1556.2800, -41.207
1556.3000, -41.201
1556.3200, -41.210
1556.3400, -41.217
1556.3600, -41.222
1556.3800, -41.221
1556.4000, -41.222
1556.4200, -41.217
1556.4400, -41.221
1556.4600, -41.223
1556.4800, -41.223
1556.5000, -41.226
1556.5200, -41.232
1556.5400, -41.231
1556.5600, -41.244
1556.5800, -41.237
1556.6000, -41.238
1556.6200, -41.240
1556.6400, -41.243
1556.6600, -41.248
1556.6800, -41.251
1556.7000, -41.258
1556.7200, -41.258
1556.7400, -41.263
1556.7600, -41.267
1556.7800, -41.269
1556.8000, -41.277
1556.8200, -41.285
1556.8400, -41.283
1556.8600, -41.285
1556.8800, -41.288
1556.9000, -41.295
1556.9200, -41.296
1556.9400, -41.298
1556.9600, -41.300
1556.9800, -41.302
1557.0000, -41.313
1557.0200, -41.315
1557.0400, -41.324
1557.0600, -41.319
1557.0800, -41.323
1557.1000, -41.327
1557.1200, -41.332
1557.1400, -41.329
1557.1600, -41.346
1557.1800, -41.344
1557.2000, -41.344
1557.2200, -41.347
1557.2400, -41.356
1557.2600, -41.351
1557.2800, -41.369
1557.3000, -41.372
1557.3200, -41.372
1557.3400, -41.386
1557.3600, -41.388
1557.3800, -41.392
1557.4000, -41.387
1557.4200, -41.391
1557.4400, -41.403
1557.4600, -41.408
1557.4800, -41.413
1557.5000, -41.416
1557.5200, -41.419
1557.5400, -41.424
1557.5600, -41.433
1557.5800, -41.434
1557.6000, -41.438
1557.6200, -41.441
1557.6400, -41.446
1557.6600, -41.451
1557.6800, -41.457
1557.7000, -41.467
1557.7200, -41.464
1557.7400, -41.470
1557.7600, -41.479
1557.7800, -41.485
1557.8000, -41.490
1557.8200, -41.493
1557.8400, -41.492
1557.8600, -41.494
1557.8800, -41.495
1557.9000, -41.495
1557.9200, -41.497
1557.9400, -41.510
1557.9600, -41.517
1557.9800, -41.518
1558.0000, -41.529
1558.0200, -41.533
1558.0400, -41.536
1558.0600, -41.540
1558.0800, -41.547
1558.1000, -41.553
1558.1200, -41.561
1558.1400, -41.572
1558.1600, -41.579
1558.1800, -41.584
1558.2000, -41.591
1558.2200, -41.594
1558.2400, -41.600
1558.2600, -41.605
1558.2800, -41.607
1558.3000, -41.604
1558.3200, -41.608
1558.3400, -41.617
1558.3600, -41.626
1558.3800, -41.629
1558.4000, -41.638
1558.4200, -41.641
1558.4400, -41.643
1558.4600, -41.653
1558.4800, -41.654
1558.5000, -41.658
1558.5200, -41.664
1558.5400, -41.668
1558.5600, -41.678
1558.5800, -41.680
1558.6000, -41.692
1558.6200, -41.691
1558.6400, -41.698
1558.6600, -41.707
1558.6800, -41.714
1558.7000, -41.720
1558.7200, -41.728
1558.7400, -41.732
1558.7600, -41.736
1558.7800, -41.749
1558.8000, -41.747
1558.8200, -41.764
1558.8400, -41.773
1558.8600, -41.775
1558.8800, -41.785
1558.9000, -41.789
1558.9200, -41.801
1558.9400, -41.809
1558.9600, -41.822
1558.9800, -41.825
1559.0000, -41.833
1559.0200, -41.846
1559.0400, -41.852
1559.0600, -41.871
1559.0800, -41.883
1559.1000, -41.879
1559.1200, -41.897
1559.1400, -41.908
1559.1600, -41.904
1559.1800, -41.915
1559.2000, -41.924
1559.2200, -41.932
1559.2400, -41.938
1559.2600, -41.943
1559.2800, -41.950
1559.3000, -41.957
1559.3200, -41.965
1559.3400, -41.982
1559.3600, -41.986
1559.3800, -41.992
1559.4000, -41.997
1559.4200, -42.004
1559.4400, -42.013
1559.4600, -42.023
1559.4800, -42.030
1559.5000, -42.038
1559.5200, -42.051
1559.5400, -42.060
1559.5600, -42.076
1559.5800, -42.083
1559.6000, -42.091
1559.6200, -42.095
1559.6400, -42.103
1559.6600, -42.111
1559.6800, -42.117
1559.7000, -42.127
1559.7200, -42.143
1559.7400, -42.156
1559.7600, -42.165
1559.7800, -42.180
1559.8000, -42.181
1559.8200, -42.191
1559.8400, -42.199
1559.8600, -42.194
1559.8800, -42.206
1559.9000, -42.223
1559.9200, -42.229
1559.9400, -42.238
1559.9600, -42.251
1559.9800, -42.253
1560.0000, -42.260
1560.0200, -42.283
1560.0400, -42.288
1560.0600, -42.292
1560.0800, -42.302
1560.1000, -42.315
1560.1200, -42.324
1560.1400, -42.334
1560.1600, -42.344
1560.1800, -42.354
1560.2000, -42.368
1560.2200, -42.381
1560.2400, -42.395
1560.2600, -42.405
1560.2800, -42.414
1560.3000, -42.428
1560.3200, -42.438
1560.3400, -42.449
1560.3600, -42.461
1560.3800, -42.469
1560.4000, -42.480
1560.4200, -42.492
1560.4400, -42.503
1560.4600, -42.517
1560.4800, -42.529
1560.5000, -42.538
1560.5200, -42.552
1560.5400, -42.565
1560.5600, -42.578
1560.5800, -42.595
1560.6000, -42.615
1560.6200, -42.620
1560.6400, -42.634
1560.6600, -42.645
1560.6800, -42.668
1560.7000, -42.678
1560.7200, -42.681
1560.7400, -42.695
1560.7600, -42.710
1560.7800, -42.726
1560.8000, -42.738
1560.8200, -42.745
1560.8400, -42.757
1560.8600, -42.771
1560.8800, -42.768
1560.9000, -42.785
1560.9200, -42.802
1560.9400, -42.807
1560.9600, -42.819
1560.9800, -42.829
1561.0000, -42.847
1561.0200, -42.859
1561.0400, -42.867
1561.0600, -42.883
1561.0800, -42.896
1561.1000, -42.909
1561.1200, -42.923
1561.1400, -42.936
1561.1600, -42.944
1561.1800, -42.954
1561.2000, -42.966
1561.2200, -42.980
1561.2400, -42.994
1561.2600, -43.006
1561.2800, -43.020
1561.3000, -43.035
1561.3200, -43.044
1561.3400, -43.060
1561.3600, -43.077
1561.3800, -43.090
1561.4000, -43.099
1561.4200, -43.114
1561.4400, -43.130
1561.4600, -43.147
1561.4800, -43.161
1561.5000, -43.187
1561.5200, -43.192
1561.5400, -43.213
1561.5600, -43.229
1561.5800, -43.246
1561.6000, -43.250
1561.6200, -43.276
1561.6400, -43.288
1561.6600, -43.299
1561.6800, -43.319
1561.7000, -43.330
1561.7200, -43.350
1561.7400, -43.369
1561.7600, -43.378
1561.7800, -43.398
1561.8000, -43.414
1561.8200, -43.415
1561.8400, -43.429
1561.8600, -43.443
1561.8800, -43.458
1561.9000, -43.468
1561.9200, -43.483
1561.9400, -43.498
1561.9600, -43.511
1561.9800, -43.526
1562.0000, -43.542
1562.0200, -43.560
1562.0400, -43.571
1562.0600, -43.585
1562.0800, -43.601
1562.1000, -43.621
1562.1200, -43.639
1562.1400, -43.651
1562.1600, -43.665
1562.1800, -43.681
1562.2000, -43.701
1562.2200, -43.716
1562.2400, -43.738
1562.2600, -43.750
1562.2800, -43.768
1562.3000, -43.781
1562.3200, -43.803
1562.3400, -43.829
1562.3600, -43.845
1562.3800, -43.858
1562.4000, -43.868
1562.4200, -43.895
1562.4400, -43.907
1562.4600, -43.924
1562.4800, -43.935
1562.5000, -43.954
1562.5200, -43.970
1562.5400, -43.985
1562.5600, -44.004
1562.5800, -44.018
1562.6000, -44.035
1562.6200, -44.054
1562.6400, -44.079
1562.6600, -44.091
1562.6800, -44.107
1562.7000, -44.124
1562.7200, -44.133
1562.7400, -44.141
1562.7600, -44.163
1562.7800, -44.175
1562.8000, -44.197
1562.8200, -44.207
1562.8400, -44.227
1562.8600, -44.244
1562.8800, -44.261
1562.9000, -44.281
1562.9200, -44.299
1562.9400, -44.317
1562.9600, -44.330
1562.9800, -44.347
1563.0000, -44.369
1563.0200, -44.387
1563.0400, -44.404
1563.0600, -44.419
1563.0800, -44.439
1563.1000, -44.456
1563.1200, -44.476
1563.1400, -44.493
1563.1600, -44.510
1563.1800, -44.526
1563.2000, -44.546
1563.2200, -44.567
1563.2400, -44.588
1563.2600, -44.603
1563.2800, -44.608
1563.3000, -44.624
1563.3200, -44.650
1563.3400, -44.669
1563.3600, -44.684
1563.3800, -44.700
1563.4000, -44.718
1563.4200, -44.734
1563.4400, -44.758
1563.4600, -44.768
1563.4800, -44.794
1563.5000, -44.808
1563.5200, -44.821
1563.5400, -44.849
1563.5600, -44.866
1563.5800, -44.880
1563.6000, -44.898
1563.6200, -44.909
1563.6400, -44.925
1563.6600, -44.944
1563.6800, -44.970
1563.7000, -44.982
1563.7200, -44.999
1563.7400, -45.018
1563.7600, -45.036
1563.7800, -45.056
1563.8000, -45.071
1563.8200, -45.093
1563.8400, -45.108
1563.8600, -45.124
1563.8800, -45.147
1563.9000, -45.166
1563.9200, -45.186
1563.9400, -45.204
1563.9600, -45.222
1563.9800, -45.241
1564.0000, -45.262
1564.0200, -45.276
1564.0400, -45.293
1564.0600, -45.311
1564.0800, -45.330
1564.1000, -45.349
1564.1200, -45.367
1564.1400, -45.391
1564.1600, -45.411
1564.1800, -45.426
1564.2000, -45.446
1564.2200, -45.459
1564.2400, -45.483
1564.2600, -45.512
1564.2800, -45.526
1564.3000, -45.540
1564.3200, -45.560
1564.3400, -45.579
1564.3600, -45.604
1564.3800, -45.630
1564.4000, -45.633
1564.4200, -45.656
1564.4400, -45.674
1564.4600, -45.696
1564.4800, -45.713
1564.5000, -45.733
1564.5200, -45.756
1564.5400, -45.785
1564.5600, -45.801
1564.5800, -45.815
1564.6000, -45.834
1564.6200, -45.855
1564.6400, -45.870
1564.6600, -45.894
1564.6800, -45.917
1564.7000, -45.934
1564.7200, -45.950
1564.7400, -45.971
1564.7600, -45.990
1564.7800, -46.011
1564.8000, -46.031
1564.8200, -46.048
1564.8400, -46.064
1564.8600, -46.088
1564.8800, -46.104
1564.9000, -46.124
1564.9200, -46.148
1564.9400, -46.161
1564.9600, -46.185
1564.9800, -46.203
1565.0000, -46.228
1565.0200, -46.254
1565.0400, -46.266
1565.0600, -46.290
1565.0800, -46.308
1565.1000, -46.321
1565.1200, -46.343
1565.1400, -46.370
1565.1600, -46.381
1565.1800, -46.404
1565.2000, -46.427
1565.2200, -46.443
1565.2400, -46.461
1565.2600, -46.492
1565.2800, -46.500
1565.3000, -46.523
1565.3200, -46.550
1565.3400, -46.565
1565.3600, -46.581
1565.3800, -46.601
1565.4000, -46.619
1565.4200, -46.651
1565.4400, -46.670
1565.4600, -46.684
1565.4800, -46.702
1565.5000, -46.722
1565.5200, -46.738
1565.5400, -46.761
1565.5600, -46.780
1565.5800, -46.798
1565.6000, -46.818
1565.6200, -46.839
1565.6400, -46.858
1565.6600, -46.881
1565.6800, -46.901
1565.7000, -46.916
1565.7200, -46.933
1565.7400, -46.952
1565.7600, -46.976
1565.7800, -46.998
1565.8000, -47.018
1565.8200, -47.036
1565.8400, -47.055
1565.8600, -47.078
1565.8800, -47.108
1565.9000, -47.128
1565.9200, -47.141
1565.9400, -47.157
1565.9600, -47.188
1565.9800, -47.204
1566.0000, -47.217
1566.0200, -47.251
1566.0400, -47.258
1566.0600, -47.286
1566.0800, -47.307
1566.1000, -47.325
1566.1200, -47.346
1566.1400, -47.374
1566.1600, -47.385
1566.1800, -47.411
1566.2000, -47.431
1566.2200, -47.456
1566.2400, -47.473
1566.2600, -47.484
1566.2800, -47.498
1566.3000, -47.529
1566.3200, -47.546
1566.3400, -47.560
1566.3600, -47.583
1566.3800, -47.601
1566.4000, -47.623
1566.4200, -47.643
1566.4400, -47.660
1566.4600, -47.682
1566.4800, -47.700
1566.5000, -47.721
1566.5200, -47.742
1566.5400, -47.766
1566.5600, -47.788
1566.5800, -47.806
1566.6000, -47.824
1566.6200, -47.841
1566.6400, -47.864
1566.6600, -47.882
1566.6800, -47.906
1566.7000, -47.922
1566.7200, -47.945
1566.7400, -47.968
1566.7600, -47.994
1566.7800, -48.015
1566.8000, -48.024
1566.8200, -48.049
1566.8400, -48.073
1566.8600, -48.091
1566.8800, -48.111
1566.9000, -48.129
1566.9200, -48.140
1566.9400, -48.164
1566.9600, -48.185
1566.9800, -48.202
1567.0000, -48.224
1567.0200, -48.256
1567.0400, -48.261
1567.0600, -48.283
1567.0800, -48.301
1567.1000, -48.322
1567.1200, -48.345
1567.1400, -48.360
1567.1600, -48.383
1567.1800, -48.415
1567.2000, -48.425
1567.2200, -48.439
1567.2400, -48.464
1567.2600, -48.482
1567.2800, -48.500
1567.3000, -48.524
1567.3200, -48.540
1567.3400, -48.563
1567.3600, -48.581
1567.3800, -48.605
1567.4000, -48.621
1567.4200, -48.650
1567.4400, -48.666
1567.4600, -48.679
1567.4800, -48.697
1567.5000, -48.720
1567.5200, -48.748
1567.5400, -48.762
1567.5600, -48.781
1567.5800, -48.801
1567.6000, -48.823
1567.6200, -48.850
1567.6400, -48.871
1567.6600, -48.894
1567.6800, -48.909
1567.7000, -48.931
1567.7200, -48.953
1567.7400, -48.970
1567.7600, -48.990
1567.7800, -49.016
1567.8000, -49.024
1567.8200, -49.045
1567.8400, -49.071
1567.8600, -49.083
1567.8800, -49.114
1567.9000, -49.136
1567.9200, -49.145
1567.9400, -49.169
1567.9600, -49.195
1567.9800, -49.208
1568.0000, -49.220
1568.0200, -49.240
1568.0400, -49.258
1568.0600, -49.288
1568.0800, -49.304
1568.1000, -49.320
1568.1200, -49.339
1568.1400, -49.361
1568.1600, -49.381
1568.1800, -49.401
1568.2000, -49.421
1568.2200, -49.440
1568.2400, -49.457
1568.2600, -49.480
1568.2800, -49.498
1568.3000, -49.528
1568.3200, -49.538
1568.3400, -49.559
1568.3600, -49.583
1568.3800, -49.599
1568.4000, -49.623
1568.4200, -49.644
1568.4400, -49.659
1568.4600, -49.681
1568.4800, -49.694
1568.5000, -49.721
1568.5200, -49.748
1568.5400, -49.765
1568.5600, -49.779
1568.5800, -49.802
1568.6000, -49.824
1568.6200, -49.841
1568.6400, -49.866
1568.6600, -49.882
1568.6800, -49.898
1568.7000, -49.924
1568.7200, -49.940
1568.7400, -49.958
1568.7600, -49.984
1568.7800, -49.995
1568.8000, -50.012
1568.8200, -50.039
1568.8400, -50.062
1568.8600, -50.071
1568.8800, -50.085
1568.9000, -50.107
1568.9200, -50.129
1568.9400, -50.151
1568.9600, -50.168
1568.9800, -50.188
1569.0000, -50.205
1569.0200, -50.224
1569.0400, -50.247
1569.0600, -50.263
1569.0800, -50.283
1569.1000, -50.303
1569.1200, -50.322
1569.1400, -50.342
1569.1600, -50.362
1569.1800, -50.387
1569.2000, -50.403
1569.2200, -50.419
1569.2400, -50.439
1569.2600, -50.460
1569.2800, -50.479
1569.3000, -50.496
1569.3200, -50.521
1569.3400, -50.531
1569.3600, -50.555
1569.3800, -50.568
1569.4000, -50.599
1569.4200, -50.619
1569.4400, -50.638
1569.4600, -50.656
1569.4800, -50.675
1569.5000, -50.689
1569.5200, -50.716
1569.5400, -50.730
1569.5600, -50.751
1569.5800, -50.772
1569.6000, -50.787
1569.6200, -50.808
1569.6400, -50.833
1569.6600, -50.850
1569.6800, -50.875
1569.7000, -50.890
1569.7200, -50.909
1569.7400, -50.929
1569.7600, -50.950
1569.7800, -50.958
1569.8000, -50.980
1569.8200, -50.994
1569.8400, -51.014
1569.8600, -51.034
1569.8800, -51.050
1569.9000, -51.071
1569.9200, -51.093
1569.9400, -51.108
1569.9600, -51.128
1569.9800, -51.149
1570.0000, -51.162
1570.0200, -51.182
1570.0400, -51.202
1570.0600, -51.222
1570.0800, -51.236
1570.1000, -51.260
1570.1200, -51.268
1570.1400, -51.296
1570.1600, -51.314
1570.1800, -51.331
1570.2000, -51.351
1570.2200, -51.370
1570.2400, -51.387
1570.2600, -51.416
1570.2800, -51.438
1570.3000, -51.448
1570.3200, -51.468
1570.3400, -51.490
1570.3600, -51.508
1570.3800, -51.521
1570.4000, -51.545
1570.4200, -51.562
1570.4400, -51.576
1570.4600, -51.598
1570.4800, -51.613
1570.5000, -51.639
1570.5200, -51.658
1570.5400, -51.669
1570.5600, -51.687
1570.5800, -51.719
1570.6000, -51.734
1570.6200, -51.738
1570.6400, -51.759
1570.6600, -51.779
1570.6800, -51.803
1570.7000, -51.815
1570.7200, -51.835
1570.7400, -51.851
1570.7600, -51.875
1570.7800, -51.894
1570.8000, -51.913
1570.8200, -51.929
1570.8400, -51.949
1570.8600, -51.966
1570.8800, -51.989
1570.9000, -51.999
1570.9200, -52.020
1570.9400, -52.039
1570.9600, -52.061
1570.9800, -52.076
1571.0000, -52.088
1571.0200, -52.108
1571.0400, -52.127
1571.0600, -52.147
1571.0800, -52.161
1571.1000, -52.179
1571.1200, -52.197
1571.1400, -52.225
1571.1600, -52.242
1571.1800, -52.251
1571.2000, -52.279
1571.2200, -52.293
1571.2400, -52.311
1571.2600, -52.334
1571.2800, -52.347
1571.3000, -52.366
1571.3200, -52.381
1571.3400, -52.412
1571.3600, -52.425
1571.3800, -52.451
1571.4000, -52.462
1571.4200, -52.481
1571.4400, -52.500
1571.4600, -52.523
1571.4800, -52.534
1571.5000, -52.546
1571.5200, -52.568
1571.5400, -52.583
1571.5600, -52.603
1571.5800, -52.624
1571.6000, -52.637
1571.6200, -52.648
1571.6400, -52.667
1571.6600, -52.693
1571.6800, -52.700
1571.7000, -52.720
1571.7200, -52.739
1571.7400, -52.759
1571.7600, -52.772
1571.7800, -52.785
1571.8000, -52.808
1571.8200, -52.826
1571.8400, -52.847
1571.8600, -52.867
1571.8800, -52.877
1571.9000, -52.898
1571.9200, -52.909
1571.9400, -52.935
1571.9600, -52.952
1571.9800, -52.969
1572.0000, -52.988
1572.0200, -53.010
1572.0400, -53.023
1572.0600, -53.040
1572.0800, -53.055
1572.1000, -53.077
1572.1200, -53.099
1572.1400, -53.113
1572.1600, -53.127
1572.1800, -53.144
1572.2000, -53.158
1572.2200, -53.181
1572.2400, -53.201
1572.2600, -53.212
1572.2800, -53.222
1572.3000, -53.254
1572.3200, -53.270
1572.3400, -53.282
1572.3600, -53.305
1572.3800, -53.309
1572.4000, -53.330
1572.4200, -53.347
1572.4400, -53.361
1572.4600, -53.376
1572.4800, -53.392
1572.5000, -53.404
1572.5200, -53.429
1572.5400, -53.447
1572.5600, -53.466
1572.5800, -53.478
1572.6000, -53.491
1572.6200, -53.510
1572.6400, -53.527
1572.6600, -53.541
1572.6800, -53.551
1572.7000, -53.573
1572.7200, -53.590
1572.7400, -53.606
1572.7600, -53.620
1572.7800, -53.638
1572.8000, -53.652
1572.8200, -53.674
1572.8400, -53.680
1572.8600, -53.706
1572.8800, -53.729
1572.9000, -53.747
1572.9200, -53.755
1572.9400, -53.777
1572.9600, -53.791
1572.9800, -53.806
1573.0000, -53.831
1573.0200, -53.842
1573.0400, -53.860
1573.0600, -53.868
1573.0800, -53.895
1573.1000, -53.904
1573.1200, -53.923
1573.1400, -53.945
1573.1600, -53.962
1573.1800, -53.969
1573.2000, -53.996
1573.2200, -54.006
1573.2400, -54.022
1573.2600, -54.025
1573.2800, -54.048
1573.3000, -54.061
1573.3200, -54.076
1573.3400, -54.089
1573.3600, -54.110
1573.3800, -54.126
1573.4000, -54.142
1573.4200, -54.154
1573.4400, -54.167
1573.4600, -54.181
1573.4800, -54.195
1573.5000, -54.215
1573.5200, -54.231
1573.5400, -54.257
1573.5600, -54.266
1573.5800, -54.275
1573.6000, -54.300
1573.6200, -54.319
1573.6400, -54.330
1573.6600, -54.348
1573.6800, -54.366
1573.7000, -54.375
1573.7200, -54.399
1573.7400, -54.409
1573.7600, -54.434
1573.7800, -54.439
1573.8000, -54.452
1573.8200, -54.478
1573.8400, -54.483
1573.8600, -54.504
1573.8800, -54.511
1573.9000, -54.524
1573.9200, -54.539
1573.9400, -54.570
1573.9600, -54.577
1573.9800, -54.591
1574.0000, -54.606
1574.0200, -54.623
1574.0400, -54.642
1574.0600, -54.654
1574.0800, -54.674
1574.1000, -54.676
1574.1200, -54.696
1574.1400, -54.705
1574.1600, -54.723
1574.1800, -54.741
1574.2000, -54.756
1574.2200, -54.761
1574.2400, -54.788
1574.2600, -54.793
1574.2800, -54.808
1574.3000, -54.833
1574.3200, -54.844
1574.3400, -54.851
1574.3600, -54.858
1574.3800, -54.884
1574.4000, -54.900
1574.4200, -54.912
1574.4400, -54.932
1574.4600, -54.944
1574.4800, -54.950
1574.5000, -54.984
1574.5200, -54.989
1574.5400, -54.999
1574.5600, -55.016
1574.5800, -55.030
1574.6000, -55.046
1574.6200, -55.059
1574.6400, -55.082
1574.6600, -55.083
1574.6800, -55.107
1574.7000, -55.121
1574.7200, -55.152
1574.7400, -55.160
1574.7600, -55.160
1574.7800, -55.180
1574.8000, -55.197
1574.8200, -55.202
1574.8400, -55.216
1574.8600, -55.244
1574.8800, -55.257
1574.9000, -55.270
1574.9200, -55.276
1574.9400, -55.284
1574.9600, -55.307
1574.9800, -55.321
1575.0000, -55.335
1575.0200, -55.346
1575.0400, -55.366
1575.0600, -55.375
1575.0800, -55.385
1575.1000, -55.395
1575.1200, -55.420
1575.1400, -55.427
1575.1600, -55.447
1575.1800, -55.460
1575.2000, -55.475
1575.2200, -55.491
1575.2400, -55.504
1575.2600, -55.518
1575.2800, -55.525
1575.3000, -55.543
1575.3200, -55.553
1575.3400, -55.576
1575.3600, -55.577
1575.3800, -55.588
1575.4000, -55.610
1575.4200, -55.613
1575.4400, -55.634
1575.4600, -55.653
1575.4800, -55.660
1575.5000, -55.677
1575.5200, -55.693
1575.5400, -55.715
1575.5600, -55.712
1575.5800, -55.728
1575.6000, -55.753
1575.6200, -55.763
1575.6400, -55.766
1575.6600, -55.787
1575.6800, -55.801
1575.7000, -55.799
1575.7200, -55.826
1575.7400, -55.852
1575.7600, -55.860
1575.7800, -55.857
1575.8000, -55.878
1575.8200, -55.885
1575.8400, -55.901
1575.8600, -55.910
1575.8800, -55.927
1575.9000, -55.944
1575.9200, -55.966
1575.9400, -55.969
1575.9600, -55.986
1575.9800, -55.996
1576.0000, -56.008
1576.0200, -56.018
1576.0400, -56.041
1576.0600, -56.039
1576.0800, -56.069
1576.1000, -56.071
1576.1200, -56.078
1576.1400, -56.097
1576.1600, -56.110
1576.1800, -56.108
1576.2000, -56.139
1576.2200, -56.163
1576.2400, -56.158
1576.2600, -56.177
1576.2800, -56.181
1576.3000, -56.189
1576.3200, -56.202
1576.3400, -56.216
1576.3600, -56.228
1576.3800, -56.242
1576.4000, -56.257
1576.4200, -56.266
1576.4400, -56.278
1576.4600, -56.279
1576.4800, -56.304
1576.5000, -56.323
1576.5200, -56.324
1576.5400, -56.339
1576.5600, -56.350
1576.5800, -56.370
1576.6000, -56.381
1576.6200, -56.394
1576.6400, -56.406
1576.6600, -56.412
1576.6800, -56.426
1576.7000, -56.434
1576.7200, -56.447
1576.7400, -56.459
1576.7600, -56.464
1576.7800, -56.479
1576.8000, -56.496
1576.8200, -56.502
1576.8400, -56.511
1576.8600, -56.534
1576.8800, -56.544
1576.9000, -56.552
1576.9200, -56.561
1576.9400, -56.574
1576.9600, -56.592
1576.9800, -56.596
1577.0000, -56.611
1577.0200, -56.628
1577.0400, -56.631
1577.0600, -56.640
1577.0800, -56.655
1577.1000, -56.666
1577.1200, -56.676
1577.1400, -56.688
1577.1600, -56.687
1577.1800, -56.712
1577.2000, -56.725
1577.2200, -56.728
1577.2400, -56.741
1577.2600, -56.751
1577.2800, -56.768
1577.3000, -56.785
1577.3200, -56.796
1577.3400, -56.794
1577.3600, -56.823
1577.3800, -56.823
1577.4000, -56.845
1577.4200, -56.838
1577.4400, -56.859
1577.4600, -56.861
1577.4800, -56.898
1577.5000, -56.893
1577.5200, -56.907
1577.5400, -56.906
1577.5600, -56.936
1577.5800, -56.952
1577.6000, -56.948
1577.6200, -56.948
1577.6400, -56.983
1577.6600, -56.971
1577.6800, -56.988
1577.7000, -57.003
1577.7200, -57.015
1577.7400, -57.024
1577.7600, -57.041
1577.7800, -57.044
1577.8000, -57.069
1577.8200, -57.067
1577.8400, -57.062
1577.8600, -57.094
1577.8800, -57.109
1577.9000, -57.113
1577.9200, -57.128
1577.9400, -57.145
1577.9600, -57.160
1577.9800, -57.176
1578.0000, -57.168
1578.0200, -57.193
1578.0400, -57.201
1578.0600, -57.202
1578.0800, -57.217
1578.1000, -57.229
1578.1200, -57.256
1578.1400, -57.251
1578.1600, -57.290
1578.1800, -57.263
1578.2000, -57.274
1578.2200, -57.302
1578.2400, -57.299
1578.2600, -57.325
1578.2800, -57.333
1578.3000, -57.335
1578.3200, -57.357
1578.3400, -57.363
1578.3600, -57.384
1578.3800, -57.387
1578.4000, -57.386
1578.4200, -57.399
1578.4400, -57.399
1578.4600, -57.417
1578.4800, -57.428
1578.5000, -57.442
1578.5200, -57.441
1578.5400, -57.469
1578.5600, -57.462
1578.5800, -57.476
1578.6000, -57.513
1578.6200, -57.497
1578.6400, -57.511
1578.6600, -57.522
1578.6800, -57.539
1578.7000, -57.539
1578.7200, -57.545
1578.7400, -57.556
1578.7600, -57.578
1578.7800, -57.582
1578.8000, -57.590
1578.8200, -57.606
1578.8400, -57.603
1578.8600, -57.629
1578.8800, -57.643
1578.9000, -57.633
1578.9200, -57.636
1578.9400, -57.652
1578.9600, -57.676
1578.9800, -57.689
1579.0000, -57.704
1579.0200, -57.699
1579.0400, -57.707
1579.0600, -57.716
1579.0800, -57.743
1579.1000, -57.749
1579.1200, -57.737
1579.1400, -57.757
1579.1600, -57.777
1579.1800, -57.772
1579.2000, -57.788
1579.2200, -57.805
1579.2400, -57.806
1579.2600, -57.833
1579.2800, -57.830
1579.3000, -57.839
1579.3200, -57.845
1579.3400, -57.859
1579.3600, -57.855
1579.3800, -57.879
1579.4000, -57.903
1579.4200, -57.889
1579.4400, -57.901
1579.4600, -57.914
1579.4800, -57.917
1579.5000, -57.933
1579.5200, -57.930
1579.5400, -57.949
1579.5600, -57.962
1579.5800, -57.967
1579.6000, -57.967
1579.6200, -57.992
1579.6400, -57.996
1579.6600, -58.001
1579.6800, -58.017
1579.7000, -58.022
1579.7200, -58.032
1579.7400, -58.042
1579.7600, -58.045
1579.7800, -58.066
1579.8000, -58.065
1579.8200, -58.080
1579.8400, -58.085
1579.8600, -58.105
1579.8800, -58.095
1579.9000, -58.112
1579.9200, -58.127
1579.9400, -58.142
1579.9600, -58.139
1579.9800, -58.137
1580.0000, -58.161
1580.0200, -58.173
1580.0400, -58.177
1580.0600, -58.193
1580.0800, -58.201
1580.1000, -58.199
1580.1200, -58.205
1580.1400, -58.211
1580.1600, -58.235
1580.1800, -58.233
1580.2000, -58.252
1580.2200, -58.259
1580.2400, -58.258
1580.2600, -58.259
1580.2800, -58.281
1580.3000, -58.278
1580.3200, -58.289
1580.3400, -58.296
1580.3600, -58.310
1580.3800, -58.305
1580.4000, -58.315
1580.4200, -58.336
1580.4400, -58.349
1580.4600, -58.353
1580.4800, -58.365
1580.5000, -58.343
1580.5200, -58.384
1580.5400, -58.383
1580.5600, -58.390
1580.5800, -58.413
1580.6000, -58.403
1580.6200, -58.385
1580.6400, -58.438
1580.6600, -58.432
1580.6800, -58.451
1580.7000, -58.447
1580.7200, -58.454
1580.7400, -58.474
1580.7600, -58.465
1580.7800, -58.488
1580.8000, -58.487
1580.8200, -58.511
1580.8400, -58.515
1580.8600, -58.521
1580.8800, -58.534
1580.9000, -58.529
1580.9200, -58.541
1580.9400, -58.550
1580.9600, -58.568
1580.9800, -58.564
1581.0000, -58.559
1581.0200, -58.575
1581.0400, -58.605
1581.0600, -58.585
1581.0800, -58.601
1581.1000, -58.607
1581.1200, -58.619
1581.1400, -58.640
1581.1600, -58.633
1581.1800, -58.651
1581.2000, -58.660
1581.2200, -58.661
1581.2400, -58.675
1581.2600, -58.666
1581.2800, -58.689
1581.3000, -58.687
1581.3200, -58.685
1581.3400, -58.712
1581.3600, -58.705
1581.3800, -58.735
1581.4000, -58.720
1581.4200, -58.709
1581.4400, -58.741
1581.4600, -58.747
1581.4800, -58.752
1581.5000, -58.757
1581.5200, -58.772
1581.5400, -58.793
1581.5600, -58.782
1581.5800, -58.818
1581.6000, -58.807
1581.6200, -58.819
1581.6400, -58.801
1581.6600, -58.812
1581.6800, -58.831
1581.7000, -58.853
1581.7200, -58.861
1581.7400, -58.852
1581.7600, -58.847
1581.7800, -58.870
1581.8000, -58.870
1581.8200, -58.871
1581.8400, -58.899
1581.8600, -58.886
1581.8800, -58.909
1581.9000, -58.913
1581.9200, -58.925
1581.9400, -58.921
1581.9600, -58.936
1581.9800, -58.929
1582.0000, -58.965
1582.0200, -58.958
1582.0400, -58.961
1582.0600, -58.985
1582.0800, -58.976
1582.1000, -58.966
1582.1200, -59.015
1582.1400, -58.995
1582.1600, -59.027
1582.1800, -59.000
1582.2000, -59.018
1582.2200, -59.024
1582.2400, -59.038
1582.2600, -59.030
1582.2800, -59.051
1582.3000, -59.072
1582.3200, -59.060
1582.3400, -59.084
1582.3600, -59.081
1582.3800, -59.095
1582.4000, -59.097
1582.4200, -59.106
1582.4400, -59.091
1582.4600, -59.106
1582.4800, -59.122
1582.5000, -59.125
1582.5200, -59.137
1582.5400, -59.151
1582.5600, -59.162
1582.5800, -59.145
1582.6000, -59.182
1582.6200, -59.153
1582.6400, -59.181
1582.6600, -59.177
1582.6800, -59.197
1582.7000, -59.204
1582.7200, -59.218
1582.7400, -59.187
1582.7600, -59.221
1582.7800, -59.203
1582.8000, -59.245
1582.8200, -59.225
1582.8400, -59.258
1582.8600, -59.238
1582.8800, -59.264
1582.9000, -59.281
1582.9200, -59.262
1582.9400, -59.291
1582.9600, -59.285
1582.9800, -59.291
1583.0000, -59.303
1583.0200, -59.302
1583.0400, -59.305
1583.0600, -59.324
1583.0800, -59.339
1583.1000, -59.325
1583.1200, -59.342
1583.1400, -59.335
1583.1600, -59.380
1583.1800, -59.384
1583.2000, -59.383
1583.2200, -59.344
1583.2400, -59.383
1583.2600, -59.387
1583.2800, -59.395
1583.3000, -59.406
1583.3200, -59.406
1583.3400, -59.415
1583.3600, -59.420
1583.3800, -59.427
1583.4000, -59.445
1583.4200, -59.453
1583.4400, -59.441
1583.4600, -59.467
1583.4800, -59.460
1583.5000, -59.460
1583.5200, -59.461
1583.5400, -59.495
1583.5600, -59.482
1583.5800, -59.489
1583.6000, -59.495
1583.6200, -59.504
1583.6400, -59.499
1583.6600, -59.514
1583.6800, -59.521
1583.7000, -59.541
1583.7200, -59.534
1583.7400, -59.537
1583.7600, -59.557
1583.7800, -59.564
1583.8000, -59.551
1583.8200, -59.550
1583.8400, -59.577
1583.8600, -59.577
1583.8800, -59.582
1583.9000, -59.599
1583.9200, -59.605
1583.9400, -59.595
1583.9600, -59.607
1583.9800, -59.627
1584.0000, -59.627
1584.0200, -59.619
1584.0400, -59.654
1584.0600, -59.638
1584.0800, -59.656
1584.1000, -59.680
1584.1200, -59.648
1584.1400, -59.675
1584.1600, -59.672
1584.1800, -59.670
1584.2000, -59.685
1584.2200, -59.675
1584.2400, -59.708
1584.2600, -59.705
1584.2800, -59.706
1584.3000, -59.716
1584.3200, -59.723
1584.3400, -59.724
1584.3600, -59.729
1584.3800, -59.737
1584.4000, -59.742
1584.4200, -59.763
1584.4400, -59.753
1584.4600, -59.765
1584.4800, -59.780
1584.5000, -59.763
1584.5200, -59.760
1584.5400, -59.772
1584.5600, -59.784
1584.5800, -59.835
1584.6000, -59.763
1584.6200, -59.830
1584.6400, -59.805
1584.6600, -59.842
1584.6800, -59.832
1584.7000, -59.800
1584.7200, -59.838
1584.7400, -59.848
1584.7600, -59.873
1584.7800, -59.835
1584.8000, -59.849
1584.8200, -59.870
1584.8400, -59.841
1584.8600, -59.859
1584.8800, -59.862
1584.9000, -59.890
1584.9200, -59.918
1584.9400, -59.888
1584.9600, -59.911
1584.9800, -59.891
1585.0000, -59.919
1585.0200, -59.908
1585.0400, -59.914
1585.0600, -59.938
1585.0800, -59.931
1585.1000, -59.943
1585.1200, -59.935
1585.1400, -59.968
1585.1600, -59.936
1585.1800, -59.958
1585.2000, -59.959
1585.2200, -59.972
1585.2400, -59.957
1585.2600, -60.000
1585.2800, -59.968
1585.3000, -60.004
1585.3200, -60.010
1585.3400, -60.004
1585.3600, -60.009
1585.3800, -60.023
1585.4000, -60.026
1585.4200, -60.002
1585.4400, -60.050
1585.4600, -60.014
1585.4800, -60.039
1585.5000, -60.042
1585.5200, -60.047
1585.5400, -60.064
1585.5600, -60.055
1585.5800, -60.066
1585.6000, -60.070
1585.6200, -60.069
1585.6400, -60.111
1585.6600, -60.087
1585.6800, -60.075
1585.7000, -60.115
1585.7200, -60.089
1585.7400, -60.101
1585.7600, -60.111
1585.7800, -60.135
1585.8000, -60.120
1585.8200, -60.138
1585.8400, -60.141
1585.8600, -60.152
1585.8800, -60.132
1585.9000, -60.150
1585.9200, -60.156
1585.9400, -60.170
1585.9600, -60.167
1585.9800, -60.160
1586.0000, -60.197
1586.0200, -60.161
1586.0400, -60.192
1586.0600, -60.190
1586.0800, -60.216
1586.1000, -60.199
1586.1200, -60.220
1586.1400, -60.219
1586.1600, -60.211
1586.1800, -60.240
1586.2000, -60.198
1586.2200, -60.251
1586.2400, -60.227
1586.2600, -60.216
1586.2800, -60.254
1586.3000, -60.231
1586.3200, -60.290
1586.3400, -60.251
1586.3600, -60.288
1586.3800, -60.275
1586.4000, -60.258
1586.4200, -60.323
1586.4400, -60.249
1586.4600, -60.310
1586.4800, -60.295
1586.5000, -60.292
1586.5200, -60.307
1586.5400, -60.344
1586.5600, -60.296
1586.5800, -60.321
1586.6000, -60.320
1586.6200, -60.335
1586.6400, -60.339
1586.6600, -60.371
1586.6800, -60.363
1586.7000, -60.368
1586.7200, -60.366
1586.7400, -60.361
1586.7600, -60.399
1586.7800, -60.392
1586.8000, -60.377
1586.8200, -60.383
1586.8400, -60.375
1586.8600, -60.398
1586.8800, -60.440
1586.9000, -60.404
1586.9200, -60.407
1586.9400, -60.414
1586.9600, -60.424
1586.9800, -60.454
1587.0000, -60.462
1587.0200, -60.435
1587.0400, -60.437
1587.0600, -60.424
1587.0800, -60.459
1587.1000, -60.466
1587.1200, -60.455
1587.1400, -60.447
1587.1600, -60.477
1587.1800, -60.486
1587.2000, -60.493
1587.2200, -60.511
1587.2400, -60.495
1587.2600, -60.507
1587.2800, -60.503
1587.3000, -60.491
1587.3200, -60.506
1587.3400, -60.507
1587.3600, -60.527
1587.3800, -60.520
1587.4000, -60.542
1587.4200, -60.551
1587.4400, -60.553
1587.4600, -60.539
1587.4800, -60.574
1587.5000, -60.532
1587.5200, -60.570
1587.5400, -60.596
1587.5600, -60.540
1587.5800, -60.565
1587.6000, -60.597
1587.6200, -60.591
1587.6400, -60.638
1587.6600, -60.576
1587.6800, -60.634
1587.7000, -60.601
1587.7200, -60.606
1587.7400, -60.616
1587.7600, -60.637
1587.7800, -60.638
1587.8000, -60.646
1587.8200, -60.665
1587.8400, -60.628
1587.8600, -60.658
1587.8800, -60.680
1587.9000, -60.618
1587.9200, -60.654
1587.9400, -60.691
1587.9600, -60.656
1587.9800, -60.694
1588.0000, -60.677
1588.0200, -60.699
1588.0400, -60.656
1588.0600, -60.744
1588.0800, -60.709
1588.1000, -60.720
1588.1200, -60.674
1588.1400, -60.748
1588.1600, -60.725
1588.1800, -60.704
1588.2000, -60.723
1588.2200, -60.726
1588.2400, -60.752
1588.2600, -60.761
1588.2800, -60.714
1588.3000, -60.733
1588.3200, -60.755
1588.3400, -60.777
1588.3600, -60.803
1588.3800, -60.777
1588.4000, -60.766
1588.4200, -60.793
1588.4400, -60.801
1588.4600, -60.792
1588.4800, -60.760
1588.5000, -60.818
1588.5200, -60.832
1588.5400, -60.776
1588.5600, -60.817
1588.5800, -60.827
1588.6000, -60.832
1588.6200, -60.802
1588.6400, -60.871
1588.6600, -60.821
1588.6800, -60.841
1588.7000, -60.831
1588.7200, -60.836
1588.7400, -60.856
1588.7600, -60.818
1588.7800, -60.879
1588.8000, -60.885
1588.8200, -60.864
1588.8400, -60.855
1588.8600, -60.892
1588.8800, -60.892
1588.9000, -60.909
1588.9200, -60.891
1588.9400, -60.925
1588.9600, -60.899
1588.9800, -60.917
1589.0000, -60.905
1589.0200, -60.916
1589.0400, -60.916
1589.0600, -60.906
1589.0800, -60.921
1589.1000, -60.900
1589.1200, -60.961
1589.1400, -60.918
1589.1600, -60.954
1589.1800, -60.943
1589.2000, -60.951
1589.2200, -60.958
1589.2400, -60.975
1589.2600, -60.989
1589.2800, -60.970
1589.3000, -60.996
1589.3200, -60.959
1589.3400, -60.989
1589.3600, -61.001
1589.3800, -60.999
1589.4000, -61.000
1589.4200, -61.024
1589.4400, -60.985
1589.4600, -60.996
1589.4800, -60.996
1589.5000, -61.053
1589.5200, -61.019
1589.5400, -61.072
1589.5600, -60.984
1589.5800, -61.052
1589.6000, -61.088
1589.6200, -61.059
1589.6400, -61.008
1589.6600, -61.068
1589.6800, -61.069
1589.7000, -61.044
1589.7200, -61.058
1589.7400, -61.090
1589.7600, -61.078
1589.7800, -61.073
1589.8000, -61.073
1589.8200, -61.054
1589.8400, -61.115
1589.8600, -61.092
1589.8800, -61.104
1589.9000, -61.105
1589.9200, -61.080
1589.9400, -61.115
1589.9600, -61.124
1589.9800, -61.122
1590.0000, -61.117
1590.0200, -61.161
1590.0400, -61.121
1590.0600, -61.160
1590.0800, -61.151
1590.1000, -61.169
1590.1200, -61.150
1590.1400, -61.171
1590.1600, -61.140
1590.1800, -61.190
1590.2000, -61.201
1590.2200, -61.150
1590.2400, -61.180
1590.2600, -61.216
1590.2800, -61.182
1590.3000, -61.204
1590.3200, -61.214
1590.3400, -61.205
1590.3600, -61.203
1590.3800, -61.176
1590.4000, -61.233
1590.4200, -61.212
1590.4400, -61.257
1590.4600, -61.216
1590.4800, -61.216
1590.5000, -61.225
1590.5200, -61.250
1590.5400, -61.259
1590.5600, -61.276
1590.5800, -61.254
1590.6000, -61.271
1590.6200, -61.241
1590.6400, -61.273
1590.6600, -61.292
1590.6800, -61.269
1590.7000, -61.281
1590.7200, -61.291
1590.7400, -61.264
1590.7600, -61.311
1590.7800, -61.338
1590.8000, -61.311
1590.8200, -61.309
1590.8400, -61.311
1590.8600, -61.340
1590.8800, -61.295
1590.9000, -61.349
1590.9200, -61.340
1590.9400, -61.348
1590.9600, -61.339
1590.9800, -61.345
1591.0000, -61.360
1591.0200, -61.352
1591.0400, -61.362
1591.0600, -61.402
1591.0800, -61.399
1591.1000, -61.352
1591.1200, -61.390
1591.1400, -61.389
1591.1600, -61.378
1591.1800, -61.404
1591.2000, -61.389
1591.2200, -61.411
1591.2400, -61.418
1591.2600, -61.402
1591.2800, -61.434
1591.3000, -61.453
1591.3200, -61.426
1591.3400, -61.429
1591.3600, -61.437
1591.3800, -61.430
1591.4000, -61.464
1591.4200, -61.431
1591.4400, -61.491
1591.4600, -61.445
1591.4800, -61.472
1591.5000, -61.475
1591.5200, -61.471
1591.5400, -61.472
1591.5600, -61.467
1591.5800, -61.497
1591.6000, -61.513
1591.6200, -61.505
1591.6400, -61.510
1591.6600, -61.538
1591.6800, -61.521
1591.7000, -61.514
1591.7200, -61.572
1591.7400, -61.550
1591.7600, -61.531
1591.7800, -61.547
1591.8000, -61.507
1591.8200, -61.561
1591.8400, -61.542
1591.8600, -61.566
1591.8800, -61.551
1591.9000, -61.580
1591.9200, -61.543
1591.9400, -61.578
1591.9600, -61.581
1591.9800, -61.562
1592.0000, -61.575
1592.0200, -61.584
1592.0400, -61.589
1592.0600, -61.565
1592.0800, -61.598
1592.1000, -61.581
1592.1200, -61.585
1592.1400, -61.618
1592.1600, -61.590
1592.1800, -61.619
1592.2000, -61.629
1592.2200, -61.643
1592.2400, -61.604
1592.2600, -61.623
1592.2800, -61.631
1592.3000, -61.673
1592.3200, -61.658
1592.3400, -61.666
1592.3600, -61.678
1592.3800, -61.659
1592.4000, -61.641
1592.4200, -61.662
1592.4400, -61.677
1592.4600, -61.677
1592.4800, -61.721
1592.5000, -61.662
1592.5200, -61.705
1592.5400, -61.698
1592.5600, -61.731
1592.5800, -61.699
1592.6000, -61.704
1592.6200, -61.706
1592.6400, -61.766
1592.6600, -61.701
1592.6800, -61.763
1592.7000, -61.682
1592.7200, -61.743
1592.7400, -61.736
1592.7600, -61.761
1592.7800, -61.817
1592.8000, -61.751
1592.8200, -61.753
1592.8400, -61.767
1592.8600, -61.752
1592.8800, -61.780
1592.9000, -61.755
1592.9200, -61.798
1592.9400, -61.769
1592.9600, -61.774
1592.9800, -61.820
1593.0000, -61.740
1593.0200, -61.801
1593.0400, -61.852
1593.0600, -61.823
1593.0800, -61.783
1593.1000, -61.817
1593.1200, -61.814
1593.1400, -61.833
1593.1600, -61.821
1593.1800, -61.799
1593.2000, -61.861
1593.2200, -61.822
1593.2400, -61.824
1593.2600, -61.842
1593.2800, -61.840
1593.3000, -61.828
1593.3200, -61.836
1593.3400, -61.880
1593.3600, -61.821
1593.3800, -61.897
1593.4000, -61.850
1593.4200, -61.889
1593.4400, -61.936
1593.4600, -61.861
1593.4800, -61.906
1593.5000, -61.861
1593.5200, -61.911
1593.5400, -61.916
1593.5600, -61.883
1593.5800, -61.906
1593.6000, -61.899
1593.6200, -61.899
1593.6400, -61.929
1593.6600, -61.919
1593.6800, -61.949
1593.7000, -61.923
1593.7200, -61.905
1593.7400, -61.945
1593.7600, -61.941
1593.7800, -61.949
1593.8000, -61.963
1593.8200, -61.958
1593.8400, -61.986
1593.8600, -61.969
1593.8800, -62.012
1593.9000, -61.970
1593.9200, -61.980
1593.9400, -61.966
1593.9600, -62.005
1593.9800, -61.979
1594.0000, -61.991
1594.0200, -62.002
1594.0400, -61.983
1594.0600, -62.020
1594.0800, -62.024
1594.1000, -62.033
1594.1200, -62.057
1594.1400, -61.960
1594.1600, -62.042
1594.1800, -62.062
1594.2000, -62.033
1594.2200, -62.046
1594.2400, -62.012
1594.2600, -62.055
1594.2800, -62.042
1594.3000, -62.071
1594.3200, -62.060
1594.3400, -62.060
1594.3600, -62.080
1594.3800, -62.099
1594.4000, -62.056
1594.4200, -62.080
1594.4400, -62.097
1594.4600, -62.069
1594.4800, -62.102
1594.5000, -62.106
1594.5200, -62.099
1594.5400, -62.101
1594.5600, -62.133
1594.5800, -62.109
1594.6000, -62.143
1594.6200, -62.188
1594.6400, -62.132
1594.6600, -62.180
1594.6800, -62.110
1594.7000, -62.101
1594.7200, -62.154
1594.7400, -62.193
1594.7600, -62.166
1594.7800, -62.142
1594.8000, -62.131
1594.8200, -62.187
1594.8400, -62.167
1594.8600, -62.187
1594.8800, -62.166
1594.9000, -62.196
1594.9200, -62.199
1594.9400, -62.190
1594.9600, -62.246
1594.9800, -62.213
1595.0000, -62.171
1595.0200, -62.221
1595.0400, -62.208
1595.0600, -62.249
1595.0800, -62.197
1595.1000, -62.210
1595.1200, -62.253
1595.1400, -62.264
1595.1600, -62.223
1595.1800, -62.238
1595.2000, -62.274
1595.2200, -62.217
1595.2400, -62.233
1595.2600, -62.261
1595.2800, -62.263
1595.3000, -62.252
1595.3200, -62.299
1595.3400, -62.275
1595.3600, -62.297
1595.3800, -62.287
1595.4000, -62.295
1595.4200, -62.291
1595.4400, -62.320
1595.4600, -62.305
1595.4800, -62.297
1595.5000, -62.317
1595.5200, -62.321
1595.5400, -62.328
1595.5600, -62.354
1595.5800, -62.345
1595.6000, -62.359
1595.6200, -62.312
1595.6400, -62.369
1595.6600, -62.373
1595.6800, -62.390
1595.7000, -62.359
1595.7200, -62.319
1595.7400, -62.335
1595.7600, -62.386
1595.7800, -62.381
1595.8000, -62.458
1595.8200, -62.319
1595.8400, -62.392
1595.8600, -62.386
1595.8800, -62.393
1595.9000, -62.416
1595.9200, -62.437
1595.9400, -62.420
1595.9600, -62.423
1595.9800, -62.457
1596.0000, -62.407
1596.0200, -62.389
1596.0400, -62.443
1596.0600, -62.434
1596.0800, -62.444
1596.1000, -62.443
1596.1200, -62.481
1596.1400, -62.465
1596.1600, -62.485
1596.1800, -62.403
1596.2000, -62.487
1596.2200, -62.458
1596.2400, -62.466
1596.2600, -62.461
1596.2800, -62.503
1596.3000, -62.464
1596.3200, -62.460
1596.3400, -62.507
1596.3600, -62.496
1596.3800, -62.500
1596.4000, -62.507
1596.4200, -62.521
1596.4400, -62.526
1596.4600, -62.493
1596.4800, -62.537
1596.5000, -62.589
1596.5200, -62.444
1596.5400, -62.573
1596.5600, -62.566
1596.5800, -62.533
1596.6000, -62.536
1596.6200, -62.517
1596.6400, -62.601
1596.6600, -62.505
1596.6800, -62.547
1596.7000, -62.536
1596.7200, -62.613
1596.7400, -62.531
1596.7600, -62.619
1596.7800, -62.553
1596.8000, -62.578
1596.8200, -62.621
1596.8400, -62.639
1596.8600, -62.567
1596.8800, -62.592
1596.9000, -62.594
1596.9200, -62.598
1596.9400, -62.644
1596.9600, -62.644
1596.9800, -62.617
1597.0000, -62.630
1597.0200, -62.631
1597.0400, -62.654
1597.0600, -62.633
1597.0800, -62.698
1597.1000, -62.656
1597.1200, -62.650
1597.1400, -62.563
1597.1600, -62.646
1597.1800, -62.629
1597.2000, -62.701
1597.2200, -62.667
1597.2400, -62.712
1597.2600, -62.742
1597.2800, -62.640
1597.3000, -62.676
1597.3200, -62.649
1597.3400, -62.730
1597.3600, -62.711
1597.3800, -62.683
1597.4000, -62.714
1597.4200, -62.746
1597.4400, -62.641
1597.4600, -62.719
1597.4800, -62.719
1597.5000, -62.750
1597.5200, -62.701
1597.5400, -62.740
1597.5600, -62.746
1597.5800, -62.743
1597.6000, -62.752
1597.6200, -62.774
1597.6400, -62.798
1597.6600, -62.724
1597.6800, -62.749
1597.7000, -62.760
1597.7200, -62.765
1597.7400, -62.765
1597.7600, -62.792
1597.7800, -62.830
1597.8000, -62.763
1597.8200, -62.812
1597.8400, -62.796
1597.8600, -62.790
1597.8800, -62.824
1597.9000, -62.794
1597.9200, -62.810
1597.9400, -62.831
1597.9600, -62.801
1597.9800, -62.784
1598.0000, -62.848
1598.0200, -62.822
1598.0400, -62.834
1598.0600, -62.833
1598.0800, -62.872
1598.1000, -62.876
1598.1200, -62.878
1598.1400, -62.854
1598.1600, -62.836
1598.1800, -62.865
1598.2000, -62.886
1598.2200, -62.848
1598.2400, -62.868
1598.2600, -62.887
1598.2800, -62.883
1598.3000, -62.837
1598.3200, -62.856
1598.3400, -62.848
1598.3600, -63.011
1598.3800, -62.854
1598.4000, -62.908
1598.4200, -62.921
1598.4400, -62.922
1598.4600, -62.940
1598.4800, -62.944
1598.5000, -62.984
1598.5200, -62.907
1598.5400, -62.925
1598.5600, -62.998
1598.5800, -63.013
1598.6000, -62.932
1598.6200, -62.945
1598.6400, -62.959
1598.6600, -62.989
1598.6800, -62.949
1598.7000, -62.920
1598.7200, -62.978
1598.7400, -62.993
1598.7600, -62.989
1598.7800, -62.992
1598.8000, -63.023
1598.8200, -62.984
1598.8400, -62.987
1598.8600, -63.034
1598.8800, -63.009
1598.9000, -62.976
1598.9200, -63.027
1598.9400, -63.061
1598.9600, -63.078
1598.9800, -62.996
1599.0000, -63.046
1599.0200, -63.078
1599.0400, -63.041
1599.0600, -63.031
1599.0800, -63.040
1599.1000, -63.107
1599.1200, -63.055
1599.1400, -63.055
1599.1600, -63.057
1599.1800, -63.060
1599.2000, -63.088
1599.2200, -63.096
1599.2400, -63.062
1599.2600, -63.146
1599.2800, -63.066
1599.3000, -63.112
1599.3200, -63.115
1599.3400, -63.087
1599.3600, -63.117
1599.3800, -63.158
1599.4000, -63.115
1599.4200, -63.148
1599.4400, -63.133
1599.4600, -63.074
1599.4800, -63.161
1599.5000, -63.102
1599.5200, -63.169
1599.5400, -63.124
1599.5600, -63.109
1599.5800, -63.199
1599.6000, -63.137
1599.6200, -63.224
1599.6400, -63.150
1599.6600, -63.151
1599.6800, -63.229
1599.7000, -63.178
1599.7200, -63.177
1599.7400, -63.173
1599.7600, -63.224
1599.7800, -63.221
1599.8000, -63.160
1599.8200, -63.245
1599.8400, -63.217
1599.8600, -63.244
1599.8800, -63.219
1599.9000, -63.197
1599.9200, -63.241
1599.9400, -63.244
1599.9600, -63.257
1599.9800, -63.204
1600.0000, -63.201
