70BCSV 	
// AQ6370B OPTICAL SPECTRUM ANALYZER //                 
25
"CTRWL",1550.000000
"SPAN", 100.000000
"START WL",1500.000000
"STOP WL",1600.000000
"WLFREQ", 0
"REFL",-46.2
"LSCL", 5.0
"RESLN",0.100
"AVG",   1
"SMPLAUTO",      0
"SMPL",       5001
"SMPLINTVL",0.0200
"HIGH1"
"MEAS"
"LSUNT",0
"NMSKH","OFF"
"RESCOR",0
"RESPARM", 9050
"FREQPARM", 9050






"[TRACE DATA]"
1500.0000, -66.312
1500.0200, -66.372
1500.0400, -66.418
1500.0600, -66.339
1500.0800, -66.346
1500.1000, -66.289
1500.1200, -66.365
1500.1400, -66.373
1500.1600, -66.362
1500.1800, -66.349
1500.2000, -66.407
1500.2200, -66.400
1500.2400, -66.328
1500.2600, -66.266
1500.2800, -66.425
1500.3000, -66.396
1500.3200, -66.376
1500.3400, -66.433
1500.3600, -66.373
1500.3800, -66.355
1500.4000, -66.449
1500.4200, -66.296
1500.4400, -66.422
1500.4600, -66.304
1500.4800, -66.341
1500.5000, -66.427
1500.5200, -66.331
1500.5400, -66.342
1500.5600, -66.318
1500.5800, -66.369
1500.6000, -66.353
1500.6200, -66.397
1500.6400, -66.328
1500.6600, -66.297
1500.6800, -66.423
1500.7000, -66.297
1500.7200, -66.312
1500.7400, -66.371
1500.7600, -66.316
1500.7800, -66.290
1500.8000, -66.225
1500.8200, -66.236
1500.8400, -66.253
1500.8600, -66.327
1500.8800, -66.285
1500.9000, -66.218
1500.9200, -66.266
1500.9400, -66.180
1500.9600, -66.231
1500.9800, -66.277
1501.0000, -66.200
1501.0200, -66.144
1501.0400, -66.198
1501.0600, -66.214
1501.0800, -66.214
1501.1000, -66.158
1501.1200, -66.173
1501.1400, -66.138
1501.1600, -66.198
1501.1800, -66.242
1501.2000, -66.130
1501.2200, -66.131
1501.2400, -66.197
1501.2600, -66.186
1501.2800, -66.166
1501.3000, -66.144
1501.3200, -66.240
1501.3400, -66.163
1501.3600, -66.248
1501.3800, -66.149
1501.4000, -66.152
1501.4200, -66.221
1501.4400, -66.205
1501.4600, -66.062
1501.4800, -66.196
1501.5000, -66.174
1501.5200, -66.069
1501.5400, -66.162
1501.5600, -66.160
1501.5800, -66.112
1501.6000, -66.198
1501.6200, -66.136
1501.6400, -66.181
1501.6600, -66.175
1501.6800, -66.118
1501.7000, -66.159
1501.7200, -66.075
1501.7400, -66.118
1501.7600, -66.097
1501.7800, -66.046
1501.8000, -66.049
1501.8200, -66.123
1501.8400, -66.056
1501.8600, -66.125
1501.8800, -66.098
1501.9000, -66.084
1501.9200, -66.062
1501.9400, -65.941
1501.9600, -66.011
1501.9800, -65.930
1502.0000, -66.043
1502.0200, -65.974
1502.0400, -65.975
1502.0600, -66.034
1502.0800, -66.070
1502.1000, -65.872
1502.1200, -65.997
1502.1400, -65.976
1502.1600, -65.950
1502.1800, -65.940
1502.2000, -65.995
1502.2200, -65.917
1502.2400, -66.015
1502.2600, -66.021
1502.2800, -65.955
1502.3000, -65.996
1502.3200, -65.986
1502.3400, -65.923
1502.3600, -65.968
1502.3800, -66.062
1502.4000, -65.935
1502.4200, -65.915
1502.4400, -65.961
1502.4600, -65.980
1502.4800, -65.852
1502.5000, -65.996
1502.5200, -65.932
1502.5400, -66.033
1502.5600, -65.895
1502.5800, -65.849
1502.6000, -65.923
1502.6200, -65.939
1502.6400, -65.914
1502.6600, -65.948
1502.6800, -65.863
1502.7000, -65.889
1502.7200, -65.820
1502.7400, -65.889
1502.7600, -65.831
1502.7800, -65.897
1502.8000, -65.832
1502.8200, -65.898
1502.8400, -65.776
1502.8600, -65.830
1502.8800, -65.912
1502.9000, -65.846
1502.9200, -65.731
1502.9400, -65.812
1502.9600, -65.830
1502.9800, -65.695
1503.0000, -65.730
1503.0200, -65.764
1503.0400, -65.752
1503.0600, -65.696
1503.0800, -65.773
1503.1000, -65.697
1503.1200, -65.722
1503.1400, -65.698
1503.1600, -65.728
1503.1800, -65.752
1503.2000, -65.727
1503.2200, -65.725
1503.2400, -65.662
1503.2600, -65.840
1503.2800, -65.721
1503.3000, -65.808
1503.3200, -65.691
1503.3400, -65.755
1503.3600, -65.706
1503.3800, -65.706
1503.4000, -65.704
1503.4200, -65.769
1503.4400, -65.678
1503.4600, -65.776
1503.4800, -65.843
1503.5000, -65.766
1503.5200, -65.695
1503.5400, -65.679
1503.5600, -65.652
1503.5800, -65.769
1503.6000, -65.758
1503.6200, -65.652
1503.6400, -65.622
1503.6600, -65.718
1503.6800, -65.695
1503.7000, -65.556
1503.7200, -65.626
1503.7400, -65.585
1503.7600, -65.594
1503.7800, -65.613
1503.8000, -65.617
1503.8200, -65.569
1503.8400, -65.640
1503.8600, -65.538
1503.8800, -65.555
1503.9000, -65.566
1503.9200, -65.463
1503.9400, -65.521
1503.9600, -65.574
1503.9800, -65.542
1504.0000, -65.563
1504.0200, -65.443
1504.0400, -65.501
1504.0600, -65.507
1504.0800, -65.494
1504.1000, -65.550
1504.1200, -65.546
1504.1400, -65.431
1504.1600, -65.578
1504.1800, -65.438
1504.2000, -65.518
1504.2200, -65.429
1504.2400, -65.606
1504.2600, -65.521
1504.2800, -65.434
1504.3000, -65.470
1504.3200, -65.570
1504.3400, -65.492
1504.3600, -65.391
1504.3800, -65.543
1504.4000, -65.436
1504.4200, -65.461
1504.4400, -65.505
1504.4600, -65.466
1504.4800, -65.373
1504.5000, -65.513
1504.5200, -65.469
1504.5400, -65.394
1504.5600, -65.506
1504.5800, -65.357
1504.6000, -65.441
1504.6200, -65.452
1504.6400, -65.387
1504.6600, -65.346
1504.6800, -65.350
1504.7000, -65.404
1504.7200, -65.383
1504.7400, -65.352
1504.7600, -65.346
1504.7800, -65.416
1504.8000, -65.317
1504.8200, -65.331
1504.8400, -65.287
1504.8600, -65.267
1504.8800, -65.294
1504.9000, -65.323
1504.9200, -65.205
1504.9400, -65.350
1504.9600, -65.165
1504.9800, -65.227
1505.0000, -65.314
1505.0200, -65.194
1505.0400, -65.284
1505.0600, -65.221
1505.0800, -65.254
1505.1000, -65.216
1505.1200, -65.286
1505.1400, -65.203
1505.1600, -65.235
1505.1800, -65.243
1505.2000, -65.353
1505.2200, -65.190
1505.2400, -65.370
1505.2600, -65.274
1505.2800, -65.206
1505.3000, -65.230
1505.3200, -65.237
1505.3400, -65.155
1505.3600, -65.267
1505.3800, -65.314
1505.4000, -65.269
1505.4200, -65.220
1505.4400, -65.102
1505.4600, -65.253
1505.4800, -65.240
1505.5000, -65.226
1505.5200, -65.102
1505.5400, -65.175
1505.5600, -65.138
1505.5800, -65.179
1505.6000, -65.146
1505.6200, -65.235
1505.6400, -65.007
1505.6600, -65.135
1505.6800, -65.074
1505.7000, -65.131
1505.7200, -65.093
1505.7400, -65.099
1505.7600, -65.086
1505.7800, -65.116
1505.8000, -65.086
1505.8200, -65.008
1505.8400, -64.974
1505.8600, -65.023
1505.8800, -64.988
1505.9000, -65.080
1505.9200, -64.935
1505.9400, -65.009
1505.9600, -64.978
1505.9800, -65.000
1506.0000, -64.951
1506.0200, -65.039
1506.0400, -65.053
1506.0600, -64.958
1506.0800, -64.942
1506.1000, -65.057
1506.1200, -64.949
1506.1400, -65.007
1506.1600, -65.057
1506.1800, -65.066
1506.2000, -65.033
1506.2200, -65.016
1506.2400, -64.951
1506.2600, -65.002
1506.2800, -64.928
1506.3000, -65.000
1506.3200, -65.017
1506.3400, -64.924
1506.3600, -64.960
1506.3800, -64.991
1506.4000, -64.962
1506.4200, -64.949
1506.4400, -64.937
1506.4600, -65.019
1506.4800, -64.947
1506.5000, -64.897
1506.5200, -64.904
1506.5400, -64.796
1506.5600, -64.857
1506.5800, -64.867
1506.6000, -64.876
1506.6200, -64.827
1506.6400, -64.946
1506.6600, -64.770
1506.6800, -64.910
1506.7000, -64.793
1506.7200, -64.898
1506.7400, -64.746
1506.7600, -64.766
1506.7800, -64.842
1506.8000, -64.733
1506.8200, -64.779
1506.8400, -64.810
1506.8600, -64.749
1506.8800, -64.732
1506.9000, -64.727
1506.9200, -64.722
1506.9400, -64.716
1506.9600, -64.777
1506.9800, -64.763
1507.0000, -64.769
1507.0200, -64.750
1507.0400, -64.787
1507.0600, -64.748
1507.0800, -64.751
1507.1000, -64.748
1507.1200, -64.775
1507.1400, -64.728
1507.1600, -64.757
1507.1800, -64.733
1507.2000, -64.756
1507.2200, -64.651
1507.2400, -64.736
1507.2600, -64.710
1507.2800, -64.709
1507.3000, -64.731
1507.3200, -64.770
1507.3400, -64.689
1507.3600, -64.725
1507.3800, -64.697
1507.4000, -64.742
1507.4200, -64.651
1507.4400, -64.647
1507.4600, -64.674
1507.4800, -64.638
1507.5000, -64.604
1507.5200, -64.649
1507.5400, -64.589
1507.5600, -64.618
1507.5800, -64.565
1507.6000, -64.575
1507.6200, -64.602
1507.6400, -64.599
1507.6600, -64.642
1507.6800, -64.551
1507.7000, -64.529
1507.7200, -64.597
1507.7400, -64.432
1507.7600, -64.549
1507.7800, -64.494
1507.8000, -64.519
1507.8200, -64.474
1507.8400, -64.454
1507.8600, -64.467
1507.8800, -64.411
1507.9000, -64.478
1507.9200, -64.474
1507.9400, -64.490
1507.9600, -64.483
1507.9800, -64.558
1508.0000, -64.451
1508.0200, -64.456
1508.0400, -64.527
1508.0600, -64.520
1508.0800, -64.474
1508.1000, -64.505
1508.1200, -64.509
1508.1400, -64.477
1508.1600, -64.482
1508.1800, -64.484
1508.2000, -64.403
1508.2200, -64.454
1508.2400, -64.459
1508.2600, -64.533
1508.2800, -64.425
1508.3000, -64.454
1508.3200, -64.467
1508.3400, -64.437
1508.3600, -64.462
1508.3800, -64.382
1508.4000, -64.378
1508.4200, -64.448
1508.4400, -64.365
1508.4600, -64.334
1508.4800, -64.419
1508.5000, -64.338
1508.5200, -64.344
1508.5400, -64.354
1508.5600, -64.298
1508.5800, -64.385
1508.6000, -64.346
1508.6200, -64.300
1508.6400, -64.275
1508.6600, -64.268
1508.6800, -64.307
1508.7000, -64.261
1508.7200, -64.220
1508.7400, -64.287
1508.7600, -64.239
1508.7800, -64.252
1508.8000, -64.214
1508.8200, -64.201
1508.8400, -64.227
1508.8600, -64.220
1508.8800, -64.223
1508.9000, -64.205
1508.9200, -64.242
1508.9400, -64.214
1508.9600, -64.246
1508.9800, -64.188
1509.0000, -64.235
1509.0200, -64.207
1509.0400, -64.251
1509.0600, -64.272
1509.0800, -64.268
1509.1000, -64.171
1509.1200, -64.247
1509.1400, -64.192
1509.1600, -64.169
1509.1800, -64.210
1509.2000, -64.248
1509.2200, -64.227
1509.2400, -64.234
1509.2600, -64.156
1509.2800, -64.174
1509.3000, -64.176
1509.3200, -64.157
1509.3400, -64.180
1509.3600, -64.145
1509.3800, -64.149
1509.4000, -64.149
1509.4200, -64.079
1509.4400, -64.114
1509.4600, -64.096
1509.4800, -64.070
1509.5000, -64.075
1509.5200, -64.104
1509.5400, -64.024
1509.5600, -64.072
1509.5800, -64.055
1509.6000, -64.015
1509.6200, -64.029
1509.6400, -63.991
1509.6600, -63.950
1509.6800, -63.997
1509.7000, -64.027
1509.7200, -63.985
1509.7400, -64.013
1509.7600, -63.915
1509.7800, -63.941
1509.8000, -63.962
1509.8200, -64.007
1509.8400, -63.970
1509.8600, -63.977
1509.8800, -63.968
1509.9000, -63.915
1509.9200, -63.954
1509.9400, -63.956
1509.9600, -63.977
1509.9800, -63.955
1510.0000, -63.972
1510.0200, -63.961
1510.0400, -63.967
1510.0600, -63.930
1510.0800, -63.942
1510.1000, -63.935
1510.1200, -63.906
1510.1400, -63.991
1510.1600, -63.960
1510.1800, -63.950
1510.2000, -63.937
1510.2200, -63.936
1510.2400, -63.919
1510.2600, -63.867
1510.2800, -63.898
1510.3000, -63.843
1510.3200, -63.852
1510.3400, -63.841
1510.3600, -63.803
1510.3800, -63.813
1510.4000, -63.816
1510.4200, -63.802
1510.4400, -63.780
1510.4600, -63.763
1510.4800, -63.750
1510.5000, -63.765
1510.5200, -63.744
1510.5400, -63.741
1510.5600, -63.718
1510.5800, -63.717
1510.6000, -63.639
1510.6200, -63.664
1510.6400, -63.672
1510.6600, -63.666
1510.6800, -63.610
1510.7000, -63.698
1510.7200, -63.631
1510.7400, -63.630
1510.7600, -63.630
1510.7800, -63.643
1510.8000, -63.663
1510.8200, -63.619
1510.8400, -63.701
1510.8600, -63.625
1510.8800, -63.635
1510.9000, -63.657
1510.9200, -63.628
1510.9400, -63.642
1510.9600, -63.649
1510.9800, -63.628
1511.0000, -63.661
1511.0200, -63.609
1511.0400, -63.616
1511.0600, -63.550
1511.0800, -63.589
1511.1000, -63.612
1511.1200, -63.594
1511.1400, -63.605
1511.1600, -63.591
1511.1800, -63.586
1511.2000, -63.558
1511.2200, -63.524
1511.2400, -63.526
1511.2600, -63.524
1511.2800, -63.515
1511.3000, -63.498
1511.3200, -63.477
1511.3400, -63.488
1511.3600, -63.401
1511.3800, -63.447
1511.4000, -63.509
1511.4200, -63.398
1511.4400, -63.421
1511.4600, -63.411
1511.4800, -63.403
1511.5000, -63.357
1511.5200, -63.343
1511.5400, -63.342
1511.5600, -63.342
1511.5800, -63.327
1511.6000, -63.294
1511.6200, -63.318
1511.6400, -63.320
1511.6600, -63.279
1511.6800, -63.290
1511.7000, -63.278
1511.7200, -63.296
1511.7400, -63.295
1511.7600, -63.296
1511.7800, -63.286
1511.8000, -63.261
1511.8200, -63.273
1511.8400, -63.279
1511.8600, -63.317
1511.8800, -63.288
1511.9000, -63.312
1511.9200, -63.282
1511.9400, -63.176
1511.9600, -63.313
1511.9800, -63.254
1512.0000, -63.230
1512.0200, -63.221
1512.0400, -63.255
1512.0600, -63.284
1512.0800, -63.207
1512.1000, -63.217
1512.1200, -63.220
1512.1400, -63.203
1512.1600, -63.207
1512.1800, -63.233
1512.2000, -63.147
1512.2200, -63.184
1512.2400, -63.132
1512.2600, -63.129
1512.2800, -63.156
1512.3000, -63.071
1512.3200, -63.038
1512.3400, -63.085
1512.3600, -63.090
1512.3800, -63.053
1512.4000, -63.051
1512.4200, -63.028
1512.4400, -63.027
1512.4600, -63.044
1512.4800, -62.970
1512.5000, -62.989
1512.5200, -62.966
1512.5400, -62.945
1512.5600, -62.966
1512.5800, -62.963
1512.6000, -62.891
1512.6200, -62.952
1512.6400, -62.927
1512.6600, -62.970
1512.6800, -62.930
1512.7000, -62.926
1512.7200, -62.941
1512.7400, -62.911
1512.7600, -62.932
1512.7800, -62.916
1512.8000, -62.950
1512.8200, -62.975
1512.8400, -62.948
1512.8600, -62.930
1512.8800, -62.953
1512.9000, -62.876
1512.9200, -62.897
1512.9400, -62.885
1512.9600, -62.864
1512.9800, -62.936
1513.0000, -62.897
1513.0200, -62.888
1513.0400, -62.904
1513.0600, -62.900
1513.0800, -62.871
1513.1000, -62.831
1513.1200, -62.819
1513.1400, -62.836
1513.1600, -62.785
1513.1800, -62.783
1513.2000, -62.790
1513.2200, -62.760
1513.2400, -62.776
1513.2600, -62.732
1513.2800, -62.699
1513.3000, -62.745
1513.3200, -62.695
1513.3400, -62.680
1513.3600, -62.672
1513.3800, -62.609
1513.4000, -62.684
1513.4200, -62.648
1513.4400, -62.617
1513.4600, -62.507
1513.4800, -62.627
1513.5000, -62.616
1513.5200, -62.566
1513.5400, -62.546
1513.5600, -62.572
1513.5800, -62.541
1513.6000, -62.605
1513.6200, -62.579
1513.6400, -62.550
1513.6600, -62.568
1513.6800, -62.526
1513.7000, -62.554
1513.7200, -62.585
1513.7400, -62.532
1513.7600, -62.614
1513.7800, -62.560
1513.8000, -62.547
1513.8200, -62.552
1513.8400, -62.520
1513.8600, -62.490
1513.8800, -62.507
1513.9000, -62.504
1513.9200, -62.526
1513.9400, -62.525
1513.9600, -62.489
1513.9800, -62.513
1514.0000, -62.450
1514.0200, -62.472
1514.0400, -62.454
1514.0600, -62.490
1514.0800, -62.437
1514.1000, -62.405
1514.1200, -62.403
1514.1400, -62.383
1514.1600, -62.369
1514.1800, -62.367
1514.2000, -62.333
1514.2200, -62.318
1514.2400, -62.333
1514.2600, -62.375
1514.2800, -62.306
1514.3000, -62.284
1514.3200, -62.271
1514.3400, -62.289
1514.3600, -62.166
1514.3800, -62.233
1514.4000, -62.149
1514.4200, -62.203
1514.4400, -62.208
1514.4600, -62.201
1514.4800, -62.121
1514.5000, -62.171
1514.5200, -62.115
1514.5400, -62.168
1514.5600, -62.161
1514.5800, -62.154
1514.6000, -62.172
1514.6200, -62.172
1514.6400, -62.169
1514.6600, -62.169
1514.6800, -62.120
1514.7000, -62.178
1514.7200, -62.183
1514.7400, -62.160
1514.7600, -62.165
1514.7800, -62.074
1514.8000, -62.146
1514.8200, -62.090
1514.8400, -62.067
1514.8600, -62.122
1514.8800, -62.131
1514.9000, -62.103
1514.9200, -62.113
1514.9400, -62.031
1514.9600, -62.114
1514.9800, -62.074
1515.0000, -62.015
1515.0200, -62.019
1515.0400, -61.980
1515.0600, -61.991
1515.0800, -61.986
1515.1000, -61.951
1515.1200, -61.946
1515.1400, -61.958
1515.1600, -61.887
1515.1800, -61.948
1515.2000, -61.873
1515.2200, -61.908
1515.2400, -61.855
1515.2600, -61.858
1515.2800, -61.811
1515.3000, -61.843
1515.3200, -61.788
1515.3400, -61.712
1515.3600, -61.777
1515.3800, -61.771
1515.4000, -61.789
1515.4200, -61.728
1515.4400, -61.695
1515.4600, -61.724
1515.4800, -61.732
1515.5000, -61.690
1515.5200, -61.745
1515.5400, -61.707
1515.5600, -61.731
1515.5800, -61.659
1515.6000, -61.713
1515.6200, -61.702
1515.6400, -61.755
1515.6600, -61.737
1515.6800, -61.713
1515.7000, -61.729
1515.7200, -61.722
1515.7400, -61.659
1515.7600, -61.692
1515.7800, -61.627
1515.8000, -61.712
1515.8200, -61.671
1515.8400, -61.661
1515.8600, -61.645
1515.8800, -61.624
1515.9000, -61.653
1515.9200, -61.614
1515.9400, -61.602
1515.9600, -61.570
1515.9800, -61.579
1516.0000, -61.543
1516.0200, -61.503
1516.0400, -61.490
1516.0600, -61.496
1516.0800, -61.486
1516.1000, -61.442
1516.1200, -61.479
1516.1400, -61.448
1516.1600, -61.430
1516.1800, -61.395
1516.2000, -61.404
1516.2200, -61.362
1516.2400, -61.340
1516.2600, -61.332
1516.2800, -61.300
1516.3000, -61.283
1516.3200, -61.301
1516.3400, -61.269
1516.3600, -61.259
1516.3800, -61.208
1516.4000, -61.240
1516.4200, -61.221
1516.4400, -61.267
1516.4600, -61.273
1516.4800, -61.235
1516.5000, -61.246
1516.5200, -61.196
1516.5400, -61.205
1516.5600, -61.270
1516.5800, -61.227
1516.6000, -61.232
1516.6200, -61.250
1516.6400, -61.219
1516.6600, -61.191
1516.6800, -61.190
1516.7000, -61.163
1516.7200, -61.137
1516.7400, -61.147
1516.7600, -61.203
1516.7800, -61.155
1516.8000, -61.134
1516.8200, -61.130
1516.8400, -61.127
1516.8600, -61.095
1516.8800, -61.071
1516.9000, -61.070
1516.9200, -61.058
1516.9400, -61.026
1516.9600, -60.987
1516.9800, -60.978
1517.0000, -60.940
1517.0200, -60.952
1517.0400, -60.929
1517.0600, -60.928
1517.0800, -60.918
1517.1000, -60.890
1517.1200, -60.865
1517.1400, -60.858
1517.1600, -60.828
1517.1800, -60.787
1517.2000, -60.770
1517.2200, -60.764
1517.2400, -60.711
1517.2600, -60.788
1517.2800, -60.736
1517.3000, -60.693
1517.3200, -60.697
1517.3400, -60.681
1517.3600, -60.684
1517.3800, -60.701
1517.4000, -60.679
1517.4200, -60.704
1517.4400, -60.672
1517.4600, -60.643
1517.4800, -60.683
1517.5000, -60.661
1517.5200, -60.665
1517.5400, -60.685
1517.5600, -60.686
1517.5800, -60.656
1517.6000, -60.641
1517.6200, -60.613
1517.6400, -60.587
1517.6600, -60.567
1517.6800, -60.591
1517.7000, -60.603
1517.7200, -60.586
1517.7400, -60.533
1517.7600, -60.552
1517.7800, -60.561
1517.8000, -60.539
1517.8200, -60.503
1517.8400, -60.486
1517.8600, -60.464
1517.8800, -60.426
1517.9000, -60.418
1517.9200, -60.383
1517.9400, -60.358
1517.9600, -60.353
1517.9800, -60.319
1518.0000, -60.302
1518.0200, -60.337
1518.0400, -60.283
1518.0600, -60.281
1518.0800, -60.245
1518.1000, -60.231
1518.1200, -60.154
1518.1400, -60.176
1518.1600, -60.126
1518.1800, -60.122
1518.2000, -60.138
1518.2200, -60.122
1518.2400, -60.083
1518.2600, -60.055
1518.2800, -60.072
1518.3000, -60.046
1518.3200, -60.076
1518.3400, -60.052
1518.3600, -60.058
1518.3800, -60.030
1518.4000, -60.027
1518.4200, -60.015
1518.4400, -60.051
1518.4600, -60.041
1518.4800, -60.043
1518.5000, -60.022
1518.5200, -60.011
1518.5400, -59.969
1518.5600, -59.941
1518.5800, -59.950
1518.6000, -59.918
1518.6200, -59.911
1518.6400, -59.936
1518.6600, -59.950
1518.6800, -59.903
1518.7000, -59.887
1518.7200, -59.889
1518.7400, -59.835
1518.7600, -59.839
1518.7800, -59.805
1518.8000, -59.780
1518.8200, -59.758
1518.8400, -59.734
1518.8600, -59.693
1518.8800, -59.655
1518.9000, -59.660
1518.9200, -59.643
1518.9400, -59.632
1518.9600, -59.626
1518.9800, -59.600
1519.0000, -59.563
1519.0200, -59.576
1519.0400, -59.488
1519.0600, -59.497
1519.0800, -59.442
1519.1000, -59.418
1519.1200, -59.403
1519.1400, -59.427
1519.1600, -59.384
1519.1800, -59.342
1519.2000, -59.363
1519.2200, -59.318
1519.2400, -59.332
1519.2600, -59.322
1519.2800, -59.334
1519.3000, -59.318
1519.3200, -59.307
1519.3400, -59.275
1519.3600, -59.277
1519.3800, -59.277
1519.4000, -59.264
1519.4200, -59.288
1519.4400, -59.283
1519.4600, -59.251
1519.4800, -59.224
1519.5000, -59.208
1519.5200, -59.180
1519.5400, -59.160
1519.5600, -59.133
1519.5800, -59.202
1519.6000, -59.161
1519.6200, -59.111
1519.6400, -59.106
1519.6600, -59.100
1519.6800, -59.067
1519.7000, -59.043
1519.7200, -59.028
1519.7400, -59.013
1519.7600, -58.971
1519.7800, -58.928
1519.8000, -58.883
1519.8200, -58.845
1519.8400, -58.868
1519.8600, -58.819
1519.8800, -58.807
1519.9000, -58.811
1519.9200, -58.746
1519.9400, -58.718
1519.9600, -58.713
1519.9800, -58.694
1520.0000, -58.653
1520.0200, -58.607
1520.0400, -58.560
1520.0600, -58.560
1520.0800, -58.569
1520.1000, -58.550
1520.1200, -58.479
1520.1400, -58.457
1520.1600, -58.468
1520.1800, -58.459
1520.2000, -58.443
1520.2200, -58.446
1520.2400, -58.417
1520.2600, -58.443
1520.2800, -58.390
1520.3000, -58.407
1520.3200, -58.400
1520.3400, -58.418
1520.3600, -58.387
1520.3800, -58.394
1520.4000, -58.370
1520.4200, -58.309
1520.4400, -58.306
1520.4600, -58.279
1520.4800, -58.233
1520.5000, -58.234
1520.5200, -58.271
1520.5400, -58.244
1520.5600, -58.206
1520.5800, -58.190
1520.6000, -58.163
1520.6200, -58.141
1520.6400, -58.096
1520.6600, -58.069
1520.6800, -58.046
1520.7000, -57.986
1520.7200, -57.950
1520.7400, -57.929
1520.7600, -57.890
1520.7800, -57.873
1520.8000, -57.853
1520.8200, -57.838
1520.8400, -57.821
1520.8600, -57.762
1520.8800, -57.744
1520.9000, -57.728
1520.9200, -57.667
1520.9400, -57.636
1520.9600, -57.596
1520.9800, -57.547
1521.0000, -57.545
1521.0200, -57.569
1521.0400, -57.522
1521.0600, -57.467
1521.0800, -57.441
1521.1000, -57.439
1521.1200, -57.421
1521.1400, -57.414
1521.1600, -57.420
1521.1800, -57.395
1521.2000, -57.394
1521.2200, -57.355
1521.2400, -57.341
1521.2600, -57.351
1521.2800, -57.333
1521.3000, -57.328
1521.3200, -57.327
1521.3400, -57.319
1521.3600, -57.256
1521.3800, -57.229
1521.4000, -57.203
1521.4200, -57.155
1521.4400, -57.171
1521.4600, -57.199
1521.4800, -57.145
1521.5000, -57.112
1521.5200, -57.084
1521.5400, -57.100
1521.5600, -57.038
1521.5800, -56.997
1521.6000, -56.986
1521.6200, -56.935
1521.6400, -56.894
1521.6600, -56.847
1521.6800, -56.807
1521.7000, -56.788
1521.7200, -56.782
1521.7400, -56.734
1521.7600, -56.734
1521.7800, -56.689
1521.8000, -56.640
1521.8200, -56.631
1521.8400, -56.580
1521.8600, -56.553
1521.8800, -56.513
1521.9000, -56.451
1521.9200, -56.400
1521.9400, -56.402
1521.9600, -56.408
1521.9800, -56.352
1522.0000, -56.301
1522.0200, -56.301
1522.0400, -56.278
1522.0600, -56.296
1522.0800, -56.283
1522.1000, -56.274
1522.1200, -56.247
1522.1400, -56.216
1522.1600, -56.198
1522.1800, -56.210
1522.2000, -56.201
1522.2200, -56.204
1522.2400, -56.172
1522.2600, -56.185
1522.2800, -56.137
1522.3000, -56.089
1522.3200, -56.076
1522.3400, -56.044
1522.3600, -55.997
1522.3800, -56.009
1522.4000, -56.031
1522.4200, -55.986
1522.4400, -55.933
1522.4600, -55.921
1522.4800, -55.909
1522.5000, -55.862
1522.5200, -55.830
1522.5400, -55.816
1522.5600, -55.754
1522.5800, -55.710
1522.6000, -55.669
1522.6200, -55.620
1522.6400, -55.626
1522.6600, -55.579
1522.6800, -55.545
1522.7000, -55.546
1522.7200, -55.508
1522.7400, -55.475
1522.7600, -55.453
1522.7800, -55.387
1522.8000, -55.347
1522.8200, -55.320
1522.8400, -55.276
1522.8600, -55.231
1522.8800, -55.239
1522.9000, -55.227
1522.9200, -55.159
1522.9400, -55.146
1522.9600, -55.135
1522.9800, -55.116
1523.0000, -55.132
1523.0200, -55.130
1523.0400, -55.118
1523.0600, -55.096
1523.0800, -55.048
1523.1000, -55.047
1523.1200, -55.050
1523.1400, -55.051
1523.1600, -55.057
1523.1800, -55.041
1523.2000, -55.026
1523.2200, -54.971
1523.2400, -54.947
1523.2600, -54.929
1523.2800, -54.892
1523.3000, -54.867
1523.3200, -54.888
1523.3400, -54.888
1523.3600, -54.830
1523.3800, -54.797
1523.4000, -54.794
1523.4200, -54.767
1523.4400, -54.738
1523.4600, -54.711
1523.4800, -54.692
1523.5000, -54.637
1523.5200, -54.582
1523.5400, -54.549
1523.5600, -54.496
1523.5800, -54.501
1523.6000, -54.466
1523.6200, -54.445
1523.6400, -54.452
1523.6600, -54.391
1523.6800, -54.362
1523.7000, -54.356
1523.7200, -54.291
1523.7400, -54.242
1523.7600, -54.222
1523.7800, -54.160
1523.8000, -54.149
1523.8200, -54.161
1523.8400, -54.122
1523.8600, -54.076
1523.8800, -54.063
1523.9000, -54.047
1523.9200, -54.047
1523.9400, -54.055
1523.9600, -54.064
1523.9800, -54.051
1524.0000, -54.006
1524.0200, -53.991
1524.0400, -53.993
1524.0600, -54.000
1524.0800, -54.023
1524.1000, -53.998
1524.1200, -53.980
1524.1400, -53.962
1524.1600, -53.921
1524.1800, -53.897
1524.2000, -53.881
1524.2200, -53.840
1524.2400, -53.854
1524.2600, -53.871
1524.2800, -53.824
1524.3000, -53.794
1524.3200, -53.771
1524.3400, -53.799
1524.3600, -53.765
1524.3800, -53.735
1524.4000, -53.703
1524.4200, -53.664
1524.4400, -53.612
1524.4600, -53.584
1524.4800, -53.530
1524.5000, -53.505
1524.5200, -53.487
1524.5400, -53.451
1524.5600, -53.460
1524.5800, -53.457
1524.6000, -53.412
1524.6200, -53.390
1524.6400, -53.337
1524.6600, -53.290
1524.6800, -53.264
1524.7000, -53.213
1524.7200, -53.174
1524.7400, -53.175
1524.7600, -53.170
1524.7800, -53.114
1524.8000, -53.091
1524.8200, -53.098
1524.8400, -53.078
1524.8600, -53.084
1524.8800, -53.089
1524.9000, -53.106
1524.9200, -53.058
1524.9400, -53.050
1524.9600, -53.035
1524.9800, -53.039
1525.0000, -53.062
1525.0200, -53.066
1525.0400, -53.033
1525.0600, -53.038
1525.0800, -52.997
1525.1000, -52.968
1525.1200, -52.946
1525.1400, -52.927
1525.1600, -52.911
1525.1800, -52.924
1525.2000, -52.916
1525.2200, -52.874
1525.2400, -52.869
1525.2600, -52.858
1525.2800, -52.876
1525.3000, -52.853
1525.3200, -52.796
1525.3400, -52.763
1525.3600, -52.715
1525.3800, -52.665
1525.4000, -52.630
1525.4200, -52.584
1525.4400, -52.576
1525.4600, -52.538
1525.4800, -52.517
1525.5000, -52.534
1525.5200, -52.510
1525.5400, -52.478
1525.5600, -52.444
1525.5800, -52.393
1525.6000, -52.341
1525.6200, -52.312
1525.6400, -52.261
1525.6600, -52.243
1525.6800, -52.258
1525.7000, -52.225
1525.7200, -52.172
1525.7400, -52.177
1525.7600, -52.168
1525.7800, -52.166
1525.8000, -52.163
1525.8200, -52.185
1525.8400, -52.170
1525.8600, -52.152
1525.8800, -52.122
1525.9000, -52.121
1525.9200, -52.136
1525.9400, -52.147
1525.9600, -52.136
1525.9800, -52.119
1526.0000, -52.111
1526.0200, -52.083
1526.0400, -52.050
1526.0600, -52.023
1526.0800, -52.012
1526.1000, -52.006
1526.1200, -52.019
1526.1400, -51.982
1526.1600, -51.968
1526.1800, -51.935
1526.2000, -51.956
1526.2200, -51.970
1526.2400, -51.921
1526.2600, -51.870
1526.2800, -51.840
1526.3000, -51.781
1526.3200, -51.740
1526.3400, -51.699
1526.3600, -51.674
1526.3800, -51.655
1526.4000, -51.626
1526.4200, -51.635
1526.4400, -51.636
1526.4600, -51.594
1526.4800, -51.552
1526.5000, -51.513
1526.5200, -51.444
1526.5400, -51.414
1526.5600, -51.366
1526.5800, -51.331
1526.6000, -51.349
1526.6200, -51.342
1526.6400, -51.298
1526.6600, -51.266
1526.6800, -51.261
1526.7000, -51.246
1526.7200, -51.260
1526.7400, -51.257
1526.7600, -51.278
1526.7800, -51.249
1526.8000, -51.221
1526.8200, -51.214
1526.8400, -51.213
1526.8600, -51.222
1526.8800, -51.247
1526.9000, -51.233
1526.9200, -51.224
1526.9400, -51.197
1526.9600, -51.172
1526.9800, -51.134
1527.0000, -51.122
1527.0200, -51.113
1527.0400, -51.126
1527.0600, -51.102
1527.0800, -51.079
1527.1000, -51.064
1527.1200, -51.065
1527.1400, -51.052
1527.1600, -50.999
1527.1800, -50.961
1527.2000, -50.934
1527.2200, -50.896
1527.2400, -50.841
1527.2600, -50.816
1527.2800, -50.775
1527.3000, -50.767
1527.3200, -50.728
1527.3400, -50.714
1527.3600, -50.733
1527.3800, -50.680
1527.4000, -50.643
1527.4200, -50.615
1527.4400, -50.559
1527.4600, -50.510
1527.4800, -50.473
1527.5000, -50.425
1527.5200, -50.418
1527.5400, -50.432
1527.5600, -50.389
1527.5800, -50.353
1527.6000, -50.348
1527.6200, -50.335
1527.6400, -50.340
1527.6600, -50.340
1527.6800, -50.358
1527.7000, -50.349
1527.7200, -50.344
1527.7400, -50.335
1527.7600, -50.335
1527.7800, -50.324
1527.8000, -50.349
1527.8200, -50.342
1527.8400, -50.334
1527.8600, -50.324
1527.8800, -50.284
1527.9000, -50.248
1527.9200, -50.234
1527.9400, -50.233
1527.9600, -50.240
1527.9800, -50.228
1528.0000, -50.187
1528.0200, -50.188
1528.0400, -50.158
1528.0600, -50.172
1528.0800, -50.129
1528.1000, -50.095
1528.1200, -50.045
1528.1400, -50.022
1528.1600, -49.982
1528.1800, -49.950
1528.2000, -49.902
1528.2200, -49.893
1528.2400, -49.857
1528.2600, -49.851
1528.2800, -49.855
1528.3000, -49.814
1528.3200, -49.773
1528.3400, -49.731
1528.3600, -49.701
1528.3800, -49.641
1528.4000, -49.629
1528.4200, -49.585
1528.4400, -49.568
1528.4600, -49.581
1528.4800, -49.559
1528.5000, -49.502
1528.5200, -49.487
1528.5400, -49.479
1528.5600, -49.483
1528.5800, -49.470
1528.6000, -49.495
1528.6200, -49.501
1528.6400, -49.486
1528.6600, -49.476
1528.6800, -49.477
1528.7000, -49.476
1528.7200, -49.496
1528.7400, -49.509
1528.7600, -49.500
1528.7800, -49.493
1528.8000, -49.475
1528.8200, -49.428
1528.8400, -49.403
1528.8600, -49.416
1528.8800, -49.412
1528.9000, -49.417
1528.9200, -49.391
1528.9400, -49.381
1528.9600, -49.359
1528.9800, -49.354
1529.0000, -49.333
1529.0200, -49.285
1529.0400, -49.235
1529.0600, -49.219
1529.0800, -49.184
1529.1000, -49.140
1529.1200, -49.125
1529.1400, -49.094
1529.1600, -49.067
1529.1800, -49.045
1529.2000, -49.035
1529.2200, -49.027
1529.2400, -48.974
1529.2600, -48.924
1529.2800, -48.916
1529.3000, -48.869
1529.3200, -48.840
1529.3400, -48.798
1529.3600, -48.769
1529.3800, -48.776
1529.4000, -48.773
1529.4200, -48.738
1529.4400, -48.706
1529.4600, -48.684
1529.4800, -48.701
1529.5000, -48.694
1529.5200, -48.702
1529.5400, -48.729
1529.5600, -48.715
1529.5800, -48.717
1529.6000, -48.711
1529.6200, -48.719
1529.6400, -48.725
1529.6600, -48.744
1529.6800, -48.743
1529.7000, -48.753
1529.7200, -48.740
1529.7400, -48.706
1529.7600, -48.676
1529.7800, -48.680
1529.8000, -48.689
1529.8200, -48.694
1529.8400, -48.689
1529.8600, -48.650
1529.8800, -48.639
1529.9000, -48.623
1529.9200, -48.608
1529.9400, -48.564
1529.9600, -48.513
1529.9800, -48.483
1530.0000, -48.474
1530.0200, -48.438
1530.0400, -48.427
1530.0600, -48.388
1530.0800, -48.375
1530.1000, -48.353
1530.1200, -48.347
1530.1400, -48.340
1530.1600, -48.281
1530.1800, -48.232
1530.2000, -48.215
1530.2200, -48.177
1530.2400, -48.157
1530.2600, -48.124
1530.2800, -48.096
1530.3000, -48.099
1530.3200, -48.104
1530.3400, -48.063
1530.3600, -48.037
1530.3800, -48.038
1530.4000, -48.028
1530.4200, -48.034
1530.4400, -48.035
1530.4600, -48.057
1530.4800, -48.066
1530.5000, -48.067
1530.5200, -48.064
1530.5400, -48.067
1530.5600, -48.073
1530.5800, -48.101
1530.6000, -48.108
1530.6200, -48.123
1530.6400, -48.116
1530.6600, -48.078
1530.6800, -48.053
1530.7000, -48.052
1530.7200, -48.059
1530.7400, -48.064
1530.7600, -48.070
1530.7800, -48.022
1530.8000, -48.023
1530.8200, -47.996
1530.8400, -48.008
1530.8600, -47.962
1530.8800, -47.932
1530.9000, -47.906
1530.9200, -47.885
1530.9400, -47.851
1530.9600, -47.846
1530.9800, -47.814
1531.0000, -47.798
1531.0200, -47.761
1531.0400, -47.755
1531.0600, -47.764
1531.0800, -47.727
1531.1000, -47.703
1531.1200, -47.671
1531.1400, -47.658
1531.1600, -47.616
1531.1800, -47.608
1531.2000, -47.571
1531.2200, -47.566
1531.2400, -47.573
1531.2600, -47.555
1531.2800, -47.521
1531.3000, -47.515
1531.3200, -47.517
1531.3400, -47.531
1531.3600, -47.529
1531.3800, -47.556
1531.4000, -47.556
1531.4200, -47.562
1531.4400, -47.568
1531.4600, -47.598
1531.4800, -47.610
1531.5000, -47.632
1531.5200, -47.640
1531.5400, -47.650
1531.5600, -47.667
1531.5800, -47.674
1531.6000, -47.647
1531.6200, -47.649
1531.6400, -47.662
1531.6600, -47.661
1531.6800, -47.655
1531.7000, -47.616
1531.7200, -47.618
1531.7400, -47.602
1531.7600, -47.618
1531.7800, -47.587
1531.8000, -47.570
1531.8200, -47.537
1531.8400, -47.539
1531.8600, -47.519
1531.8800, -47.483
1531.9000, -47.456
1531.9200, -47.445
1531.9400, -47.414
1531.9600, -47.413
1531.9800, -47.423
1532.0000, -47.402
1532.0200, -47.400
1532.0400, -47.380
1532.0600, -47.378
1532.0800, -47.344
1532.1000, -47.314
1532.1200, -47.297
1532.1400, -47.310
1532.1600, -47.305
1532.1800, -47.312
1532.2000, -47.292
1532.2200, -47.281
1532.2400, -47.290
1532.2600, -47.314
1532.2800, -47.334
1532.3000, -47.357
1532.3200, -47.358
1532.3400, -47.372
1532.3600, -47.373
1532.3800, -47.400
1532.4000, -47.440
1532.4200, -47.470
1532.4400, -47.468
1532.4600, -47.478
1532.4800, -47.500
1532.5000, -47.529
1532.5200, -47.521
1532.5400, -47.550
1532.5600, -47.549
1532.5800, -47.534
1532.6000, -47.549
1532.6200, -47.511
1532.6400, -47.506
1532.6600, -47.510
1532.6800, -47.538
1532.7000, -47.500
1532.7200, -47.514
1532.7400, -47.494
1532.7600, -47.483
1532.7800, -47.458
1532.8000, -47.413
1532.8200, -47.412
1532.8400, -47.408
1532.8600, -47.370
1532.8800, -47.371
1532.9000, -47.415
1532.9200, -47.396
1532.9400, -47.408
1532.9600, -47.398
1532.9800, -47.393
1533.0000, -47.355
1533.0200, -47.322
1533.0400, -47.329
1533.0600, -47.352
1533.0800, -47.339
1533.1000, -47.360
1533.1200, -47.352
1533.1400, -47.333
1533.1600, -47.356
1533.1800, -47.399
1533.2000, -47.433
1533.2200, -47.461
1533.2400, -47.455
1533.2600, -47.467
1533.2800, -47.473
1533.3000, -47.518
1533.3200, -47.555
1533.3400, -47.593
1533.3600, -47.595
1533.3800, -47.634
1533.4000, -47.664
1533.4200, -47.697
1533.4400, -47.688
1533.4600, -47.716
1533.4800, -47.751
1533.5000, -47.720
1533.5200, -47.742
1533.5400, -47.719
1533.5600, -47.702
1533.5800, -47.719
1533.6000, -47.781
1533.6200, -47.738
1533.6400, -47.781
1533.6600, -47.769
1533.6800, -47.755
1533.7000, -47.742
1533.7200, -47.698
1533.7400, -47.705
1533.7600, -47.712
1533.7800, -47.693
1533.8000, -47.677
1533.8200, -47.738
1533.8400, -47.721
1533.8600, -47.751
1533.8800, -47.756
1533.9000, -47.746
1533.9200, -47.727
1533.9400, -47.695
1533.9600, -47.724
1533.9800, -47.734
1534.0000, -47.712
1534.0200, -47.733
1534.0400, -47.758
1534.0600, -47.736
1534.0800, -47.774
1534.1000, -47.830
1534.1200, -47.868
1534.1400, -47.895
1534.1600, -47.895
1534.1800, -47.921
1534.2000, -47.934
1534.2200, -47.986
1534.2400, -48.049
1534.2600, -48.088
1534.2800, -48.082
1534.3000, -48.114
1534.3200, -48.142
1534.3400, -48.197
1534.3600, -48.202
1534.3800, -48.238
1534.4000, -48.267
1534.4200, -48.236
1534.4400, -48.250
1534.4600, -48.225
1534.4800, -48.221
1534.5000, -48.242
1534.5200, -48.283
1534.5400, -48.275
1534.5600, -48.325
1534.5800, -48.333
1534.6000, -48.324
1534.6200, -48.324
1534.6400, -48.313
1534.6600, -48.306
1534.6800, -48.305
1534.7000, -48.295
1534.7200, -48.294
1534.7400, -48.322
1534.7600, -48.331
1534.7800, -48.379
1534.8000, -48.384
1534.8200, -48.375
1534.8400, -48.369
1534.8600, -48.367
1534.8800, -48.383
1534.9000, -48.378
1534.9200, -48.363
1534.9400, -48.379
1534.9600, -48.410
1534.9800, -48.431
1535.0000, -48.461
1535.0200, -48.512
1535.0400, -48.553
1535.0600, -48.570
1535.0800, -48.560
1535.1000, -48.586
1535.1200, -48.627
1535.1400, -48.673
1535.1600, -48.730
1535.1800, -48.749
1535.2000, -48.755
1535.2200, -48.789
1535.2400, -48.826
1535.2600, -48.867
1535.2800, -48.882
1535.3000, -48.924
1535.3200, -48.943
1535.3400, -48.937
1535.3600, -48.954
1535.3800, -48.942
1535.4000, -48.948
1535.4200, -48.974
1535.4400, -48.990
1535.4600, -48.995
1535.4800, -49.031
1535.5000, -49.046
1535.5200, -49.030
1535.5400, -49.042
1535.5600, -49.061
1535.5800, -49.050
1535.6000, -49.035
1535.6200, -49.026
1535.6400, -49.035
1535.6600, -49.064
1535.6800, -49.071
1535.7000, -49.100
1535.7200, -49.110
1535.7400, -49.091
1535.7600, -49.112
1535.7800, -49.122
1535.8000, -49.122
1535.8200, -49.124
1535.8400, -49.130
1535.8600, -49.152
1535.8800, -49.177
1535.9000, -49.215
1535.9200, -49.224
1535.9400, -49.254
1535.9600, -49.269
1535.9800, -49.287
1536.0000, -49.298
1536.0200, -49.341
1536.0400, -49.388
1536.0600, -49.418
1536.0800, -49.454
1536.1000, -49.472
1536.1200, -49.492
1536.1400, -49.523
1536.1600, -49.552
1536.1800, -49.572
1536.2000, -49.595
1536.2200, -49.615
1536.2400, -49.629
1536.2600, -49.647
1536.2800, -49.658
1536.3000, -49.660
1536.3200, -49.680
1536.3400, -49.707
1536.3600, -49.699
1536.3800, -49.702
1536.4000, -49.707
1536.4200, -49.732
1536.4400, -49.718
1536.4600, -49.734
1536.4800, -49.754
1536.5000, -49.742
1536.5200, -49.731
1536.5400, -49.722
1536.5600, -49.738
1536.5800, -49.743
1536.6000, -49.745
1536.6200, -49.760
1536.6400, -49.768
1536.6600, -49.759
1536.6800, -49.778
1536.7000, -49.774
1536.7200, -49.765
1536.7400, -49.788
1536.7600, -49.812
1536.7800, -49.797
1536.8000, -49.817
1536.8200, -49.853
1536.8400, -49.854
1536.8600, -49.888
1536.8800, -49.893
1536.9000, -49.911
1536.9200, -49.924
1536.9400, -49.967
1536.9600, -49.996
1536.9800, -50.031
1537.0000, -50.046
1537.0200, -50.075
1537.0400, -50.089
1537.0600, -50.117
1537.0800, -50.125
1537.1000, -50.152
1537.1200, -50.170
1537.1400, -50.172
1537.1600, -50.191
1537.1800, -50.222
1537.2000, -50.204
1537.2200, -50.171
1537.2400, -50.197
1537.2600, -50.220
1537.2800, -50.203
1537.3000, -50.206
1537.3200, -50.222
1537.3400, -50.247
1537.3600, -50.226
1537.3800, -50.235
1537.4000, -50.236
1537.4200, -50.239
1537.4400, -50.216
1537.4600, -50.191
1537.4800, -50.222
1537.5000, -50.207
1537.5200, -50.202
1537.5400, -50.232
1537.5600, -50.227
1537.5800, -50.217
1537.6000, -50.228
1537.6200, -50.225
1537.6400, -50.217
1537.6600, -50.245
1537.6800, -50.258
1537.7000, -50.252
1537.7200, -50.259
1537.7400, -50.266
1537.7600, -50.274
1537.7800, -50.295
1537.8000, -50.305
1537.8200, -50.318
1537.8400, -50.327
1537.8600, -50.355
1537.8800, -50.374
1537.9000, -50.411
1537.9200, -50.425
1537.9400, -50.434
1537.9600, -50.441
1537.9800, -50.484
1538.0000, -50.492
1538.0200, -50.494
1538.0400, -50.510
1538.0600, -50.519
1538.0800, -50.547
1538.1000, -50.547
1538.1200, -50.511
1538.1400, -50.488
1538.1600, -50.511
1538.1800, -50.526
1538.2000, -50.512
1538.2200, -50.523
1538.2400, -50.542
1538.2600, -50.520
1538.2800, -50.500
1538.3000, -50.511
1538.3200, -50.509
1538.3400, -50.520
1538.3600, -50.482
1538.3800, -50.461
1538.4000, -50.478
1538.4200, -50.464
1538.4400, -50.464
1538.4600, -50.481
1538.4800, -50.448
1538.5000, -50.447
1538.5200, -50.444
1538.5400, -50.447
1538.5600, -50.442
1538.5800, -50.447
1538.6000, -50.445
1538.6200, -50.447
1538.6400, -50.456
1538.6600, -50.450
1538.6800, -50.470
1538.7000, -50.482
1538.7200, -50.496
1538.7400, -50.486
1538.7600, -50.506
1538.7800, -50.524
1538.8000, -50.535
1538.8200, -50.562
1538.8400, -50.587
1538.8600, -50.585
1538.8800, -50.615
1538.9000, -50.622
1538.9200, -50.616
1538.9400, -50.606
1538.9600, -50.608
1538.9800, -50.620
1539.0000, -50.653
1539.0200, -50.655
1539.0400, -50.619
1539.0600, -50.600
1539.0800, -50.619
1539.1000, -50.620
1539.1200, -50.616
1539.1400, -50.610
1539.1600, -50.612
1539.1800, -50.577
1539.2000, -50.560
1539.2200, -50.560
1539.2400, -50.555
1539.2600, -50.563
1539.2800, -50.534
1539.3000, -50.531
1539.3200, -50.538
1539.3400, -50.527
1539.3600, -50.520
1539.3800, -50.515
1539.4000, -50.482
1539.4200, -50.483
1539.4400, -50.475
1539.4600, -50.457
1539.4800, -50.470
1539.5000, -50.471
1539.5200, -50.449
1539.5400, -50.454
1539.5600, -50.465
1539.5800, -50.454
1539.6000, -50.477
1539.6200, -50.487
1539.6400, -50.501
1539.6600, -50.498
1539.6800, -50.512
1539.7000, -50.511
1539.7200, -50.529
1539.7400, -50.548
1539.7600, -50.560
1539.7800, -50.568
1539.8000, -50.595
1539.8200, -50.586
1539.8400, -50.570
1539.8600, -50.556
1539.8800, -50.572
1539.9000, -50.570
1539.9200, -50.604
1539.9400, -50.606
1539.9600, -50.588
1539.9800, -50.569
1540.0000, -50.578
1540.0200, -50.567
1540.0400, -50.564
1540.0600, -50.544
1540.0800, -50.537
1540.1000, -50.512
1540.1200, -50.501
1540.1400, -50.493
1540.1600, -50.486
1540.1800, -50.473
1540.2000, -50.458
1540.2200, -50.455
1540.2400, -50.457
1540.2600, -50.438
1540.2800, -50.429
1540.3000, -50.404
1540.3200, -50.388
1540.3400, -50.388
1540.3600, -50.367
1540.3800, -50.339
1540.4000, -50.346
1540.4200, -50.336
1540.4400, -50.332
1540.4600, -50.352
1540.4800, -50.347
1540.5000, -50.351
1540.5200, -50.368
1540.5400, -50.382
1540.5600, -50.382
1540.5800, -50.391
1540.6000, -50.394
1540.6200, -50.397
1540.6400, -50.420
1540.6600, -50.435
1540.6800, -50.441
1540.7000, -50.463
1540.7200, -50.438
1540.7400, -50.422
1540.7600, -50.427
1540.7800, -50.420
1540.8000, -50.418
1540.8200, -50.427
1540.8400, -50.455
1540.8600, -50.446
1540.8800, -50.441
1540.9000, -50.419
1540.9200, -50.411
1540.9400, -50.408
1540.9600, -50.394
1540.9800, -50.380
1541.0000, -50.362
1541.0200, -50.351
1541.0400, -50.348
1541.0600, -50.310
1541.0800, -50.306
1541.1000, -50.298
1541.1200, -50.283
1541.1400, -50.280
1541.1600, -50.277
1541.1800, -50.255
1541.2000, -50.251
1541.2200, -50.238
1541.2400, -50.223
1541.2600, -50.213
1541.2800, -50.190
1541.3000, -50.159
1541.3200, -50.136
1541.3400, -50.136
1541.3600, -50.162
1541.3800, -50.174
1541.4000, -50.180
1541.4200, -50.181
1541.4400, -50.190
1541.4600, -50.193
1541.4800, -50.201
1541.5000, -50.208
1541.5200, -50.223
1541.5400, -50.225
1541.5600, -50.242
1541.5800, -50.249
1541.6000, -50.260
1541.6200, -50.256
1541.6400, -50.252
1541.6600, -50.264
1541.6800, -50.263
1541.7000, -50.244
1541.7200, -50.235
1541.7400, -50.244
1541.7600, -50.246
1541.7800, -50.243
1541.8000, -50.227
1541.8200, -50.210
1541.8400, -50.214
1541.8600, -50.208
1541.8800, -50.188
1541.9000, -50.177
1541.9200, -50.166
1541.9400, -50.164
1541.9600, -50.152
1541.9800, -50.124
1542.0000, -50.109
1542.0200, -50.106
1542.0400, -50.082
1542.0600, -50.078
1542.0800, -50.064
1542.1000, -50.053
1542.1200, -50.046
1542.1400, -50.037
1542.1600, -50.024
1542.1800, -50.007
1542.2000, -49.990
1542.2200, -49.967
1542.2400, -49.964
1542.2600, -49.966
1542.2800, -49.971
1542.3000, -49.983
1542.3200, -49.990
1542.3400, -49.986
1542.3600, -49.988
1542.3800, -49.989
1542.4000, -49.993
1542.4200, -50.008
1542.4400, -50.025
1542.4600, -50.028
1542.4800, -50.034
1542.5000, -50.034
1542.5200, -50.037
1542.5400, -50.041
1542.5600, -50.034
1542.5800, -50.037
1542.6000, -50.033
1542.6200, -50.042
1542.6400, -50.027
1542.6600, -50.025
1542.6800, -50.013
1542.7000, -50.017
1542.7200, -49.993
1542.7400, -50.011
1542.7600, -50.000
1542.7800, -49.980
1542.8000, -49.959
1542.8200, -49.957
1542.8400, -49.955
1542.8600, -49.942
1542.8800, -49.919
1542.9000, -49.901
1542.9200, -49.876
1542.9400, -49.856
1542.9600, -49.863
1542.9800, -49.852
1543.0000, -49.837
1543.0200, -49.836
1543.0400, -49.835
1543.0600, -49.825
1543.0800, -49.806
1543.1000, -49.790
1543.1200, -49.774
1543.1400, -49.766
1543.1600, -49.767
1543.1800, -49.756
1543.2000, -49.774
1543.2200, -49.784
1543.2400, -49.777
1543.2600, -49.782
1543.2800, -49.782
1543.3000, -49.782
1543.3200, -49.789
1543.3400, -49.818
1543.3600, -49.835
1543.3800, -49.835
1543.4000, -49.832
1543.4200, -49.838
1543.4400, -49.847
1543.4600, -49.851
1543.4800, -49.849
1543.5000, -49.844
1543.5200, -49.851
1543.5400, -49.844
1543.5600, -49.839
1543.5800, -49.821
1543.6000, -49.829
1543.6200, -49.804
1543.6400, -49.814
1543.6600, -49.808
1543.6800, -49.790
1543.7000, -49.791
1543.7200, -49.772
1543.7400, -49.782
1543.7600, -49.760
1543.7800, -49.744
1543.8000, -49.724
1543.8200, -49.710
1543.8400, -49.687
1543.8600, -49.690
1543.8800, -49.683
1543.9000, -49.672
1543.9200, -49.665
1543.9400, -49.672
1543.9600, -49.666
1543.9800, -49.644
1544.0000, -49.624
1544.0200, -49.612
1544.0400, -49.601
1544.0600, -49.603
1544.0800, -49.591
1544.1000, -49.600
1544.1200, -49.617
1544.1400, -49.618
1544.1600, -49.620
1544.1800, -49.620
1544.2000, -49.631
1544.2200, -49.633
1544.2400, -49.644
1544.2600, -49.661
1544.2800, -49.673
1544.3000, -49.683
1544.3200, -49.690
1544.3400, -49.700
1544.3600, -49.706
1544.3800, -49.700
1544.4000, -49.692
1544.4200, -49.698
1544.4400, -49.704
1544.4600, -49.699
1544.4800, -49.683
1544.5000, -49.684
1544.5200, -49.675
1544.5400, -49.655
1544.5600, -49.652
1544.5800, -49.644
1544.6000, -49.640
1544.6200, -49.620
1544.6400, -49.622
1544.6600, -49.607
1544.6800, -49.603
1544.7000, -49.592
1544.7200, -49.570
1544.7400, -49.568
1544.7600, -49.555
1544.7800, -49.544
1544.8000, -49.541
1544.8200, -49.537
1544.8400, -49.530
1544.8600, -49.523
1544.8800, -49.491
1544.9000, -49.491
1544.9200, -49.486
1544.9400, -49.479
1544.9600, -49.477
1544.9800, -49.477
1545.0000, -49.472
1545.0200, -49.481
1545.0400, -49.492
1545.0600, -49.491
1545.0800, -49.504
1545.1000, -49.507
1545.1200, -49.520
1545.1400, -49.523
1545.1600, -49.537
1545.1800, -49.553
1545.2000, -49.577
1545.2200, -49.589
1545.2400, -49.596
1545.2600, -49.602
1545.2800, -49.609
1545.3000, -49.612
1545.3200, -49.613
1545.3400, -49.603
1545.3600, -49.600
1545.3800, -49.580
1545.4000, -49.573
1545.4200, -49.593
1545.4400, -49.582
1545.4600, -49.562
1545.4800, -49.545
1545.5000, -49.546
1545.5200, -49.541
1545.5400, -49.524
1545.5600, -49.495
1545.5800, -49.497
1545.6000, -49.492
1545.6200, -49.464
1545.6400, -49.475
1545.6600, -49.477
1545.6800, -49.465
1545.7000, -49.445
1545.7200, -49.444
1545.7400, -49.437
1545.7600, -49.402
1545.7800, -49.394
1545.8000, -49.409
1545.8200, -49.406
1545.8400, -49.398
1545.8600, -49.398
1545.8800, -49.407
1545.9000, -49.393
1545.9200, -49.379
1545.9400, -49.395
1545.9600, -49.405
1545.9800, -49.415
1546.0000, -49.422
1546.0200, -49.427
1546.0400, -49.426
1546.0600, -49.433
1546.0800, -49.456
1546.1000, -49.483
1546.1200, -49.491
1546.1400, -49.498
1546.1600, -49.515
1546.1800, -49.526
1546.2000, -49.536
1546.2200, -49.540
1546.2400, -49.535
1546.2600, -49.529
1546.2800, -49.504
1546.3000, -49.478
1546.3200, -49.499
1546.3400, -49.499
1546.3600, -49.482
1546.3800, -49.466
1546.4000, -49.471
1546.4200, -49.463
1546.4400, -49.433
1546.4600, -49.394
1546.4800, -49.416
1546.5000, -49.415
1546.5200, -49.390
1546.5400, -49.389
1546.5600, -49.393
1546.5800, -49.377
1546.6000, -49.366
1546.6200, -49.374
1546.6400, -49.363
1546.6600, -49.319
1546.6800, -49.320
1546.7000, -49.326
1546.7200, -49.333
1546.7400, -49.324
1546.7600, -49.322
1546.7800, -49.333
1546.8000, -49.319
1546.8200, -49.286
1546.8400, -49.309
1546.8600, -49.328
1546.8800, -49.330
1546.9000, -49.340
1546.9200, -49.351
1546.9400, -49.355
1546.9600, -49.355
1546.9800, -49.390
1547.0000, -49.405
1547.0200, -49.419
1547.0400, -49.424
1547.0600, -49.449
1547.0800, -49.472
1547.1000, -49.457
1547.1200, -49.465
1547.1400, -49.469
1547.1600, -49.462
1547.1800, -49.435
1547.2000, -49.407
1547.2200, -49.415
1547.2400, -49.419
1547.2600, -49.413
1547.2800, -49.408
1547.3000, -49.414
1547.3200, -49.405
1547.3400, -49.376
1547.3600, -49.328
1547.3800, -49.348
1547.4000, -49.362
1547.4200, -49.331
1547.4400, -49.314
1547.4600, -49.321
1547.4800, -49.312
1547.5000, -49.308
1547.5200, -49.307
1547.5400, -49.301
1547.5600, -49.255
1547.5800, -49.244
1547.6000, -49.263
1547.6200, -49.270
1547.6400, -49.268
1547.6600, -49.269
1547.6800, -49.280
1547.7000, -49.254
1547.7200, -49.225
1547.7400, -49.245
1547.7600, -49.289
1547.7800, -49.284
1547.8000, -49.281
1547.8200, -49.290
1547.8400, -49.294
1547.8600, -49.296
1547.8800, -49.343
1547.9000, -49.348
1547.9200, -49.352
1547.9400, -49.357
1547.9600, -49.381
1547.9800, -49.389
1548.0000, -49.400
1548.0200, -49.410
1548.0400, -49.411
1548.0600, -49.408
1548.0800, -49.380
1548.1000, -49.352
1548.1200, -49.342
1548.1400, -49.359
1548.1600, -49.350
1548.1800, -49.345
1548.2000, -49.367
1548.2200, -49.355
1548.2400, -49.318
1548.2600, -49.278
1548.2800, -49.289
1548.3000, -49.303
1548.3200, -49.291
1548.3400, -49.259
1548.3600, -49.261
1548.3800, -49.248
1548.4000, -49.255
1548.4200, -49.286
1548.4400, -49.247
1548.4600, -49.206
1548.4800, -49.194
1548.5000, -49.206
1548.5200, -49.216
1548.5400, -49.209
1548.5600, -49.213
1548.5800, -49.214
1548.6000, -49.208
1548.6200, -49.184
1548.6400, -49.196
1548.6600, -49.226
1548.6800, -49.223
1548.7000, -49.226
1548.7200, -49.245
1548.7400, -49.252
1548.7600, -49.246
1548.7800, -49.275
1548.8000, -49.283
1548.8200, -49.275
1548.8400, -49.305
1548.8600, -49.336
1548.8800, -49.340
1548.9000, -49.332
1548.9200, -49.342
1548.9400, -49.350
1548.9600, -49.362
1548.9800, -49.343
1549.0000, -49.314
1549.0200, -49.303
1549.0400, -49.315
1549.0600, -49.296
1549.0800, -49.282
1549.1000, -49.303
1549.1200, -49.292
1549.1400, -49.257
1549.1600, -49.235
1549.1800, -49.252
1549.2000, -49.259
1549.2200, -49.244
1549.2400, -49.216
1549.2600, -49.230
1549.2800, -49.205
1549.3000, -49.196
1549.3200, -49.211
1549.3400, -49.180
1549.3600, -49.154
1549.3800, -49.154
1549.4000, -49.173
1549.4200, -49.177
1549.4400, -49.174
1549.4600, -49.173
1549.4800, -49.176
1549.5000, -49.159
1549.5200, -49.146
1549.5400, -49.148
1549.5600, -49.171
1549.5800, -49.176
1549.6000, -49.182
1549.6200, -49.206
1549.6400, -49.208
1549.6600, -49.214
1549.6800, -49.227
1549.7000, -49.246
1549.7200, -49.239
1549.7400, -49.264
1549.7600, -49.297
1549.7800, -49.311
1549.8000, -49.305
1549.8200, -49.313
1549.8400, -49.320
1549.8600, -49.327
1549.8800, -49.300
1549.9000, -49.259
1549.9200, -49.256
1549.9400, -49.274
1549.9600, -49.263
1549.9800, -49.234
1550.0000, -49.249
1550.0200, -49.239
1550.0400, -49.221
1550.0600, -49.211
1550.0800, -49.218
1550.1000, -49.222
1550.1200, -49.190
1550.1400, -49.171
1550.1600, -49.188
1550.1800, -49.174
1550.2000, -49.150
1550.2200, -49.157
1550.2400, -49.133
1550.2600, -49.132
1550.2800, -49.127
1550.3000, -49.142
1550.3200, -49.145
1550.3400, -49.145
1550.3600, -49.146
1550.3800, -49.150
1550.4000, -49.132
1550.4200, -49.125
1550.4400, -49.120
1550.4600, -49.130
1550.4800, -49.141
1550.5000, -49.145
1550.5200, -49.162
1550.5400, -49.173
1550.5600, -49.181
1550.5800, -49.187
1550.6000, -49.209
1550.6200, -49.203
1550.6400, -49.231
1550.6600, -49.256
1550.6800, -49.280
1550.7000, -49.282
1550.7200, -49.299
1550.7400, -49.280
1550.7600, -49.281
1550.7800, -49.246
1550.8000, -49.230
1550.8200, -49.230
1550.8400, -49.241
1550.8600, -49.232
1550.8800, -49.208
1550.9000, -49.223
1550.9200, -49.209
1550.9400, -49.198
1550.9600, -49.205
1550.9800, -49.196
1551.0000, -49.191
1551.0200, -49.163
1551.0400, -49.156
1551.0600, -49.167
1551.0800, -49.148
1551.1000, -49.137
1551.1200, -49.134
1551.1400, -49.124
1551.1600, -49.128
1551.1800, -49.125
1551.2000, -49.127
1551.2200, -49.113
1551.2400, -49.122
1551.2600, -49.114
1551.2800, -49.116
1551.3000, -49.123
1551.3200, -49.110
1551.3400, -49.118
1551.3600, -49.116
1551.3800, -49.128
1551.4000, -49.133
1551.4200, -49.140
1551.4400, -49.160
1551.4600, -49.170
1551.4800, -49.177
1551.5000, -49.186
1551.5200, -49.188
1551.5400, -49.209
1551.5600, -49.221
1551.5800, -49.221
1551.6000, -49.210
1551.6200, -49.217
1551.6400, -49.219
1551.6600, -49.231
1551.6800, -49.211
1551.7000, -49.221
1551.7200, -49.207
1551.7400, -49.224
1551.7600, -49.202
1551.7800, -49.193
1551.8000, -49.200
1551.8200, -49.190
1551.8400, -49.179
1551.8600, -49.183
1551.8800, -49.163
1551.9000, -49.154
1551.9200, -49.147
1551.9400, -49.137
1551.9600, -49.135
1551.9800, -49.115
1552.0000, -49.114
1552.0200, -49.115
1552.0400, -49.103
1552.0600, -49.112
1552.0800, -49.102
1552.1000, -49.081
1552.1200, -49.082
1552.1400, -49.093
1552.1600, -49.074
1552.1800, -49.078
1552.2000, -49.095
1552.2200, -49.098
1552.2400, -49.105
1552.2600, -49.107
1552.2800, -49.121
1552.3000, -49.124
1552.3200, -49.137
1552.3400, -49.150
1552.3600, -49.157
1552.3800, -49.172
1552.4000, -49.184
1552.4200, -49.192
1552.4400, -49.201
1552.4600, -49.185
1552.4800, -49.197
1552.5000, -49.193
1552.5200, -49.184
1552.5400, -49.197
1552.5600, -49.206
1552.5800, -49.188
1552.6000, -49.209
1552.6200, -49.195
1552.6400, -49.209
1552.6600, -49.187
1552.6800, -49.175
1552.7000, -49.174
1552.7200, -49.174
1552.7400, -49.148
1552.7600, -49.161
1552.7800, -49.138
1552.8000, -49.127
1552.8200, -49.127
1552.8400, -49.128
1552.8600, -49.118
1552.8800, -49.100
1552.9000, -49.095
1552.9200, -49.091
1552.9400, -49.077
1552.9600, -49.081
1552.9800, -49.071
1553.0000, -49.044
1553.0200, -49.066
1553.0400, -49.066
1553.0600, -49.043
1553.0800, -49.059
1553.1000, -49.055
1553.1200, -49.059
1553.1400, -49.066
1553.1600, -49.077
1553.1800, -49.099
1553.2000, -49.105
1553.2200, -49.116
1553.2400, -49.120
1553.2600, -49.126
1553.2800, -49.152
1553.3000, -49.160
1553.3200, -49.171
1553.3400, -49.169
1553.3600, -49.158
1553.3800, -49.167
1553.4000, -49.157
1553.4200, -49.150
1553.4400, -49.185
1553.4600, -49.175
1553.4800, -49.163
1553.5000, -49.176
1553.5200, -49.180
1553.5400, -49.168
1553.5600, -49.147
1553.5800, -49.122
1553.6000, -49.128
1553.6200, -49.128
1553.6400, -49.120
1553.6600, -49.114
1553.6800, -49.103
1553.7000, -49.092
1553.7200, -49.098
1553.7400, -49.097
1553.7600, -49.079
1553.7800, -49.064
1553.8000, -49.063
1553.8200, -49.061
1553.8400, -49.046
1553.8600, -49.051
1553.8800, -49.034
1553.9000, -49.016
1553.9200, -49.033
1553.9400, -49.021
1553.9600, -49.025
1553.9800, -49.031
1554.0000, -49.027
1554.0200, -49.033
1554.0400, -49.032
1554.0600, -49.059
1554.0800, -49.066
1554.1000, -49.077
1554.1200, -49.080
1554.1400, -49.086
1554.1600, -49.096
1554.1800, -49.123
1554.2000, -49.128
1554.2200, -49.145
1554.2400, -49.126
1554.2600, -49.154
1554.2800, -49.161
1554.3000, -49.138
1554.3200, -49.140
1554.3400, -49.161
1554.3600, -49.149
1554.3800, -49.151
1554.4000, -49.150
1554.4200, -49.131
1554.4400, -49.121
1554.4600, -49.114
1554.4800, -49.105
1554.5000, -49.101
1554.5200, -49.075
1554.5400, -49.080
1554.5600, -49.075
1554.5800, -49.083
1554.6000, -49.065
1554.6200, -49.074
1554.6400, -49.062
1554.6600, -49.048
1554.6800, -49.029
1554.7000, -49.034
1554.7200, -49.015
1554.7400, -49.014
1554.7600, -49.013
1554.7800, -48.993
1554.8000, -48.999
1554.8200, -49.006
1554.8400, -48.983
1554.8600, -49.004
1554.8800, -48.999
1554.9000, -49.006
1554.9200, -49.010
1554.9400, -49.018
1554.9600, -49.030
1554.9800, -49.035
1555.0000, -49.050
1555.0200, -49.053
1555.0400, -49.062
1555.0600, -49.075
1555.0800, -49.088
1555.1000, -49.107
1555.1200, -49.107
1555.1400, -49.108
1555.1600, -49.132
1555.1800, -49.123
1555.2000, -49.099
1555.2200, -49.127
1555.2400, -49.131
1555.2600, -49.110
1555.2800, -49.113
1555.3000, -49.115
1555.3200, -49.096
1555.3400, -49.092
1555.3600, -49.072
1555.3800, -49.076
1555.4000, -49.067
1555.4200, -49.048
1555.4400, -49.055
1555.4600, -49.051
1555.4800, -49.046
1555.5000, -49.031
1555.5200, -49.033
1555.5400, -49.018
1555.5600, -49.008
1555.5800, -49.003
1555.6000, -48.999
1555.6200, -48.981
1555.6400, -48.989
1555.6600, -48.982
1555.6800, -48.977
1555.7000, -49.004
1555.7200, -48.987
1555.7400, -48.979
1555.7600, -48.981
1555.7800, -48.977
1555.8000, -48.990
1555.8200, -48.984
1555.8400, -49.003
1555.8600, -49.003
1555.8800, -49.024
1555.9000, -49.029
1555.9200, -49.038
1555.9400, -49.058
1555.9600, -49.069
1555.9800, -49.068
1556.0000, -49.098
1556.0200, -49.089
1556.0400, -49.106
1556.0600, -49.113
1556.0800, -49.091
1556.1000, -49.105
1556.1200, -49.126
1556.1400, -49.111
1556.1600, -49.094
1556.1800, -49.090
1556.2000, -49.090
1556.2200, -49.079
1556.2400, -49.056
1556.2600, -49.061
1556.2800, -49.062
1556.3000, -49.038
1556.3200, -49.044
1556.3400, -49.042
1556.3600, -49.046
1556.3800, -49.022
1556.4000, -49.027
1556.4200, -49.021
1556.4400, -49.009
1556.4600, -48.986
1556.4800, -49.002
1556.5000, -48.981
1556.5200, -48.978
1556.5400, -48.984
1556.5600, -48.963
1556.5800, -48.971
1556.6000, -48.975
1556.6200, -48.960
1556.6400, -48.975
1556.6600, -48.965
1556.6800, -48.981
1556.7000, -48.984
1556.7200, -48.993
1556.7400, -48.994
1556.7600, -49.014
1556.7800, -49.021
1556.8000, -49.032
1556.8200, -49.051
1556.8400, -49.063
1556.8600, -49.067
1556.8800, -49.085
1556.9000, -49.089
1556.9200, -49.102
1556.9400, -49.122
1556.9600, -49.118
1556.9800, -49.099
1557.0000, -49.126
1557.0200, -49.119
1557.0400, -49.098
1557.0600, -49.098
1557.0800, -49.095
1557.1000, -49.084
1557.1200, -49.086
1557.1400, -49.072
1557.1600, -49.084
1557.1800, -49.065
1557.2000, -49.057
1557.2200, -49.058
1557.2400, -49.061
1557.2600, -49.051
1557.2800, -49.044
1557.3000, -49.039
1557.3200, -49.030
1557.3400, -49.024
1557.3600, -49.025
1557.3800, -49.016
1557.4000, -49.002
1557.4200, -49.013
1557.4400, -48.996
1557.4600, -48.999
1557.4800, -49.004
1557.5000, -48.992
1557.5200, -49.009
1557.5400, -49.010
1557.5600, -49.009
1557.5800, -49.020
1557.6000, -49.031
1557.6200, -49.039
1557.6400, -49.039
1557.6600, -49.063
1557.6800, -49.072
1557.7000, -49.085
1557.7200, -49.102
1557.7400, -49.111
1557.7600, -49.122
1557.7800, -49.134
1557.8000, -49.135
1557.8200, -49.148
1557.8400, -49.151
1557.8600, -49.139
1557.8800, -49.148
1557.9000, -49.157
1557.9200, -49.155
1557.9400, -49.149
1557.9600, -49.153
1557.9800, -49.147
1558.0000, -49.146
1558.0200, -49.130
1558.0400, -49.152
1558.0600, -49.134
1558.0800, -49.122
1558.1000, -49.125
1558.1200, -49.118
1558.1400, -49.117
1558.1600, -49.108
1558.1800, -49.108
1558.2000, -49.106
1558.2200, -49.099
1558.2400, -49.094
1558.2600, -49.094
1558.2800, -49.077
1558.3000, -49.085
1558.3200, -49.073
1558.3400, -49.054
1558.3600, -49.066
1558.3800, -49.054
1558.4000, -49.063
1558.4200, -49.089
1558.4400, -49.083
1558.4600, -49.095
1558.4800, -49.103
1558.5000, -49.122
1558.5200, -49.128
1558.5400, -49.133
1558.5600, -49.147
1558.5800, -49.156
1558.6000, -49.177
1558.6200, -49.195
1558.6400, -49.206
1558.6600, -49.213
1558.6800, -49.213
1558.7000, -49.223
1558.7200, -49.230
1558.7400, -49.227
1558.7600, -49.227
1558.7800, -49.247
1558.8000, -49.252
1558.8200, -49.243
1558.8400, -49.264
1558.8600, -49.255
1558.8800, -49.253
1558.9000, -49.246
1558.9200, -49.253
1558.9400, -49.241
1558.9600, -49.227
1558.9800, -49.241
1559.0000, -49.232
1559.0200, -49.242
1559.0400, -49.227
1559.0600, -49.234
1559.0800, -49.229
1559.1000, -49.224
1559.1200, -49.215
1559.1400, -49.219
1559.1600, -49.207
1559.1800, -49.216
1559.2000, -49.224
1559.2200, -49.201
1559.2400, -49.187
1559.2600, -49.181
1559.2800, -49.195
1559.3000, -49.227
1559.3200, -49.232
1559.3400, -49.245
1559.3600, -49.249
1559.3800, -49.267
1559.4000, -49.276
1559.4200, -49.291
1559.4400, -49.309
1559.4600, -49.322
1559.4800, -49.333
1559.5000, -49.350
1559.5200, -49.370
1559.5400, -49.370
1559.5600, -49.368
1559.5800, -49.392
1559.6000, -49.411
1559.6200, -49.400
1559.6400, -49.390
1559.6600, -49.401
1559.6800, -49.421
1559.7000, -49.423
1559.7200, -49.426
1559.7400, -49.426
1559.7600, -49.425
1559.7800, -49.412
1559.8000, -49.427
1559.8200, -49.433
1559.8400, -49.414
1559.8600, -49.420
1559.8800, -49.409
1559.9000, -49.410
1559.9200, -49.404
1559.9400, -49.410
1559.9600, -49.416
1559.9800, -49.407
1560.0000, -49.397
1560.0200, -49.406
1560.0400, -49.399
1560.0600, -49.409
1560.0800, -49.414
1560.1000, -49.410
1560.1200, -49.394
1560.1400, -49.382
1560.1600, -49.400
1560.1800, -49.425
1560.2000, -49.441
1560.2200, -49.450
1560.2400, -49.467
1560.2600, -49.480
1560.2800, -49.494
1560.3000, -49.498
1560.3200, -49.514
1560.3400, -49.526
1560.3600, -49.555
1560.3800, -49.575
1560.4000, -49.583
1560.4200, -49.590
1560.4400, -49.602
1560.4600, -49.632
1560.4800, -49.623
1560.5000, -49.635
1560.5200, -49.633
1560.5400, -49.630
1560.5600, -49.653
1560.5800, -49.640
1560.6000, -49.653
1560.6200, -49.678
1560.6400, -49.678
1560.6600, -49.675
1560.6800, -49.662
1560.7000, -49.666
1560.7200, -49.655
1560.7400, -49.646
1560.7600, -49.660
1560.7800, -49.657
1560.8000, -49.659
1560.8200, -49.662
1560.8400, -49.686
1560.8600, -49.680
1560.8800, -49.674
1560.9000, -49.671
1560.9200, -49.669
1560.9400, -49.667
1560.9600, -49.671
1560.9800, -49.680
1561.0000, -49.677
1561.0200, -49.684
1561.0400, -49.694
1561.0600, -49.699
1561.0800, -49.709
1561.1000, -49.718
1561.1200, -49.729
1561.1400, -49.748
1561.1600, -49.774
1561.1800, -49.775
1561.2000, -49.798
1561.2200, -49.811
1561.2400, -49.825
1561.2600, -49.857
1561.2800, -49.871
1561.3000, -49.883
1561.3200, -49.905
1561.3400, -49.918
1561.3600, -49.926
1561.3800, -49.931
1561.4000, -49.947
1561.4200, -49.964
1561.4400, -49.970
1561.4600, -49.956
1561.4800, -49.960
1561.5000, -49.979
1561.5200, -49.983
1561.5400, -49.990
1561.5600, -49.991
1561.5800, -49.983
1561.6000, -49.981
1561.6200, -49.989
1561.6400, -49.997
1561.6600, -50.001
1561.6800, -49.990
1561.7000, -49.991
1561.7200, -50.010
1561.7400, -50.010
1561.7600, -50.021
1561.7800, -50.010
1561.8000, -50.007
1561.8200, -50.009
1561.8400, -50.026
1561.8600, -50.029
1561.8800, -50.036
1561.9000, -50.051
1561.9200, -50.056
1561.9400, -50.068
1561.9600, -50.068
1561.9800, -50.071
1562.0000, -50.091
1562.0200, -50.110
1562.0400, -50.125
1562.0600, -50.143
1562.0800, -50.162
1562.1000, -50.172
1562.1200, -50.201
1562.1400, -50.227
1562.1600, -50.240
1562.1800, -50.266
1562.2000, -50.277
1562.2200, -50.282
1562.2400, -50.306
1562.2600, -50.301
1562.2800, -50.317
1562.3000, -50.341
1562.3200, -50.346
1562.3400, -50.353
1562.3600, -50.356
1562.3800, -50.372
1562.4000, -50.371
1562.4200, -50.379
1562.4400, -50.388
1562.4600, -50.374
1562.4800, -50.374
1562.5000, -50.372
1562.5200, -50.383
1562.5400, -50.403
1562.5600, -50.408
1562.5800, -50.412
1562.6000, -50.423
1562.6200, -50.423
1562.6400, -50.426
1562.6600, -50.428
1562.6800, -50.419
1562.7000, -50.419
1562.7200, -50.434
1562.7400, -50.439
1562.7600, -50.462
1562.7800, -50.476
1562.8000, -50.477
1562.8200, -50.484
1562.8400, -50.490
1562.8600, -50.503
1562.8800, -50.526
1562.9000, -50.545
1562.9200, -50.568
1562.9400, -50.587
1562.9600, -50.598
1562.9800, -50.611
1563.0000, -50.647
1563.0200, -50.669
1563.0400, -50.694
1563.0600, -50.710
1563.0800, -50.719
1563.1000, -50.717
1563.1200, -50.729
1563.1400, -50.737
1563.1600, -50.752
1563.1800, -50.782
1563.2000, -50.794
1563.2200, -50.801
1563.2400, -50.817
1563.2600, -50.825
1563.2800, -50.832
1563.3000, -50.839
1563.3200, -50.841
1563.3400, -50.843
1563.3600, -50.843
1563.3800, -50.842
1563.4000, -50.846
1563.4200, -50.864
1563.4400, -50.863
1563.4600, -50.880
1563.4800, -50.891
1563.5000, -50.895
1563.5200, -50.902
1563.5400, -50.909
1563.5600, -50.915
1563.5800, -50.901
1563.6000, -50.915
1563.6200, -50.922
1563.6400, -50.943
1563.6600, -50.965
1563.6800, -50.955
1563.7000, -50.968
1563.7200, -50.975
1563.7400, -51.000
1563.7600, -51.013
1563.7800, -51.044
1563.8000, -51.050
1563.8200, -51.066
1563.8400, -51.089
1563.8600, -51.113
1563.8800, -51.139
1563.9000, -51.159
1563.9200, -51.166
1563.9400, -51.190
1563.9600, -51.213
1563.9800, -51.220
1564.0000, -51.232
1564.0200, -51.245
1564.0400, -51.264
1564.0600, -51.272
1564.0800, -51.291
1564.1000, -51.285
1564.1200, -51.303
1564.1400, -51.309
1564.1600, -51.331
1564.1800, -51.332
1564.2000, -51.334
1564.2200, -51.346
1564.2400, -51.351
1564.2600, -51.361
1564.2800, -51.378
1564.3000, -51.371
1564.3200, -51.368
1564.3400, -51.378
1564.3600, -51.398
1564.3800, -51.401
1564.4000, -51.418
1564.4200, -51.424
1564.4400, -51.428
1564.4600, -51.434
1564.4800, -51.468
1564.5000, -51.460
1564.5200, -51.473
1564.5400, -51.487
1564.5600, -51.491
1564.5800, -51.521
1564.6000, -51.525
1564.6200, -51.535
1564.6400, -51.551
1564.6600, -51.576
1564.6800, -51.596
1564.7000, -51.614
1564.7200, -51.634
1564.7400, -51.651
1564.7600, -51.674
1564.7800, -51.708
1564.8000, -51.722
1564.8200, -51.748
1564.8400, -51.762
1564.8600, -51.773
1564.8800, -51.800
1564.9000, -51.796
1564.9200, -51.825
1564.9400, -51.847
1564.9600, -51.847
1564.9800, -51.856
1565.0000, -51.870
1565.0200, -51.894
1565.0400, -51.903
1565.0600, -51.893
1565.0800, -51.894
1565.1000, -51.904
1565.1200, -51.907
1565.1400, -51.917
1565.1600, -51.933
1565.1800, -51.949
1565.2000, -51.956
1565.2200, -51.975
1565.2400, -51.990
1565.2600, -51.980
1565.2800, -51.980
1565.3000, -51.988
1565.3200, -52.003
1565.3400, -52.007
1565.3600, -52.026
1565.3800, -52.051
1565.4000, -52.073
1565.4200, -52.095
1565.4400, -52.094
1565.4600, -52.091
1565.4800, -52.106
1565.5000, -52.122
1565.5200, -52.134
1565.5400, -52.166
1565.5600, -52.185
1565.5800, -52.208
1565.6000, -52.226
1565.6200, -52.246
1565.6400, -52.261
1565.6600, -52.301
1565.6800, -52.314
1565.7000, -52.351
1565.7200, -52.365
1565.7400, -52.390
1565.7600, -52.411
1565.7800, -52.418
1565.8000, -52.442
1565.8200, -52.452
1565.8400, -52.440
1565.8600, -52.442
1565.8800, -52.477
1565.9000, -52.496
1565.9200, -52.484
1565.9400, -52.484
1565.9600, -52.491
1565.9800, -52.502
1566.0000, -52.513
1566.0200, -52.515
1566.0400, -52.538
1566.0600, -52.552
1566.0800, -52.548
1566.1000, -52.580
1566.1200, -52.579
1566.1400, -52.577
1566.1600, -52.580
1566.1800, -52.597
1566.2000, -52.610
1566.2200, -52.608
1566.2400, -52.625
1566.2600, -52.659
1566.2800, -52.680
1566.3000, -52.701
1566.3200, -52.700
1566.3400, -52.694
1566.3600, -52.711
1566.3800, -52.719
1566.4000, -52.742
1566.4200, -52.778
1566.4400, -52.788
1566.4600, -52.817
1566.4800, -52.822
1566.5000, -52.846
1566.5200, -52.876
1566.5400, -52.909
1566.5600, -52.923
1566.5800, -52.954
1566.6000, -52.966
1566.6200, -52.996
1566.6400, -53.004
1566.6600, -53.008
1566.6800, -53.042
1566.7000, -53.039
1566.7200, -53.043
1566.7400, -53.057
1566.7600, -53.084
1566.7800, -53.092
1566.8000, -53.092
1566.8200, -53.095
1566.8400, -53.108
1566.8600, -53.118
1566.8800, -53.115
1566.9000, -53.122
1566.9200, -53.156
1566.9400, -53.160
1566.9600, -53.159
1566.9800, -53.193
1567.0000, -53.189
1567.0200, -53.193
1567.0400, -53.201
1567.0600, -53.214
1567.0800, -53.213
1567.1000, -53.229
1567.1200, -53.243
1567.1400, -53.279
1567.1600, -53.304
1567.1800, -53.300
1567.2000, -53.314
1567.2200, -53.310
1567.2400, -53.332
1567.2600, -53.350
1567.2800, -53.369
1567.3000, -53.408
1567.3200, -53.414
1567.3400, -53.438
1567.3600, -53.450
1567.3800, -53.477
1567.4000, -53.506
1567.4200, -53.526
1567.4400, -53.553
1567.4600, -53.569
1567.4800, -53.585
1567.5000, -53.607
1567.5200, -53.611
1567.5400, -53.630
1567.5600, -53.666
1567.5800, -53.666
1567.6000, -53.664
1567.6200, -53.685
1567.6400, -53.711
1567.6600, -53.710
1567.6800, -53.715
1567.7000, -53.719
1567.7200, -53.727
1567.7400, -53.736
1567.7600, -53.735
1567.7800, -53.753
1567.8000, -53.766
1567.8200, -53.781
1567.8400, -53.798
1567.8600, -53.811
1567.8800, -53.818
1567.9000, -53.814
1567.9200, -53.828
1567.9400, -53.837
1567.9600, -53.847
1567.9800, -53.852
1568.0000, -53.869
1568.0200, -53.901
1568.0400, -53.915
1568.0600, -53.914
1568.0800, -53.931
1568.1000, -53.939
1568.1200, -53.958
1568.1400, -53.977
1568.1600, -54.002
1568.1800, -54.017
1568.2000, -54.050
1568.2200, -54.044
1568.2400, -54.072
1568.2600, -54.100
1568.2800, -54.134
1568.3000, -54.140
1568.3200, -54.175
1568.3400, -54.192
1568.3600, -54.203
1568.3800, -54.217
1568.4000, -54.229
1568.4200, -54.250
1568.4400, -54.276
1568.4600, -54.276
1568.4800, -54.289
1568.5000, -54.320
1568.5200, -54.321
1568.5400, -54.333
1568.5600, -54.340
1568.5800, -54.350
1568.6000, -54.346
1568.6200, -54.358
1568.6400, -54.367
1568.6600, -54.385
1568.6800, -54.395
1568.7000, -54.406
1568.7200, -54.422
1568.7400, -54.437
1568.7600, -54.443
1568.7800, -54.448
1568.8000, -54.453
1568.8200, -54.462
1568.8400, -54.483
1568.8600, -54.488
1568.8800, -54.498
1568.9000, -54.519
1568.9200, -54.536
1568.9400, -54.548
1568.9600, -54.561
1568.9800, -54.574
1569.0000, -54.590
1569.0200, -54.613
1569.0400, -54.632
1569.0600, -54.659
1569.0800, -54.676
1569.1000, -54.684
1569.1200, -54.719
1569.1400, -54.747
1569.1600, -54.766
1569.1800, -54.779
1569.2000, -54.798
1569.2200, -54.810
1569.2400, -54.821
1569.2600, -54.841
1569.2800, -54.853
1569.3000, -54.872
1569.3200, -54.891
1569.3400, -54.902
1569.3600, -54.911
1569.3800, -54.930
1569.4000, -54.946
1569.4200, -54.953
1569.4400, -54.962
1569.4600, -54.960
1569.4800, -54.970
1569.5000, -54.989
1569.5200, -54.996
1569.5400, -55.008
1569.5600, -55.019
1569.5800, -55.022
1569.6000, -55.052
1569.6200, -55.052
1569.6400, -55.061
1569.6600, -55.079
1569.6800, -55.074
1569.7000, -55.105
1569.7200, -55.109
1569.7400, -55.113
1569.7600, -55.128
1569.7800, -55.139
1569.8000, -55.146
1569.8200, -55.181
1569.8400, -55.183
1569.8600, -55.193
1569.8800, -55.216
1569.9000, -55.256
1569.9200, -55.260
1569.9400, -55.285
1569.9600, -55.292
1569.9800, -55.322
1570.0000, -55.351
1570.0200, -55.360
1570.0400, -55.388
1570.0600, -55.409
1570.0800, -55.414
1570.1000, -55.420
1570.1200, -55.423
1570.1400, -55.452
1570.1600, -55.479
1570.1800, -55.482
1570.2000, -55.496
1570.2200, -55.512
1570.2400, -55.540
1570.2600, -55.535
1570.2800, -55.562
1570.3000, -55.562
1570.3200, -55.574
1570.3400, -55.570
1570.3600, -55.590
1570.3800, -55.605
1570.4000, -55.613
1570.4200, -55.609
1570.4400, -55.621
1570.4600, -55.646
1570.4800, -55.652
1570.5000, -55.653
1570.5200, -55.673
1570.5400, -55.678
1570.5600, -55.688
1570.5800, -55.703
1570.6000, -55.700
1570.6200, -55.730
1570.6400, -55.754
1570.6600, -55.755
1570.6800, -55.762
1570.7000, -55.786
1570.7200, -55.799
1570.7400, -55.820
1570.7600, -55.839
1570.7800, -55.858
1570.8000, -55.866
1570.8200, -55.886
1570.8400, -55.923
1570.8600, -55.942
1570.8800, -55.962
1570.9000, -55.974
1570.9200, -55.987
1570.9400, -56.006
1570.9600, -56.018
1570.9800, -56.042
1571.0000, -56.044
1571.0200, -56.071
1571.0400, -56.082
1571.0600, -56.085
1571.0800, -56.102
1571.1000, -56.109
1571.1200, -56.139
1571.1400, -56.146
1571.1600, -56.150
1571.1800, -56.165
1571.2000, -56.163
1571.2200, -56.173
1571.2400, -56.197
1571.2600, -56.201
1571.2800, -56.210
1571.3000, -56.223
1571.3200, -56.228
1571.3400, -56.243
1571.3600, -56.238
1571.3800, -56.253
1571.4000, -56.261
1571.4200, -56.278
1571.4400, -56.296
1571.4600, -56.301
1571.4800, -56.316
1571.5000, -56.331
1571.5200, -56.348
1571.5400, -56.343
1571.5600, -56.385
1571.5800, -56.373
1571.6000, -56.386
1571.6200, -56.413
1571.6400, -56.445
1571.6600, -56.456
1571.6800, -56.463
1571.7000, -56.487
1571.7200, -56.516
1571.7400, -56.529
1571.7600, -56.543
1571.7800, -56.564
1571.8000, -56.587
1571.8200, -56.610
1571.8400, -56.612
1571.8600, -56.626
1571.8800, -56.634
1571.9000, -56.661
1571.9200, -56.664
1571.9400, -56.673
1571.9600, -56.692
1571.9800, -56.708
1572.0000, -56.708
1572.0200, -56.721
1572.0400, -56.745
1572.0600, -56.739
1572.0800, -56.746
1572.1000, -56.755
1572.1200, -56.768
1572.1400, -56.788
1572.1600, -56.786
1572.1800, -56.812
1572.2000, -56.812
1572.2200, -56.807
1572.2400, -56.835
1572.2600, -56.826
1572.2800, -56.824
1572.3000, -56.857
1572.3200, -56.881
1572.3400, -56.877
1572.3600, -56.880
1572.3800, -56.901
1572.4000, -56.920
1572.4200, -56.924
1572.4400, -56.940
1572.4600, -56.960
1572.4800, -56.951
1572.5000, -56.991
1572.5200, -57.008
1572.5400, -57.035
1572.5600, -57.041
1572.5800, -57.051
1572.6000, -57.082
1572.6200, -57.097
1572.6400, -57.108
1572.6600, -57.129
1572.6800, -57.142
1572.7000, -57.167
1572.7200, -57.170
1572.7400, -57.175
1572.7600, -57.206
1572.7800, -57.204
1572.8000, -57.221
1572.8200, -57.227
1572.8400, -57.258
1572.8600, -57.252
1572.8800, -57.258
1572.9000, -57.269
1572.9200, -57.281
1572.9400, -57.287
1572.9600, -57.305
1572.9800, -57.326
1573.0000, -57.317
1573.0200, -57.307
1573.0400, -57.355
1573.0600, -57.350
1573.0800, -57.351
1573.1000, -57.371
1573.1200, -57.360
1573.1400, -57.381
1573.1600, -57.398
1573.1800, -57.412
1573.2000, -57.407
1573.2200, -57.404
1573.2400, -57.437
1573.2600, -57.465
1573.2800, -57.453
1573.3000, -57.469
1573.3200, -57.475
1573.3400, -57.498
1573.3600, -57.509
1573.3800, -57.540
1573.4000, -57.538
1573.4200, -57.560
1573.4400, -57.579
1573.4600, -57.592
1573.4800, -57.614
1573.5000, -57.649
1573.5200, -57.628
1573.5400, -57.658
1573.5600, -57.672
1573.5800, -57.687
1573.6000, -57.706
1573.6200, -57.722
1573.6400, -57.722
1573.6600, -57.739
1573.6800, -57.755
1573.7000, -57.769
1573.7200, -57.774
1573.7400, -57.783
1573.7600, -57.774
1573.7800, -57.776
1573.8000, -57.800
1573.8200, -57.812
1573.8400, -57.817
1573.8600, -57.828
1573.8800, -57.820
1573.9000, -57.837
1573.9200, -57.863
1573.9400, -57.847
1573.9600, -57.872
1573.9800, -57.871
1574.0000, -57.890
1574.0200, -57.884
1574.0400, -57.908
1574.0600, -57.911
1574.0800, -57.918
1574.1000, -57.933
1574.1200, -57.952
1574.1400, -57.960
1574.1600, -57.987
1574.1800, -57.968
1574.2000, -57.993
1574.2200, -58.011
1574.2400, -58.037
1574.2600, -58.057
1574.2800, -58.059
1574.3000, -58.076
1574.3200, -58.098
1574.3400, -58.101
1574.3600, -58.127
1574.3800, -58.142
1574.4000, -58.143
1574.4200, -58.173
1574.4400, -58.176
1574.4600, -58.193
1574.4800, -58.201
1574.5000, -58.210
1574.5200, -58.207
1574.5400, -58.235
1574.5600, -58.247
1574.5800, -58.244
1574.6000, -58.266
1574.6200, -58.256
1574.6400, -58.278
1574.6600, -58.279
1574.6800, -58.302
1574.7000, -58.308
1574.7200, -58.309
1574.7400, -58.307
1574.7600, -58.332
1574.7800, -58.329
1574.8000, -58.331
1574.8200, -58.348
1574.8400, -58.359
1574.8600, -58.363
1574.8800, -58.373
1574.9000, -58.383
1574.9200, -58.397
1574.9400, -58.397
1574.9600, -58.403
1574.9800, -58.413
1575.0000, -58.439
1575.0200, -58.439
1575.0400, -58.458
1575.0600, -58.468
1575.0800, -58.480
1575.1000, -58.492
1575.1200, -58.517
1575.1400, -58.521
1575.1600, -58.558
1575.1800, -58.556
1575.2000, -58.587
1575.2200, -58.606
1575.2400, -58.592
1575.2600, -58.603
1575.2800, -58.642
1575.3000, -58.650
1575.3200, -58.667
1575.3400, -58.653
1575.3600, -58.683
1575.3800, -58.674
1575.4000, -58.697
1575.4200, -58.710
1575.4400, -58.722
1575.4600, -58.749
1575.4800, -58.717
1575.5000, -58.722
1575.5200, -58.741
1575.5400, -58.741
1575.5600, -58.757
1575.5800, -58.744
1575.6000, -58.777
1575.6200, -58.800
1575.6400, -58.790
1575.6600, -58.785
1575.6800, -58.795
1575.7000, -58.821
1575.7200, -58.821
1575.7400, -58.826
1575.7600, -58.809
1575.7800, -58.839
1575.8000, -58.846
1575.8200, -58.844
1575.8400, -58.871
1575.8600, -58.888
1575.8800, -58.865
1575.9000, -58.899
1575.9200, -58.920
1575.9400, -58.938
1575.9600, -58.947
1575.9800, -58.939
1576.0000, -58.992
1576.0200, -58.966
1576.0400, -59.009
1576.0600, -59.005
1576.0800, -59.042
1576.1000, -59.039
1576.1200, -59.052
1576.1400, -59.063
1576.1600, -59.072
1576.1800, -59.085
1576.2000, -59.109
1576.2200, -59.090
1576.2400, -59.107
1576.2600, -59.127
1576.2800, -59.137
1576.3000, -59.137
1576.3200, -59.153
1576.3400, -59.146
1576.3600, -59.140
1576.3800, -59.183
1576.4000, -59.171
1576.4200, -59.182
1576.4400, -59.179
1576.4600, -59.214
1576.4800, -59.190
1576.5000, -59.206
1576.5200, -59.205
1576.5400, -59.206
1576.5600, -59.227
1576.5800, -59.245
1576.6000, -59.222
1576.6200, -59.242
1576.6400, -59.268
1576.6600, -59.245
1576.6800, -59.266
1576.7000, -59.273
1576.7200, -59.298
1576.7400, -59.282
1576.7600, -59.297
1576.7800, -59.321
1576.8000, -59.340
1576.8200, -59.346
1576.8400, -59.341
1576.8600, -59.362
1576.8800, -59.376
1576.9000, -59.406
1576.9200, -59.397
1576.9400, -59.415
1576.9600, -59.448
1576.9800, -59.463
1577.0000, -59.457
1577.0200, -59.455
1577.0400, -59.470
1577.0600, -59.488
1577.0800, -59.506
1577.1000, -59.504
1577.1200, -59.512
1577.1400, -59.521
1577.1600, -59.516
1577.1800, -59.516
1577.2000, -59.530
1577.2200, -59.556
1577.2400, -59.553
1577.2600, -59.557
1577.2800, -59.556
1577.3000, -59.587
1577.3200, -59.578
1577.3400, -59.574
1577.3600, -59.589
1577.3800, -59.597
1577.4000, -59.596
1577.4200, -59.627
1577.4400, -59.599
1577.4600, -59.607
1577.4800, -59.611
1577.5000, -59.630
1577.5200, -59.652
1577.5400, -59.651
1577.5600, -59.649
1577.5800, -59.650
1577.6000, -59.667
1577.6200, -59.692
1577.6400, -59.690
1577.6600, -59.702
1577.6800, -59.725
1577.7000, -59.719
1577.7200, -59.757
1577.7400, -59.760
1577.7600, -59.778
1577.7800, -59.779
1577.8000, -59.794
1577.8200, -59.805
1577.8400, -59.833
1577.8600, -59.815
1577.8800, -59.855
1577.9000, -59.838
1577.9200, -59.864
1577.9400, -59.847
1577.9600, -59.854
1577.9800, -59.893
1578.0000, -59.893
1578.0200, -59.882
1578.0400, -59.885
1578.0600, -59.916
1578.0800, -59.900
1578.1000, -59.938
1578.1200, -59.893
1578.1400, -59.929
1578.1600, -59.939
1578.1800, -59.930
1578.2000, -59.941
1578.2200, -59.956
1578.2400, -59.952
1578.2600, -59.956
1578.2800, -59.973
1578.3000, -59.967
1578.3200, -59.979
1578.3400, -59.986
1578.3600, -60.007
1578.3800, -59.984
1578.4000, -59.992
1578.4200, -60.010
1578.4400, -60.020
1578.4600, -60.026
1578.4800, -60.079
1578.5000, -60.053
1578.5200, -60.038
1578.5400, -60.069
1578.5600, -60.085
1578.5800, -60.110
1578.6000, -60.105
1578.6200, -60.110
1578.6400, -60.125
1578.6600, -60.164
1578.6800, -60.147
1578.7000, -60.172
1578.7200, -60.177
1578.7400, -60.207
1578.7600, -60.193
1578.7800, -60.207
1578.8000, -60.218
1578.8200, -60.205
1578.8400, -60.232
1578.8600, -60.236
1578.8800, -60.245
1578.9000, -60.247
1578.9200, -60.254
1578.9400, -60.255
1578.9600, -60.265
1578.9800, -60.258
1579.0000, -60.286
1579.0200, -60.267
1579.0400, -60.277
1579.0600, -60.308
1579.0800, -60.298
1579.1000, -60.285
1579.1200, -60.313
1579.1400, -60.307
1579.1600, -60.308
1579.1800, -60.322
1579.2000, -60.319
1579.2200, -60.307
1579.2400, -60.351
1579.2600, -60.349
1579.2800, -60.337
1579.3000, -60.360
1579.3200, -60.394
1579.3400, -60.364
1579.3600, -60.403
1579.3800, -60.381
1579.4000, -60.403
1579.4200, -60.434
1579.4400, -60.426
1579.4600, -60.424
1579.4800, -60.472
1579.5000, -60.476
1579.5200, -60.461
1579.5400, -60.475
1579.5600, -60.496
1579.5800, -60.496
1579.6000, -60.519
1579.6200, -60.526
1579.6400, -60.511
1579.6600, -60.558
1579.6800, -60.530
1579.7000, -60.546
1579.7200, -60.564
1579.7400, -60.558
1579.7600, -60.556
1579.7800, -60.589
1579.8000, -60.574
1579.8200, -60.561
1579.8400, -60.555
1579.8600, -60.584
1579.8800, -60.631
1579.9000, -60.581
1579.9200, -60.586
1579.9400, -60.646
1579.9600, -60.588
1579.9800, -60.628
1580.0000, -60.587
1580.0200, -60.606
1580.0400, -60.635
1580.0600, -60.620
1580.0800, -60.628
1580.1000, -60.658
1580.1200, -60.637
1580.1400, -60.653
1580.1600, -60.670
1580.1800, -60.660
1580.2000, -60.696
1580.2200, -60.686
1580.2400, -60.694
1580.2600, -60.710
1580.2800, -60.721
1580.3000, -60.710
1580.3200, -60.746
1580.3400, -60.735
1580.3600, -60.808
1580.3800, -60.765
1580.4000, -60.740
1580.4200, -60.797
1580.4400, -60.786
1580.4600, -60.788
1580.4800, -60.808
1580.5000, -60.803
1580.5200, -60.844
1580.5400, -60.807
1580.5600, -60.854
1580.5800, -60.823
1580.6000, -60.826
1580.6200, -60.850
1580.6400, -60.860
1580.6600, -60.849
1580.6800, -60.863
1580.7000, -60.864
1580.7200, -60.851
1580.7400, -60.863
1580.7600, -60.879
1580.7800, -60.859
1580.8000, -60.881
1580.8200, -60.887
1580.8400, -60.902
1580.8600, -60.892
1580.8800, -60.922
1580.9000, -60.893
1580.9200, -60.921
1580.9400, -60.896
1580.9600, -60.914
1580.9800, -60.920
1581.0000, -60.946
1581.0200, -60.942
1581.0400, -60.927
1581.0600, -60.956
1581.0800, -60.971
1581.1000, -60.963
1581.1200, -60.980
1581.1400, -60.968
1581.1600, -61.025
1581.1800, -60.993
1581.2000, -61.038
1581.2200, -61.026
1581.2400, -61.026
1581.2600, -61.039
1581.2800, -61.053
1581.3000, -61.068
1581.3200, -61.074
1581.3400, -61.069
1581.3600, -61.057
1581.3800, -61.094
1581.4000, -61.075
1581.4200, -61.110
1581.4400, -61.107
1581.4600, -61.089
1581.4800, -61.132
1581.5000, -61.121
1581.5200, -61.122
1581.5400, -61.116
1581.5600, -61.148
1581.5800, -61.144
1581.6000, -61.103
1581.6200, -61.134
1581.6400, -61.167
1581.6600, -61.145
1581.6800, -61.126
1581.7000, -61.179
1581.7200, -61.151
1581.7400, -61.178
1581.7600, -61.116
1581.7800, -61.171
1581.8000, -61.138
1581.8200, -61.173
1581.8400, -61.188
1581.8600, -61.180
1581.8800, -61.215
1581.9000, -61.188
1581.9200, -61.211
1581.9400, -61.216
1581.9600, -61.237
1581.9800, -61.216
1582.0000, -61.252
1582.0200, -61.242
1582.0400, -61.246
1582.0600, -61.264
1582.0800, -61.309
1582.1000, -61.308
1582.1200, -61.275
1582.1400, -61.283
1582.1600, -61.325
1582.1800, -61.321
1582.2000, -61.345
1582.2200, -61.391
1582.2400, -61.309
1582.2600, -61.314
1582.2800, -61.390
1582.3000, -61.359
1582.3200, -61.358
1582.3400, -61.353
1582.3600, -61.336
1582.3800, -61.352
1582.4000, -61.366
1582.4200, -61.359
1582.4400, -61.364
1582.4600, -61.377
1582.4800, -61.380
1582.5000, -61.391
1582.5200, -61.397
1582.5400, -61.359
1582.5600, -61.416
1582.5800, -61.372
1582.6000, -61.393
1582.6200, -61.396
1582.6400, -61.384
1582.6600, -61.423
1582.6800, -61.432
1582.7000, -61.419
1582.7200, -61.391
1582.7400, -61.457
1582.7600, -61.431
1582.7800, -61.473
1582.8000, -61.452
1582.8200, -61.474
1582.8400, -61.452
1582.8600, -61.485
1582.8800, -61.503
1582.9000, -61.507
1582.9200, -61.521
1582.9400, -61.496
1582.9600, -61.572
1582.9800, -61.488
1583.0000, -61.534
1583.0200, -61.562
1583.0400, -61.539
1583.0600, -61.549
1583.0800, -61.560
1583.1000, -61.585
1583.1200, -61.567
1583.1400, -61.590
1583.1600, -61.563
1583.1800, -61.550
1583.2000, -61.581
1583.2200, -61.590
1583.2400, -61.565
1583.2600, -61.610
1583.2800, -61.625
1583.3000, -61.576
1583.3200, -61.620
1583.3400, -61.619
1583.3600, -61.599
1583.3800, -61.603
1583.4000, -61.623
1583.4200, -61.594
1583.4400, -61.641
1583.4600, -61.616
1583.4800, -61.675
1583.5000, -61.648
1583.5200, -61.649
1583.5400, -61.611
1583.5600, -61.664
1583.5800, -61.634
1583.6000, -61.649
1583.6200, -61.674
1583.6400, -61.675
1583.6600, -61.690
1583.6800, -61.702
1583.7000, -61.690
1583.7200, -61.718
1583.7400, -61.720
1583.7600, -61.721
1583.7800, -61.731
1583.8000, -61.750
1583.8200, -61.746
1583.8400, -61.761
1583.8600, -61.715
1583.8800, -61.783
1583.9000, -61.765
1583.9200, -61.788
1583.9400, -61.759
1583.9600, -61.801
1583.9800, -61.775
1584.0000, -61.813
1584.0200, -61.839
1584.0400, -61.740
1584.0600, -61.802
1584.0800, -61.838
1584.1000, -61.768
1584.1200, -61.806
1584.1400, -61.803
1584.1600, -61.814
1584.1800, -61.811
1584.2000, -61.813
1584.2200, -61.821
1584.2400, -61.844
1584.2600, -61.822
1584.2800, -61.831
1584.3000, -61.843
1584.3200, -61.846
1584.3400, -61.855
1584.3600, -61.850
1584.3800, -61.851
1584.4000, -61.865
1584.4200, -61.856
1584.4400, -61.877
1584.4600, -61.874
1584.4800, -61.900
1584.5000, -61.882
1584.5200, -61.946
1584.5400, -61.868
1584.5600, -61.914
1584.5800, -61.904
1584.6000, -61.905
1584.6200, -61.952
1584.6400, -61.933
1584.6600, -61.955
1584.6800, -61.936
1584.7000, -61.981
1584.7200, -61.923
1584.7400, -61.978
1584.7600, -61.992
1584.7800, -61.964
1584.8000, -62.030
1584.8200, -61.959
1584.8400, -62.015
1584.8600, -62.002
1584.8800, -61.993
1584.9000, -61.977
1584.9200, -61.986
1584.9400, -61.989
1584.9600, -62.013
1584.9800, -61.998
1585.0000, -62.010
1585.0200, -62.042
1585.0400, -62.017
1585.0600, -62.021
1585.0800, -62.021
1585.1000, -61.987
1585.1200, -62.017
1585.1400, -61.993
1585.1600, -62.058
1585.1800, -62.018
1585.2000, -62.030
1585.2200, -62.036
1585.2400, -62.053
1585.2600, -62.035
1585.2800, -62.058
1585.3000, -62.097
1585.3200, -62.059
1585.3400, -62.095
1585.3600, -62.077
1585.3800, -62.084
1585.4000, -62.115
1585.4200, -62.160
1585.4400, -62.104
1585.4600, -62.100
1585.4800, -62.133
1585.5000, -62.128
1585.5200, -62.127
1585.5400, -62.206
1585.5600, -62.119
1585.5800, -62.145
1585.6000, -62.168
1585.6200, -62.156
1585.6400, -62.202
1585.6600, -62.132
1585.6800, -62.203
1585.7000, -62.147
1585.7200, -62.151
1585.7400, -62.187
1585.7600, -62.154
1585.7800, -62.176
1585.8000, -62.207
1585.8200, -62.166
1585.8400, -62.217
1585.8600, -62.187
1585.8800, -62.174
1585.9000, -62.186
1585.9200, -62.160
1585.9400, -62.164
1585.9600, -62.232
1585.9800, -62.216
1586.0000, -62.161
1586.0200, -62.201
1586.0400, -62.217
1586.0600, -62.242
1586.0800, -62.188
1586.1000, -62.238
1586.1200, -62.213
1586.1400, -62.223
1586.1600, -62.258
1586.1800, -62.256
1586.2000, -62.204
1586.2200, -62.302
1586.2400, -62.278
1586.2600, -62.282
1586.2800, -62.274
1586.3000, -62.250
1586.3200, -62.293
1586.3400, -62.333
1586.3600, -62.315
1586.3800, -62.265
1586.4000, -62.322
1586.4200, -62.347
1586.4400, -62.309
1586.4600, -62.325
1586.4800, -62.317
1586.5000, -62.344
1586.5200, -62.332
1586.5400, -62.352
1586.5600, -62.325
1586.5800, -62.368
1586.6000, -62.341
1586.6200, -62.350
1586.6400, -62.306
1586.6600, -62.390
1586.6800, -62.369
1586.7000, -62.338
1586.7200, -62.359
1586.7400, -62.333
1586.7600, -62.364
1586.7800, -62.418
1586.8000, -62.342
1586.8200, -62.369
1586.8400, -62.382
1586.8600, -62.378
1586.8800, -62.388
1586.9000, -62.368
1586.9200, -62.417
1586.9400, -62.374
1586.9600, -62.390
1586.9800, -62.419
1587.0000, -62.427
1587.0200, -62.387
1587.0400, -62.433
1587.0600, -62.482
1587.0800, -62.422
1587.1000, -62.438
1587.1200, -62.487
1587.1400, -62.477
1587.1600, -62.461
1587.1800, -62.489
1587.2000, -62.452
1587.2200, -62.461
1587.2400, -62.482
1587.2600, -62.513
1587.2800, -62.461
1587.3000, -62.518
1587.3200, -62.492
1587.3400, -62.477
1587.3600, -62.536
1587.3800, -62.496
1587.4000, -62.521
1587.4200, -62.522
1587.4400, -62.531
1587.4600, -62.537
1587.4800, -62.586
1587.5000, -62.476
1587.5200, -62.519
1587.5400, -62.515
1587.5600, -62.545
1587.5800, -62.517
1587.6000, -62.563
1587.6200, -62.534
1587.6400, -62.552
1587.6600, -62.513
1587.6800, -62.543
1587.7000, -62.573
1587.7200, -62.523
1587.7400, -62.561
1587.7600, -62.530
1587.7800, -62.566
1587.8000, -62.578
1587.8200, -62.596
1587.8400, -62.585
1587.8600, -62.567
1587.8800, -62.588
1587.9000, -62.573
1587.9200, -62.639
1587.9400, -62.619
1587.9600, -62.574
1587.9800, -62.647
1588.0000, -62.629
1588.0200, -62.697
1588.0400, -62.631
1588.0600, -62.670
1588.0800, -62.650
1588.1000, -62.619
1588.1200, -62.660
1588.1400, -62.642
1588.1600, -62.674
1588.1800, -62.655
1588.2000, -62.684
1588.2200, -62.740
1588.2400, -62.635
1588.2600, -62.673
1588.2800, -62.661
1588.3000, -62.659
1588.3200, -62.684
1588.3400, -62.700
1588.3600, -62.747
1588.3800, -62.693
1588.4000, -62.671
1588.4200, -62.703
1588.4400, -62.700
1588.4600, -62.749
1588.4800, -62.645
1588.5000, -62.692
1588.5200, -62.722
1588.5400, -62.696
1588.5600, -62.690
1588.5800, -62.665
1588.6000, -62.714
1588.6200, -62.741
1588.6400, -62.765
1588.6600, -62.711
1588.6800, -62.737
1588.7000, -62.692
1588.7200, -62.793
1588.7400, -62.683
1588.7600, -62.779
1588.7800, -62.741
1588.8000, -62.818
1588.8200, -62.760
1588.8400, -62.782
1588.8600, -62.728
1588.8800, -62.831
1588.9000, -62.834
1588.9200, -62.820
1588.9400, -62.786
1588.9600, -62.823
1588.9800, -62.840
1589.0000, -62.816
1589.0200, -62.785
1589.0400, -62.839
1589.0600, -62.827
1589.0800, -62.847
1589.1000, -62.834
1589.1200, -62.842
1589.1400, -62.825
1589.1600, -62.829
1589.1800, -62.814
1589.2000, -62.855
1589.2200, -62.841
1589.2400, -62.854
1589.2600, -62.852
1589.2800, -62.857
1589.3000, -62.776
1589.3200, -62.848
1589.3400, -62.818
1589.3600, -62.849
1589.3800, -62.859
1589.4000, -62.878
1589.4200, -62.845
1589.4400, -62.866
1589.4600, -62.853
1589.4800, -62.825
1589.5000, -62.890
1589.5200, -62.831
1589.5400, -62.895
1589.5600, -62.907
1589.5800, -62.920
1589.6000, -62.870
1589.6200, -62.922
1589.6400, -62.909
1589.6600, -62.941
1589.6800, -62.964
1589.7000, -62.924
1589.7200, -62.913
1589.7400, -62.895
1589.7600, -62.966
1589.7800, -62.995
1589.8000, -62.954
1589.8200, -62.967
1589.8400, -62.988
1589.8600, -62.944
1589.8800, -62.943
1589.9000, -62.979
1589.9200, -62.991
1589.9400, -63.006
1589.9600, -62.964
1589.9800, -62.985
1590.0000, -63.023
1590.0200, -62.960
1590.0400, -62.963
1590.0600, -62.992
1590.0800, -62.971
1590.1000, -63.013
1590.1200, -62.969
1590.1400, -63.021
1590.1600, -62.982
1590.1800, -62.974
1590.2000, -63.004
1590.2200, -62.969
1590.2400, -63.002
1590.2600, -63.018
1590.2800, -63.033
1590.3000, -63.021
1590.3200, -63.135
1590.3400, -62.946
1590.3600, -63.037
1590.3800, -63.004
1590.4000, -63.109
1590.4200, -63.016
1590.4400, -63.019
1590.4600, -63.073
1590.4800, -63.064
1590.5000, -63.075
1590.5200, -63.128
1590.5400, -63.022
1590.5600, -63.075
1590.5800, -63.076
1590.6000, -63.134
1590.6200, -63.147
1590.6400, -63.101
1590.6600, -63.114
1590.6800, -63.130
1590.7000, -63.102
1590.7200, -63.139
1590.7400, -63.164
1590.7600, -63.138
1590.7800, -63.134
1590.8000, -63.094
1590.8200, -63.202
1590.8400, -63.164
1590.8600, -63.136
1590.8800, -63.170
1590.9000, -63.066
1590.9200, -63.110
1590.9400, -63.194
1590.9600, -63.127
1590.9800, -63.165
1591.0000, -63.133
1591.0200, -63.184
1591.0400, -63.177
1591.0600, -63.147
1591.0800, -63.144
1591.1000, -63.143
1591.1200, -63.160
1591.1400, -63.202
1591.1600, -63.203
1591.1800, -63.212
1591.2000, -63.220
1591.2200, -63.188
1591.2400, -63.216
1591.2600, -63.153
1591.2800, -63.195
1591.3000, -63.216
1591.3200, -63.242
1591.3400, -63.313
1591.3600, -63.184
1591.3800, -63.316
1591.4000, -63.219
1591.4200, -63.225
1591.4400, -63.274
1591.4600, -63.236
1591.4800, -63.281
1591.5000, -63.317
1591.5200, -63.251
1591.5400, -63.248
1591.5600, -63.290
1591.5800, -63.288
1591.6000, -63.273
1591.6200, -63.289
1591.6400, -63.258
1591.6600, -63.315
1591.6800, -63.271
1591.7000, -63.325
1591.7200, -63.317
1591.7400, -63.281
1591.7600, -63.305
1591.7800, -63.292
1591.8000, -63.386
1591.8200, -63.294
1591.8400, -63.297
1591.8600, -63.272
1591.8800, -63.405
1591.9000, -63.321
1591.9200, -63.316
1591.9400, -63.288
1591.9600, -63.297
1591.9800, -63.402
1592.0000, -63.353
1592.0200, -63.355
1592.0400, -63.302
1592.0600, -63.358
1592.0800, -63.344
1592.1000, -63.343
1592.1200, -63.388
1592.1400, -63.348
1592.1600, -63.374
1592.1800, -63.373
1592.2000, -63.405
1592.2200, -63.373
1592.2400, -63.412
1592.2600, -63.417
1592.2800, -63.383
1592.3000, -63.413
1592.3200, -63.451
1592.3400, -63.463
1592.3600, -63.462
1592.3800, -63.358
1592.4000, -63.487
1592.4200, -63.421
1592.4400, -63.417
1592.4600, -63.410
1592.4800, -63.431
1592.5000, -63.481
1592.5200, -63.433
1592.5400, -63.445
1592.5600, -63.455
1592.5800, -63.397
1592.6000, -63.474
1592.6200, -63.439
1592.6400, -63.473
1592.6600, -63.400
1592.6800, -63.480
1592.7000, -63.466
1592.7200, -63.424
1592.7400, -63.460
1592.7600, -63.427
1592.7800, -63.519
1592.8000, -63.427
1592.8200, -63.533
1592.8400, -63.466
1592.8600, -63.477
1592.8800, -63.525
1592.9000, -63.477
1592.9200, -63.521
1592.9400, -63.551
1592.9600, -63.509
1592.9800, -63.570
1593.0000, -63.491
1593.0200, -63.567
1593.0400, -63.508
1593.0600, -63.532
1593.0800, -63.578
1593.1000, -63.562
1593.1200, -63.528
1593.1400, -63.533
1593.1600, -63.542
1593.1800, -63.563
1593.2000, -63.604
1593.2200, -63.567
1593.2400, -63.620
1593.2600, -63.526
1593.2800, -63.588
1593.3000, -63.558
1593.3200, -63.582
1593.3400, -63.566
1593.3600, -63.630
1593.3800, -63.554
1593.4000, -63.589
1593.4200, -63.582
1593.4400, -63.595
1593.4600, -63.586
1593.4800, -63.593
1593.5000, -63.640
1593.5200, -63.525
1593.5400, -63.638
1593.5600, -63.552
1593.5800, -63.608
1593.6000, -63.584
1593.6200, -63.598
1593.6400, -63.651
1593.6600, -63.663
1593.6800, -63.562
1593.7000, -63.655
1593.7200, -63.617
1593.7400, -63.650
1593.7600, -63.693
1593.7800, -63.605
1593.8000, -63.642
1593.8200, -63.681
1593.8400, -63.675
1593.8600, -63.664
1593.8800, -63.679
1593.9000, -63.657
1593.9200, -63.669
1593.9400, -63.686
1593.9600, -63.688
1593.9800, -63.739
1594.0000, -63.705
1594.0200, -63.704
1594.0400, -63.735
1594.0600, -63.723
1594.0800, -63.733
1594.1000, -63.707
1594.1200, -63.728
1594.1400, -63.690
1594.1600, -63.758
1594.1800, -63.750
1594.2000, -63.711
1594.2200, -63.714
1594.2400, -63.695
1594.2600, -63.703
1594.2800, -63.797
1594.3000, -63.692
1594.3200, -63.721
1594.3400, -63.815
1594.3600, -63.748
1594.3800, -63.787
1594.4000, -63.783
1594.4200, -63.669
1594.4400, -63.777
1594.4600, -63.739
1594.4800, -63.697
1594.5000, -63.748
1594.5200, -63.785
1594.5400, -63.763
1594.5600, -63.783
1594.5800, -63.760
1594.6000, -63.815
1594.6200, -63.826
1594.6400, -63.801
1594.6600, -63.866
1594.6800, -63.793
1594.7000, -63.882
1594.7200, -63.788
1594.7400, -63.829
1594.7600, -63.808
1594.7800, -63.841
1594.8000, -63.851
1594.8200, -63.872
1594.8400, -63.829
1594.8600, -63.905
1594.8800, -63.773
1594.9000, -63.927
1594.9200, -63.805
1594.9400, -63.856
1594.9600, -63.904
1594.9800, -63.844
1595.0000, -63.880
1595.0200, -63.905
1595.0400, -63.846
1595.0600, -63.851
1595.0800, -63.878
1595.1000, -63.910
1595.1200, -63.855
1595.1400, -63.917
1595.1600, -63.893
1595.1800, -63.924
1595.2000, -63.823
1595.2200, -63.874
1595.2400, -63.869
1595.2600, -64.005
1595.2800, -63.832
1595.3000, -63.919
1595.3200, -63.904
1595.3400, -63.925
1595.3600, -63.890
1595.3800, -63.870
1595.4000, -63.937
1595.4200, -63.938
1595.4400, -63.918
1595.4600, -63.955
1595.4800, -63.950
1595.5000, -63.916
1595.5200, -63.949
1595.5400, -63.994
1595.5600, -64.010
1595.5800, -63.984
1595.6000, -63.984
1595.6200, -63.988
1595.6400, -64.044
1595.6600, -63.984
1595.6800, -64.071
1595.7000, -63.949
1595.7200, -64.068
1595.7400, -64.031
1595.7600, -63.957
1595.7800, -63.969
1595.8000, -64.017
1595.8200, -63.964
1595.8400, -64.028
1595.8600, -64.069
1595.8800, -63.951
1595.9000, -64.049
1595.9200, -64.049
1595.9400, -64.029
1595.9600, -64.040
1595.9800, -64.029
1596.0000, -64.006
1596.0200, -64.063
1596.0400, -64.004
1596.0600, -64.058
1596.0800, -64.048
1596.1000, -63.996
1596.1200, -64.056
1596.1400, -64.093
1596.1600, -64.027
1596.1800, -64.039
1596.2000, -64.115
1596.2200, -64.130
1596.2400, -64.035
1596.2600, -64.181
1596.2800, -63.997
1596.3000, -64.086
1596.3200, -64.094
1596.3400, -64.170
1596.3600, -64.103
1596.3800, -64.122
1596.4000, -64.137
1596.4200, -64.112
1596.4400, -64.165
1596.4600, -64.130
1596.4800, -64.146
1596.5000, -64.257
1596.5200, -64.073
1596.5400, -64.231
1596.5600, -64.099
1596.5800, -64.197
1596.6000, -64.165
1596.6200, -64.107
1596.6400, -64.180
1596.6600, -64.188
1596.6800, -64.171
1596.7000, -64.141
1596.7200, -64.174
1596.7400, -64.188
1596.7600, -64.127
1596.7800, -64.171
1596.8000, -64.197
1596.8200, -64.197
1596.8400, -64.124
1596.8600, -64.182
1596.8800, -64.151
1596.9000, -64.132
1596.9200, -64.213
1596.9400, -64.133
1596.9600, -64.208
1596.9800, -64.189
1597.0000, -64.150
1597.0200, -64.218
1597.0400, -64.179
1597.0600, -64.196
1597.0800, -64.214
1597.1000, -64.240
1597.1200, -64.135
1597.1400, -64.297
1597.1600, -64.229
1597.1800, -64.214
1597.2000, -64.349
1597.2200, -64.312
1597.2400, -64.237
1597.2600, -64.289
1597.2800, -64.168
1597.3000, -64.222
1597.3200, -64.326
1597.3400, -64.297
1597.3600, -64.283
1597.3800, -64.341
1597.4000, -64.209
1597.4200, -64.247
1597.4400, -64.280
1597.4600, -64.286
1597.4800, -64.370
1597.5000, -64.273
1597.5200, -64.257
1597.5400, -64.344
1597.5600, -64.325
1597.5800, -64.335
1597.6000, -64.271
1597.6200, -64.387
1597.6400, -64.347
1597.6600, -64.249
1597.6800, -64.273
1597.7000, -64.306
1597.7200, -64.302
1597.7400, -64.356
1597.7600, -64.280
1597.7800, -64.316
1597.8000, -64.371
1597.8200, -64.306
1597.8400, -64.335
1597.8600, -64.390
1597.8800, -64.434
1597.9000, -64.323
1597.9200, -64.316
1597.9400, -64.337
1597.9600, -64.414
1597.9800, -64.356
1598.0000, -64.376
1598.0200, -64.449
1598.0400, -64.321
1598.0600, -64.449
1598.0800, -64.323
1598.1000, -64.415
1598.1200, -64.376
1598.1400, -64.376
1598.1600, -64.370
1598.1800, -64.419
1598.2000, -64.514
1598.2200, -64.364
1598.2400, -64.464
1598.2600, -64.441
1598.2800, -64.552
1598.3000, -64.380
1598.3200, -64.417
1598.3400, -64.452
1598.3600, -64.456
1598.3800, -64.427
1598.4000, -64.441
1598.4200, -64.390
1598.4400, -64.601
1598.4600, -64.362
1598.4800, -64.437
1598.5000, -64.471
1598.5200, -64.458
1598.5400, -64.469
1598.5600, -64.469
1598.5800, -64.455
1598.6000, -64.522
1598.6200, -64.473
1598.6400, -64.514
1598.6600, -64.467
1598.6800, -64.514
1598.7000, -64.505
1598.7200, -64.566
1598.7400, -64.430
1598.7600, -64.528
1598.7800, -64.533
1598.8000, -64.530
1598.8200, -64.564
1598.8400, -64.477
1598.8600, -64.502
1598.8800, -64.557
1598.9000, -64.625
1598.9200, -64.580
1598.9400, -64.571
1598.9600, -64.599
1598.9800, -64.594
1599.0000, -64.605
1599.0200, -64.490
1599.0400, -64.553
1599.0600, -64.598
1599.0800, -64.526
1599.1000, -64.625
1599.1200, -64.551
1599.1400, -64.637
1599.1600, -64.541
1599.1800, -64.517
1599.2000, -64.597
1599.2200, -64.521
1599.2400, -64.642
1599.2600, -64.644
1599.2800, -64.645
1599.3000, -64.613
1599.3200, -64.693
1599.3400, -64.555
1599.3600, -64.684
1599.3800, -64.655
1599.4000, -64.631
1599.4200, -64.573
1599.4400, -64.666
1599.4600, -64.620
1599.4800, -64.596
1599.5000, -64.635
1599.5200, -64.670
1599.5400, -64.632
1599.5600, -64.696
1599.5800, -64.594
1599.6000, -64.704
1599.6200, -64.673
1599.6400, -64.686
1599.6600, -64.718
1599.6800, -64.718
1599.7000, -64.693
1599.7200, -64.813
1599.7400, -64.658
1599.7600, -64.655
1599.7800, -64.775
1599.8000, -64.681
1599.8200, -64.758
1599.8400, -64.701
1599.8600, -64.796
1599.8800, -64.628
1599.9000, -64.733
1599.9200, -64.716
1599.9400, -64.722
1599.9600, -64.744
1599.9800, -64.814
1600.0000, -64.664
