70BCSV 	
// AQ6370B OPTICAL SPECTRUM ANALYZER //                 
25
"CTRWL",1550.000000
"SPAN", 100.000000
"START WL",1500.000000
"STOP WL",1600.000000
"WLFREQ", 0
"REFL",-62.8
"LSCL", 5.0
"RESLN",0.100
"AVG",   1
"SMPLAUTO",      0
"SMPL",       5001
"SMPLINTVL",0.0200
"HIGH1"
"MEAS"
"LSUNT",0
"NMSKH","OFF"
"RESCOR",0
"RESPARM", 9050
"FREQPARM", 9050






"[TRACE DATA]"
1500.0000, -70.346
1500.0200, -70.336
1500.0400, -70.079
1500.0600, -70.383
1500.0800, -70.124
1500.1000, -70.399
1500.1200, -70.011
1500.1400, -70.427
1500.1600, -70.030
1500.1800, -70.382
1500.2000, -70.273
1500.2200, -70.160
1500.2400, -70.499
1500.2600, -70.426
1500.2800, -70.283
1500.3000, -70.273
1500.3200, -70.054
1500.3400, -70.563
1500.3600, -70.027
1500.3800, -70.388
1500.4000, -70.247
1500.4200, -70.307
1500.4400, -70.173
1500.4600, -70.299
1500.4800, -70.179
1500.5000, -70.206
1500.5200, -70.251
1500.5400, -70.154
1500.5600, -70.279
1500.5800, -70.430
1500.6000, -70.123
1500.6200, -70.091
1500.6400, -70.536
1500.6600, -70.031
1500.6800, -70.332
1500.7000, -70.110
1500.7200, -70.237
1500.7400, -70.020
1500.7600, -69.996
1500.7800, -70.240
1500.8000, -69.931
1500.8200, -70.277
1500.8400, -70.074
1500.8600, -69.998
1500.8800, -70.197
1500.9000, -70.333
1500.9200, -69.907
1500.9400, -70.255
1500.9600, -70.148
1500.9800, -70.187
1501.0000, -69.901
1501.0200, -70.158
1501.0400, -69.974
1501.0600, -70.154
1501.0800, -70.126
1501.1000, -70.039
1501.1200, -70.108
1501.1400, -70.172
1501.1600, -70.306
1501.1800, -69.916
1501.2000, -70.100
1501.2200, -70.137
1501.2400, -70.239
1501.2600, -70.115
1501.2800, -70.141
1501.3000, -70.192
1501.3200, -70.233
1501.3400, -70.210
1501.3600, -70.154
1501.3800, -70.337
1501.4000, -70.010
1501.4200, -70.019
1501.4400, -70.181
1501.4600, -70.324
1501.4800, -69.974
1501.5000, -69.935
1501.5200, -70.035
1501.5400, -70.365
1501.5600, -69.982
1501.5800, -70.329
1501.6000, -70.119
1501.6200, -69.904
1501.6400, -70.180
1501.6600, -70.054
1501.6800, -70.167
1501.7000, -69.910
1501.7200, -70.365
1501.7400, -69.781
1501.7600, -69.915
1501.7800, -69.818
1501.8000, -70.044
1501.8200, -69.916
1501.8400, -69.990
1501.8600, -69.965
1501.8800, -70.030
1501.9000, -70.116
1501.9200, -69.910
1501.9400, -70.036
1501.9600, -69.995
1501.9800, -69.842
1502.0000, -70.084
1502.0200, -69.960
1502.0400, -69.938
1502.0600, -69.894
1502.0800, -69.988
1502.1000, -70.072
1502.1200, -70.228
1502.1400, -69.857
1502.1600, -69.928
1502.1800, -69.899
1502.2000, -69.904
1502.2200, -69.865
1502.2400, -70.234
1502.2600, -70.002
1502.2800, -70.051
1502.3000, -70.021
1502.3200, -70.027
1502.3400, -69.865
1502.3600, -69.905
1502.3800, -70.201
1502.4000, -69.811
1502.4200, -69.850
1502.4400, -69.905
1502.4600, -70.136
1502.4800, -69.971
1502.5000, -69.825
1502.5200, -69.960
1502.5400, -69.839
1502.5600, -69.815
1502.5800, -69.959
1502.6000, -69.926
1502.6200, -69.915
1502.6400, -69.764
1502.6600, -70.031
1502.6800, -69.931
1502.7000, -69.974
1502.7200, -69.832
1502.7400, -69.771
1502.7600, -69.732
1502.7800, -69.921
1502.8000, -69.821
1502.8200, -69.805
1502.8400, -69.775
1502.8600, -69.804
1502.8800, -70.015
1502.9000, -69.665
1502.9200, -69.776
1502.9400, -69.887
1502.9600, -69.537
1502.9800, -69.868
1503.0000, -69.808
1503.0200, -69.740
1503.0400, -69.756
1503.0600, -69.745
1503.0800, -69.932
1503.1000, -69.900
1503.1200, -69.839
1503.1400, -69.803
1503.1600, -69.890
1503.1800, -69.893
1503.2000, -69.889
1503.2200, -69.824
1503.2400, -69.859
1503.2600, -69.933
1503.2800, -69.858
1503.3000, -69.935
1503.3200, -69.736
1503.3400, -69.841
1503.3600, -69.890
1503.3800, -69.877
1503.4000, -69.670
1503.4200, -69.714
1503.4400, -69.746
1503.4600, -69.750
1503.4800, -69.737
1503.5000, -69.810
1503.5200, -69.716
1503.5400, -70.027
1503.5600, -69.627
1503.5800, -69.546
1503.6000, -69.666
1503.6200, -69.752
1503.6400, -69.683
1503.6600, -69.618
1503.6800, -69.541
1503.7000, -69.791
1503.7200, -69.573
1503.7400, -69.647
1503.7600, -69.726
1503.7800, -69.563
1503.8000, -69.626
1503.8200, -69.641
1503.8400, -69.459
1503.8600, -69.724
1503.8800, -69.621
1503.9000, -69.990
1503.9200, -69.550
1503.9400, -69.507
1503.9600, -69.653
1503.9800, -69.633
1504.0000, -69.630
1504.0200, -69.820
1504.0400, -69.783
1504.0600, -69.757
1504.0800, -69.629
1504.1000, -69.759
1504.1200, -69.635
1504.1400, -69.556
1504.1600, -69.659
1504.1800, -69.840
1504.2000, -69.754
1504.2200, -69.854
1504.2400, -69.706
1504.2600, -69.692
1504.2800, -69.669
1504.3000, -69.660
1504.3200, -69.659
1504.3400, -69.720
1504.3600, -69.646
1504.3800, -69.566
1504.4000, -69.595
1504.4200, -69.847
1504.4400, -69.623
1504.4600, -69.403
1504.4800, -69.695
1504.5000, -69.642
1504.5200, -69.600
1504.5400, -69.506
1504.5600, -69.645
1504.5800, -69.649
1504.6000, -69.342
1504.6200, -69.302
1504.6400, -69.570
1504.6600, -69.489
1504.6800, -69.501
1504.7000, -69.580
1504.7200, -69.411
1504.7400, -69.395
1504.7600, -69.526
1504.7800, -69.417
1504.8000, -69.396
1504.8200, -69.630
1504.8400, -69.342
1504.8600, -69.515
1504.8800, -69.481
1504.9000, -69.688
1504.9200, -69.528
1504.9400, -69.485
1504.9600, -69.289
1504.9800, -69.585
1505.0000, -69.464
1505.0200, -69.544
1505.0400, -69.481
1505.0600, -69.334
1505.0800, -69.655
1505.1000, -69.506
1505.1200, -69.483
1505.1400, -69.571
1505.1600, -69.541
1505.1800, -69.739
1505.2000, -69.337
1505.2200, -69.450
1505.2400, -69.564
1505.2600, -69.502
1505.2800, -69.450
1505.3000, -69.605
1505.3200, -69.552
1505.3400, -69.419
1505.3600, -69.553
1505.3800, -69.353
1505.4000, -69.462
1505.4200, -69.433
1505.4400, -69.315
1505.4600, -69.450
1505.4800, -69.367
1505.5000, -69.313
1505.5200, -69.374
1505.5400, -69.502
1505.5600, -69.443
1505.5800, -69.149
1505.6000, -69.316
1505.6200, -69.344
1505.6400, -69.166
1505.6600, -69.412
1505.6800, -69.325
1505.7000, -69.255
1505.7200, -69.250
1505.7400, -69.168
1505.7600, -69.241
1505.7800, -69.213
1505.8000, -69.313
1505.8200, -69.292
1505.8400, -69.227
1505.8600, -69.316
1505.8800, -69.274
1505.9000, -69.177
1505.9200, -69.292
1505.9400, -69.293
1505.9600, -69.342
1505.9800, -69.459
1506.0000, -69.167
1506.0200, -69.413
1506.0400, -69.263
1506.0600, -69.234
1506.0800, -69.400
1506.1000, -69.343
1506.1200, -69.457
1506.1400, -69.386
1506.1600, -69.441
1506.1800, -69.321
1506.2000, -69.403
1506.2200, -69.228
1506.2400, -69.314
1506.2600, -69.299
1506.2800, -69.245
1506.3000, -69.329
1506.3200, -69.377
1506.3400, -69.388
1506.3600, -69.019
1506.3800, -69.436
1506.4000, -69.173
1506.4200, -69.465
1506.4400, -69.236
1506.4600, -69.233
1506.4800, -69.343
1506.5000, -69.110
1506.5200, -69.232
1506.5400, -69.143
1506.5600, -69.273
1506.5800, -69.075
1506.6000, -69.241
1506.6200, -69.271
1506.6400, -69.055
1506.6600, -69.265
1506.6800, -69.012
1506.7000, -69.114
1506.7200, -69.148
1506.7400, -69.209
1506.7600, -69.151
1506.7800, -69.121
1506.8000, -69.047
1506.8200, -69.286
1506.8400, -69.162
1506.8600, -69.116
1506.8800, -69.165
1506.9000, -69.121
1506.9200, -69.118
1506.9400, -69.054
1506.9600, -69.122
1506.9800, -69.311
1507.0000, -69.237
1507.0200, -68.996
1507.0400, -69.257
1507.0600, -69.330
1507.0800, -69.223
1507.1000, -69.231
1507.1200, -69.248
1507.1400, -69.033
1507.1600, -69.228
1507.1800, -69.370
1507.2000, -69.055
1507.2200, -69.264
1507.2400, -69.132
1507.2600, -69.164
1507.2800, -69.141
1507.3000, -69.028
1507.3200, -69.025
1507.3400, -69.105
1507.3600, -69.025
1507.3800, -69.142
1507.4000, -69.124
1507.4200, -69.123
1507.4400, -69.144
1507.4600, -69.039
1507.4800, -68.976
1507.5000, -68.853
1507.5200, -68.986
1507.5400, -69.138
1507.5600, -68.937
1507.5800, -69.056
1507.6000, -68.883
1507.6200, -68.823
1507.6400, -69.012
1507.6600, -68.893
1507.6800, -68.974
1507.7000, -68.869
1507.7200, -68.905
1507.7400, -69.012
1507.7600, -69.012
1507.7800, -69.069
1507.8000, -69.090
1507.8200, -68.841
1507.8400, -69.020
1507.8600, -69.062
1507.8800, -69.005
1507.9000, -68.885
1507.9200, -69.084
1507.9400, -69.055
1507.9600, -68.996
1507.9800, -69.062
1508.0000, -68.961
1508.0200, -69.030
1508.0400, -69.085
1508.0600, -69.056
1508.0800, -69.227
1508.1000, -68.964
1508.1200, -68.871
1508.1400, -69.119
1508.1600, -68.925
1508.1800, -68.901
1508.2000, -69.062
1508.2200, -68.867
1508.2400, -68.917
1508.2600, -69.040
1508.2800, -68.942
1508.3000, -68.930
1508.3200, -68.919
1508.3400, -68.968
1508.3600, -68.896
1508.3800, -68.947
1508.4000, -69.059
1508.4200, -68.595
1508.4400, -68.945
1508.4600, -68.870
1508.4800, -68.946
1508.5000, -68.971
1508.5200, -68.869
1508.5400, -68.664
1508.5600, -68.763
1508.5800, -68.643
1508.6000, -68.951
1508.6200, -68.778
1508.6400, -68.922
1508.6600, -68.772
1508.6800, -68.842
1508.7000, -68.745
1508.7200, -68.813
1508.7400, -69.046
1508.7600, -68.710
1508.7800, -68.858
1508.8000, -68.730
1508.8200, -68.847
1508.8400, -68.991
1508.8600, -68.813
1508.8800, -68.834
1508.9000, -68.984
1508.9200, -68.756
1508.9400, -68.980
1508.9600, -68.962
1508.9800, -69.010
1509.0000, -68.810
1509.0200, -68.792
1509.0400, -68.903
1509.0600, -68.864
1509.0800, -68.973
1509.1000, -68.784
1509.1200, -68.845
1509.1400, -68.877
1509.1600, -68.922
1509.1800, -68.961
1509.2000, -68.614
1509.2200, -68.824
1509.2400, -68.809
1509.2600, -68.714
1509.2800, -68.795
1509.3000, -68.725
1509.3200, -68.665
1509.3400, -68.879
1509.3600, -68.648
1509.3800, -68.664
1509.4000, -68.667
1509.4200, -68.558
1509.4400, -68.665
1509.4600, -68.645
1509.4800, -68.656
1509.5000, -68.686
1509.5200, -68.490
1509.5400, -68.725
1509.5600, -68.864
1509.5800, -68.647
1509.6000, -68.596
1509.6200, -68.678
1509.6400, -68.584
1509.6600, -68.691
1509.6800, -68.612
1509.7000, -68.565
1509.7200, -68.718
1509.7400, -68.684
1509.7600, -68.723
1509.7800, -68.558
1509.8000, -68.708
1509.8200, -68.683
1509.8400, -68.722
1509.8600, -68.791
1509.8800, -68.737
1509.9000, -68.785
1509.9200, -68.710
1509.9400, -68.713
1509.9600, -68.685
1509.9800, -68.835
1510.0000, -68.868
1510.0200, -68.765
1510.0400, -68.631
1510.0600, -68.757
1510.0800, -68.705
1510.1000, -68.610
1510.1200, -68.590
1510.1400, -68.851
1510.1600, -68.653
1510.1800, -68.834
1510.2000, -68.546
1510.2200, -68.652
1510.2400, -68.554
1510.2600, -68.653
1510.2800, -68.645
1510.3000, -68.597
1510.3200, -68.371
1510.3400, -68.699
1510.3600, -68.561
1510.3800, -68.442
1510.4000, -68.454
1510.4200, -68.529
1510.4400, -68.499
1510.4600, -68.571
1510.4800, -68.409
1510.5000, -68.438
1510.5200, -68.455
1510.5400, -68.497
1510.5600, -68.525
1510.5800, -68.447
1510.6000, -68.483
1510.6200, -68.465
1510.6400, -68.511
1510.6600, -68.528
1510.6800, -68.549
1510.7000, -68.465
1510.7200, -68.529
1510.7400, -68.493
1510.7600, -68.702
1510.7800, -68.506
1510.8000, -68.528
1510.8200, -68.497
1510.8400, -68.450
1510.8600, -68.578
1510.8800, -68.586
1510.9000, -68.605
1510.9200, -68.480
1510.9400, -68.716
1510.9600, -68.368
1510.9800, -68.535
1511.0000, -68.466
1511.0200, -68.492
1511.0400, -68.398
1511.0600, -68.456
1511.0800, -68.495
1511.1000, -68.534
1511.1200, -68.448
1511.1400, -68.422
1511.1600, -68.406
1511.1800, -68.341
1511.2000, -68.304
1511.2200, -68.394
1511.2400, -68.455
1511.2600, -68.312
1511.2800, -68.316
1511.3000, -68.283
1511.3200, -68.281
1511.3400, -68.283
1511.3600, -68.351
1511.3800, -68.241
1511.4000, -68.375
1511.4200, -68.189
1511.4400, -68.385
1511.4600, -68.158
1511.4800, -68.276
1511.5000, -68.222
1511.5200, -68.326
1511.5400, -68.209
1511.5600, -68.270
1511.5800, -68.243
1511.6000, -68.260
1511.6200, -68.165
1511.6400, -68.213
1511.6600, -68.309
1511.6800, -68.323
1511.7000, -68.284
1511.7200, -68.423
1511.7400, -68.255
1511.7600, -68.286
1511.7800, -68.180
1511.8000, -68.310
1511.8200, -68.491
1511.8400, -68.354
1511.8600, -68.241
1511.8800, -68.213
1511.9000, -68.403
1511.9200, -68.256
1511.9400, -68.292
1511.9600, -68.421
1511.9800, -68.174
1512.0000, -68.245
1512.0200, -68.177
1512.0400, -68.351
1512.0600, -68.211
1512.0800, -68.043
1512.1000, -68.181
1512.1200, -68.272
1512.1400, -68.279
1512.1600, -68.023
1512.1800, -68.135
1512.2000, -68.196
1512.2200, -68.146
1512.2400, -68.251
1512.2600, -68.015
1512.2800, -68.047
1512.3000, -68.074
1512.3200, -68.032
1512.3400, -68.001
1512.3600, -67.960
1512.3800, -68.112
1512.4000, -68.146
1512.4200, -67.888
1512.4400, -68.154
1512.4600, -68.087
1512.4800, -67.956
1512.5000, -68.121
1512.5200, -67.962
1512.5400, -68.029
1512.5600, -68.043
1512.5800, -68.092
1512.6000, -68.045
1512.6200, -68.135
1512.6400, -68.085
1512.6600, -68.139
1512.6800, -68.135
1512.7000, -68.079
1512.7200, -68.103
1512.7400, -68.359
1512.7600, -67.979
1512.7800, -68.162
1512.8000, -68.092
1512.8200, -68.141
1512.8400, -68.054
1512.8600, -68.115
1512.8800, -68.084
1512.9000, -68.185
1512.9200, -68.210
1512.9400, -68.071
1512.9600, -68.042
1512.9800, -68.098
1513.0000, -68.081
1513.0200, -68.170
1513.0400, -67.858
1513.0600, -67.904
1513.0800, -67.930
1513.1000, -67.963
1513.1200, -67.954
1513.1400, -67.939
1513.1600, -67.973
1513.1800, -67.933
1513.2000, -67.861
1513.2200, -67.880
1513.2400, -67.968
1513.2600, -67.661
1513.2800, -67.870
1513.3000, -67.809
1513.3200, -67.893
1513.3400, -67.949
1513.3600, -67.773
1513.3800, -67.768
1513.4000, -67.873
1513.4200, -67.693
1513.4400, -67.814
1513.4600, -67.955
1513.4800, -67.713
1513.5000, -67.807
1513.5200, -67.784
1513.5400, -67.850
1513.5600, -67.871
1513.5800, -67.892
1513.6000, -68.054
1513.6200, -67.823
1513.6400, -67.959
1513.6600, -68.053
1513.6800, -67.758
1513.7000, -67.952
1513.7200, -67.742
1513.7400, -67.927
1513.7600, -67.889
1513.7800, -67.829
1513.8000, -67.898
1513.8200, -67.893
1513.8400, -67.877
1513.8600, -67.854
1513.8800, -67.807
1513.9000, -67.749
1513.9200, -67.799
1513.9400, -67.902
1513.9600, -67.723
1513.9800, -67.775
1514.0000, -67.712
1514.0200, -67.769
1514.0400, -67.717
1514.0600, -67.736
1514.0800, -67.755
1514.1000, -67.688
1514.1200, -67.605
1514.1400, -67.725
1514.1600, -67.720
1514.1800, -67.760
1514.2000, -67.614
1514.2200, -67.686
1514.2400, -67.510
1514.2600, -67.477
1514.2800, -67.613
1514.3000, -67.680
1514.3200, -67.685
1514.3400, -67.571
1514.3600, -67.578
1514.3800, -67.576
1514.4000, -67.665
1514.4200, -67.586
1514.4400, -67.665
1514.4600, -67.661
1514.4800, -67.619
1514.5000, -67.652
1514.5200, -67.712
1514.5400, -67.695
1514.5600, -67.654
1514.5800, -67.606
1514.6000, -67.718
1514.6200, -67.690
1514.6400, -67.595
1514.6600, -67.676
1514.6800, -67.640
1514.7000, -67.834
1514.7200, -67.522
1514.7400, -67.728
1514.7600, -67.761
1514.7800, -67.467
1514.8000, -67.639
1514.8200, -67.587
1514.8400, -67.709
1514.8600, -67.555
1514.8800, -67.557
1514.9000, -67.602
1514.9200, -67.626
1514.9400, -67.493
1514.9600, -67.497
1514.9800, -67.428
1515.0000, -67.378
1515.0200, -67.422
1515.0400, -67.493
1515.0600, -67.448
1515.0800, -67.452
1515.1000, -67.475
1515.1200, -67.374
1515.1400, -67.437
1515.1600, -67.458
1515.1800, -67.326
1515.2000, -67.296
1515.2200, -67.310
1515.2400, -67.370
1515.2600, -67.412
1515.2800, -67.251
1515.3000, -67.349
1515.3200, -67.354
1515.3400, -67.451
1515.3600, -67.436
1515.3800, -67.293
1515.4000, -67.429
1515.4200, -67.365
1515.4400, -67.355
1515.4600, -67.279
1515.4800, -67.469
1515.5000, -67.527
1515.5200, -67.230
1515.5400, -67.597
1515.5600, -67.435
1515.5800, -67.270
1515.6000, -67.443
1515.6200, -67.604
1515.6400, -67.471
1515.6600, -67.425
1515.6800, -67.507
1515.7000, -67.481
1515.7200, -67.426
1515.7400, -67.149
1515.7600, -67.400
1515.7800, -67.368
1515.8000, -67.329
1515.8200, -67.333
1515.8400, -67.464
1515.8600, -67.170
1515.8800, -67.275
1515.9000, -67.209
1515.9200, -67.273
1515.9400, -67.157
1515.9600, -67.244
1515.9800, -67.228
1516.0000, -67.220
1516.0200, -67.152
1516.0400, -67.164
1516.0600, -67.165
1516.0800, -67.100
1516.1000, -67.141
1516.1200, -67.124
1516.1400, -67.144
1516.1600, -67.003
1516.1800, -67.123
1516.2000, -67.043
1516.2200, -67.091
1516.2400, -67.079
1516.2600, -67.016
1516.2800, -66.964
1516.3000, -67.192
1516.3200, -67.064
1516.3400, -67.102
1516.3600, -67.110
1516.3800, -67.157
1516.4000, -67.052
1516.4200, -67.163
1516.4400, -67.138
1516.4600, -67.244
1516.4800, -67.045
1516.5000, -67.159
1516.5200, -67.136
1516.5400, -67.208
1516.5600, -67.002
1516.5800, -67.294
1516.6000, -67.103
1516.6200, -67.115
1516.6400, -67.246
1516.6600, -66.981
1516.6800, -67.078
1516.7000, -67.117
1516.7200, -67.180
1516.7400, -67.087
1516.7600, -67.018
1516.7800, -66.982
1516.8000, -66.995
1516.8200, -67.004
1516.8400, -66.912
1516.8600, -66.981
1516.8800, -66.887
1516.9000, -66.900
1516.9200, -66.863
1516.9400, -66.963
1516.9600, -66.889
1516.9800, -66.820
1517.0000, -66.887
1517.0200, -66.933
1517.0400, -66.657
1517.0600, -66.732
1517.0800, -66.803
1517.1000, -66.771
1517.1200, -66.773
1517.1400, -66.804
1517.1600, -66.778
1517.1800, -66.706
1517.2000, -66.733
1517.2200, -66.797
1517.2400, -66.729
1517.2600, -66.808
1517.2800, -66.663
1517.3000, -66.773
1517.3200, -66.916
1517.3400, -66.706
1517.3600, -66.739
1517.3800, -66.846
1517.4000, -66.787
1517.4200, -66.876
1517.4400, -66.940
1517.4600, -66.791
1517.4800, -66.823
1517.5000, -66.833
1517.5200, -66.803
1517.5400, -66.819
1517.5600, -66.773
1517.5800, -66.700
1517.6000, -66.838
1517.6200, -66.807
1517.6400, -66.910
1517.6600, -66.688
1517.6800, -66.644
1517.7000, -66.655
1517.7200, -66.756
1517.7400, -66.601
1517.7600, -66.665
1517.7800, -66.612
1517.8000, -66.562
1517.8200, -66.582
1517.8400, -66.558
1517.8600, -66.645
1517.8800, -66.513
1517.9000, -66.460
1517.9200, -66.477
1517.9400, -66.495
1517.9600, -66.410
1517.9800, -66.461
1518.0000, -66.496
1518.0200, -66.429
1518.0400, -66.446
1518.0600, -66.498
1518.0800, -66.315
1518.1000, -66.395
1518.1200, -66.320
1518.1400, -66.519
1518.1600, -66.329
1518.1800, -66.508
1518.2000, -66.407
1518.2200, -66.396
1518.2400, -66.333
1518.2600, -66.425
1518.2800, -66.451
1518.3000, -66.402
1518.3200, -66.452
1518.3400, -66.543
1518.3600, -66.400
1518.3800, -66.540
1518.4000, -66.444
1518.4200, -66.430
1518.4400, -66.500
1518.4600, -66.444
1518.4800, -66.487
1518.5000, -66.426
1518.5200, -66.390
1518.5400, -66.408
1518.5600, -66.399
1518.5800, -66.343
1518.6000, -66.349
1518.6200, -66.348
1518.6400, -66.307
1518.6600, -66.296
1518.6800, -66.259
1518.7000, -66.267
1518.7200, -66.274
1518.7400, -66.221
1518.7600, -66.228
1518.7800, -66.130
1518.8000, -66.196
1518.8200, -66.145
1518.8400, -66.264
1518.8600, -66.143
1518.8800, -66.044
1518.9000, -66.124
1518.9200, -66.108
1518.9400, -66.014
1518.9600, -66.050
1518.9800, -65.925
1519.0000, -65.964
1519.0200, -66.026
1519.0400, -66.008
1519.0600, -66.011
1519.0800, -65.967
1519.1000, -65.971
1519.1200, -66.007
1519.1400, -65.990
1519.1600, -66.003
1519.1800, -66.055
1519.2000, -65.989
1519.2200, -66.057
1519.2400, -66.049
1519.2600, -66.110
1519.2800, -66.047
1519.3000, -66.051
1519.3200, -65.979
1519.3400, -66.029
1519.3600, -66.054
1519.3800, -66.047
1519.4000, -66.062
1519.4200, -66.043
1519.4400, -65.938
1519.4600, -66.011
1519.4800, -65.910
1519.5000, -66.004
1519.5200, -66.007
1519.5400, -65.896
1519.5600, -65.926
1519.5800, -65.939
1519.6000, -65.751
1519.6200, -65.823
1519.6400, -65.911
1519.6600, -65.791
1519.6800, -65.735
1519.7000, -65.694
1519.7200, -65.670
1519.7400, -65.715
1519.7600, -65.691
1519.7800, -65.632
1519.8000, -65.658
1519.8200, -65.636
1519.8400, -65.576
1519.8600, -65.576
1519.8800, -65.558
1519.9000, -65.509
1519.9200, -65.553
1519.9400, -65.539
1519.9600, -65.542
1519.9800, -65.434
1520.0000, -65.496
1520.0200, -65.535
1520.0400, -65.497
1520.0600, -65.492
1520.0800, -65.527
1520.1000, -65.461
1520.1200, -65.495
1520.1400, -65.510
1520.1600, -65.605
1520.1800, -65.603
1520.2000, -65.423
1520.2200, -65.649
1520.2400, -65.513
1520.2600, -65.607
1520.2800, -65.480
1520.3000, -65.535
1520.3200, -65.631
1520.3400, -65.511
1520.3600, -65.445
1520.3800, -65.552
1520.4000, -65.429
1520.4200, -65.519
1520.4400, -65.355
1520.4600, -65.478
1520.4800, -65.367
1520.5000, -65.403
1520.5200, -65.308
1520.5400, -65.320
1520.5600, -65.303
1520.5800, -65.283
1520.6000, -65.207
1520.6200, -65.200
1520.6400, -65.182
1520.6600, -65.185
1520.6800, -65.212
1520.7000, -65.109
1520.7200, -65.122
1520.7400, -65.057
1520.7600, -65.055
1520.7800, -65.007
1520.8000, -65.050
1520.8200, -64.998
1520.8400, -64.934
1520.8600, -65.029
1520.8800, -64.899
1520.9000, -64.921
1520.9200, -64.988
1520.9400, -64.891
1520.9600, -64.947
1520.9800, -64.911
1521.0000, -64.938
1521.0200, -64.919
1521.0400, -64.913
1521.0600, -64.916
1521.0800, -64.946
1521.1000, -64.991
1521.1200, -64.928
1521.1400, -65.022
1521.1600, -64.977
1521.1800, -64.933
1521.2000, -64.925
1521.2200, -64.995
1521.2400, -64.945
1521.2600, -64.936
1521.2800, -64.955
1521.3000, -64.883
1521.3200, -64.887
1521.3400, -64.845
1521.3600, -64.850
1521.3800, -64.846
1521.4000, -64.836
1521.4200, -64.790
1521.4400, -64.768
1521.4600, -64.729
1521.4800, -64.708
1521.5000, -64.705
1521.5200, -64.679
1521.5400, -64.645
1521.5600, -64.546
1521.5800, -64.585
1521.6000, -64.644
1521.6200, -64.517
1521.6400, -64.496
1521.6600, -64.504
1521.6800, -64.441
1521.7000, -64.395
1521.7200, -64.382
1521.7400, -64.437
1521.7600, -64.371
1521.7800, -64.282
1521.8000, -64.315
1521.8200, -64.303
1521.8400, -64.295
1521.8600, -64.308
1521.8800, -64.259
1521.9000, -64.288
1521.9200, -64.299
1521.9400, -64.328
1521.9600, -64.300
1521.9800, -64.243
1522.0000, -64.284
1522.0200, -64.305
1522.0400, -64.354
1522.0600, -64.343
1522.0800, -64.329
1522.1000, -64.378
1522.1200, -64.375
1522.1400, -64.335
1522.1600, -64.362
1522.1800, -64.391
1522.2000, -64.305
1522.2200, -64.382
1522.2400, -64.317
1522.2600, -64.294
1522.2800, -64.255
1522.3000, -64.247
1522.3200, -64.262
1522.3400, -64.236
1522.3600, -64.175
1522.3800, -64.155
1522.4000, -64.140
1522.4200, -64.111
1522.4400, -64.035
1522.4600, -64.032
1522.4800, -63.999
1522.5000, -63.957
1522.5200, -63.967
1522.5400, -63.981
1522.5600, -63.930
1522.5800, -63.914
1522.6000, -63.851
1522.6200, -63.845
1522.6400, -63.786
1522.6600, -63.811
1522.6800, -63.765
1522.7000, -63.845
1522.7200, -63.680
1522.7400, -63.690
1522.7600, -63.720
1522.7800, -63.684
1522.8000, -63.707
1522.8200, -63.693
1522.8400, -63.717
1522.8600, -63.705
1522.8800, -63.680
1522.9000, -63.704
1522.9200, -63.747
1522.9400, -63.709
1522.9600, -63.763
1522.9800, -63.782
1523.0000, -63.755
1523.0200, -63.785
1523.0400, -63.798
1523.0600, -63.811
1523.0800, -63.766
1523.1000, -63.801
1523.1200, -63.819
1523.1400, -63.764
1523.1600, -63.753
1523.1800, -63.699
1523.2000, -63.775
1523.2200, -63.697
1523.2400, -63.730
1523.2600, -63.751
1523.2800, -63.682
1523.3000, -63.680
1523.3200, -63.601
1523.3400, -63.608
1523.3600, -63.521
1523.3800, -63.583
1523.4000, -63.437
1523.4200, -63.471
1523.4400, -63.421
1523.4600, -63.475
1523.4800, -63.479
1523.5000, -63.409
1523.5200, -63.398
1523.5400, -63.360
1523.5600, -63.317
1523.5800, -63.228
1523.6000, -63.313
1523.6200, -63.274
1523.6400, -63.233
1523.6600, -63.234
1523.6800, -63.214
1523.7000, -63.183
1523.7200, -63.223
1523.7400, -63.211
1523.7600, -63.252
1523.7800, -63.226
1523.8000, -63.251
1523.8200, -63.238
1523.8400, -63.222
1523.8600, -63.302
1523.8800, -63.244
1523.9000, -63.329
1523.9200, -63.411
1523.9400, -63.307
1523.9600, -63.327
1523.9800, -63.351
1524.0000, -63.421
1524.0200, -63.375
1524.0400, -63.365
1524.0600, -63.396
1524.0800, -63.382
1524.1000, -63.306
1524.1200, -63.308
1524.1400, -63.324
1524.1600, -63.358
1524.1800, -63.309
1524.2000, -63.358
1524.2200, -63.253
1524.2400, -63.290
1524.2600, -63.191
1524.2800, -63.232
1524.3000, -63.151
1524.3200, -63.123
1524.3400, -63.121
1524.3600, -63.092
1524.3800, -63.123
1524.4000, -63.078
1524.4200, -63.095
1524.4400, -63.046
1524.4600, -63.028
1524.4800, -62.972
1524.5000, -62.972
1524.5200, -62.935
1524.5400, -62.925
1524.5600, -62.949
1524.5800, -62.890
1524.6000, -62.879
1524.6200, -62.840
1524.6400, -62.869
1524.6600, -62.879
1524.6800, -62.882
1524.7000, -62.895
1524.7200, -62.928
1524.7400, -62.927
1524.7600, -62.908
1524.7800, -62.929
1524.8000, -62.958
1524.8200, -62.996
1524.8400, -63.041
1524.8600, -63.053
1524.8800, -63.103
1524.9000, -63.075
1524.9200, -63.040
1524.9400, -63.092
1524.9600, -63.059
1524.9800, -63.135
1525.0000, -63.132
1525.0200, -63.050
1525.0400, -63.012
1525.0600, -63.090
1525.0800, -62.996
1525.1000, -63.106
1525.1200, -63.040
1525.1400, -63.023
1525.1600, -62.991
1525.1800, -62.978
1525.2000, -62.943
1525.2200, -62.921
1525.2400, -62.870
1525.2600, -62.839
1525.2800, -62.823
1525.3000, -62.829
1525.3200, -62.782
1525.3400, -62.796
1525.3600, -62.806
1525.3800, -62.809
1525.4000, -62.751
1525.4200, -62.707
1525.4400, -62.633
1525.4600, -62.619
1525.4800, -62.620
1525.5000, -62.622
1525.5200, -62.598
1525.5400, -62.590
1525.5600, -62.600
1525.5800, -62.623
1525.6000, -62.609
1525.6200, -62.611
1525.6400, -62.675
1525.6600, -62.641
1525.6800, -62.642
1525.7000, -62.682
1525.7200, -62.692
1525.7400, -62.688
1525.7600, -62.738
1525.7800, -62.802
1525.8000, -62.747
1525.8200, -62.778
1525.8400, -62.806
1525.8600, -62.753
1525.8800, -62.849
1525.9000, -62.845
1525.9200, -62.822
1525.9400, -62.815
1525.9600, -62.767
1525.9800, -62.828
1526.0000, -62.794
1526.0200, -62.775
1526.0400, -62.810
1526.0600, -62.774
1526.0800, -62.700
1526.1000, -62.759
1526.1200, -62.661
1526.1400, -62.641
1526.1600, -62.611
1526.1800, -62.570
1526.2000, -62.550
1526.2200, -62.487
1526.2400, -62.525
1526.2600, -62.529
1526.2800, -62.472
1526.3000, -62.448
1526.3200, -62.487
1526.3400, -62.399
1526.3600, -62.402
1526.3800, -62.355
1526.4000, -62.314
1526.4200, -62.320
1526.4400, -62.250
1526.4600, -62.296
1526.4800, -62.257
1526.5000, -62.295
1526.5200, -62.250
1526.5400, -62.274
1526.5600, -62.326
1526.5800, -62.328
1526.6000, -62.322
1526.6200, -62.355
1526.6400, -62.327
1526.6600, -62.402
1526.6800, -62.395
1526.7000, -62.465
1526.7200, -62.521
1526.7400, -62.436
1526.7600, -62.488
1526.7800, -62.538
1526.8000, -62.510
1526.8200, -62.486
1526.8400, -62.499
1526.8600, -62.517
1526.8800, -62.465
1526.9000, -62.427
1526.9200, -62.473
1526.9400, -62.477
1526.9600, -62.443
1526.9800, -62.467
1527.0000, -62.403
1527.0200, -62.378
1527.0400, -62.394
1527.0600, -62.335
1527.0800, -62.252
1527.1000, -62.256
1527.1200, -62.204
1527.1400, -62.179
1527.1600, -62.172
1527.1800, -62.173
1527.2000, -62.167
1527.2200, -62.096
1527.2400, -62.109
1527.2600, -62.034
1527.2800, -62.079
1527.3000, -61.986
1527.3200, -61.979
1527.3400, -61.969
1527.3600, -61.898
1527.3800, -61.867
1527.4000, -61.925
1527.4200, -61.885
1527.4400, -61.907
1527.4600, -61.905
1527.4800, -61.949
1527.5000, -61.956
1527.5200, -61.994
1527.5400, -61.927
1527.5600, -61.968
1527.5800, -61.998
1527.6000, -61.990
1527.6200, -62.059
1527.6400, -62.090
1527.6600, -62.111
1527.6800, -62.046
1527.7000, -62.106
1527.7200, -62.123
1527.7400, -62.133
1527.7600, -62.165
1527.7800, -62.121
1527.8000, -62.117
1527.8200, -62.053
1527.8400, -62.086
1527.8600, -62.054
1527.8800, -62.089
1527.9000, -62.080
1527.9200, -62.053
1527.9400, -62.008
1527.9600, -61.973
1527.9800, -61.921
1528.0000, -61.899
1528.0200, -61.831
1528.0400, -61.832
1528.0600, -61.778
1528.0800, -61.771
1528.1000, -61.755
1528.1200, -61.776
1528.1400, -61.724
1528.1600, -61.735
1528.1800, -61.681
1528.2000, -61.629
1528.2200, -61.606
1528.2400, -61.570
1528.2600, -61.563
1528.2800, -61.519
1528.3000, -61.463
1528.3200, -61.477
1528.3400, -61.451
1528.3600, -61.466
1528.3800, -61.470
1528.4000, -61.484
1528.4200, -61.494
1528.4400, -61.512
1528.4600, -61.540
1528.4800, -61.535
1528.5000, -61.543
1528.5200, -61.557
1528.5400, -61.610
1528.5600, -61.648
1528.5800, -61.654
1528.6000, -61.648
1528.6200, -61.749
1528.6400, -61.728
1528.6600, -61.673
1528.6800, -61.750
1528.7000, -61.696
1528.7200, -61.671
1528.7400, -61.665
1528.7600, -61.632
1528.7800, -61.642
1528.8000, -61.649
1528.8200, -61.622
1528.8400, -61.653
1528.8600, -61.576
1528.8800, -61.559
1528.9000, -61.526
1528.9200, -61.489
1528.9400, -61.447
1528.9600, -61.418
1528.9800, -61.378
1529.0000, -61.354
1529.0200, -61.341
1529.0400, -61.354
1529.0600, -61.316
1529.0800, -61.283
1529.1000, -61.239
1529.1200, -61.257
1529.1400, -61.134
1529.1600, -61.123
1529.1800, -61.114
1529.2000, -61.118
1529.2200, -61.058
1529.2400, -61.045
1529.2600, -61.092
1529.2800, -61.054
1529.3000, -61.030
1529.3200, -61.069
1529.3400, -61.086
1529.3600, -61.116
1529.3800, -61.125
1529.4000, -61.108
1529.4200, -61.118
1529.4400, -61.144
1529.4600, -61.186
1529.4800, -61.219
1529.5000, -61.249
1529.5200, -61.264
1529.5400, -61.290
1529.5600, -61.299
1529.5800, -61.250
1529.6000, -61.309
1529.6200, -61.350
1529.6400, -61.255
1529.6600, -61.247
1529.6800, -61.247
1529.7000, -61.240
1529.7200, -61.205
1529.7400, -61.265
1529.7600, -61.263
1529.7800, -61.199
1529.8000, -61.122
1529.8200, -61.106
1529.8400, -61.056
1529.8600, -61.055
1529.8800, -60.992
1529.9000, -60.983
1529.9200, -60.941
1529.9400, -60.908
1529.9600, -60.924
1529.9800, -60.915
1530.0000, -60.872
1530.0200, -60.833
1530.0400, -60.764
1530.0600, -60.752
1530.0800, -60.719
1530.1000, -60.688
1530.1200, -60.655
1530.1400, -60.597
1530.1600, -60.627
1530.1800, -60.593
1530.2000, -60.575
1530.2200, -60.624
1530.2400, -60.607
1530.2600, -60.629
1530.2800, -60.694
1530.3000, -60.661
1530.3200, -60.659
1530.3400, -60.697
1530.3600, -60.683
1530.3800, -60.694
1530.4000, -60.782
1530.4200, -60.822
1530.4400, -60.793
1530.4600, -60.846
1530.4800, -60.860
1530.5000, -60.854
1530.5200, -60.853
1530.5400, -60.885
1530.5600, -60.886
1530.5800, -60.844
1530.6000, -60.818
1530.6200, -60.775
1530.6400, -60.791
1530.6600, -60.746
1530.6800, -60.820
1530.7000, -60.791
1530.7200, -60.711
1530.7400, -60.663
1530.7600, -60.625
1530.7800, -60.628
1530.8000, -60.576
1530.8200, -60.521
1530.8400, -60.494
1530.8600, -60.453
1530.8800, -60.474
1530.9000, -60.495
1530.9200, -60.411
1530.9400, -60.393
1530.9600, -60.333
1530.9800, -60.316
1531.0000, -60.266
1531.0200, -60.282
1531.0400, -60.220
1531.0600, -60.222
1531.0800, -60.162
1531.1000, -60.195
1531.1200, -60.174
1531.1400, -60.178
1531.1600, -60.189
1531.1800, -60.171
1531.2000, -60.214
1531.2200, -60.255
1531.2400, -60.234
1531.2600, -60.242
1531.2800, -60.245
1531.3000, -60.273
1531.3200, -60.338
1531.3400, -60.380
1531.3600, -60.389
1531.3800, -60.384
1531.4000, -60.454
1531.4200, -60.419
1531.4400, -60.393
1531.4600, -60.457
1531.4800, -60.437
1531.5000, -60.400
1531.5200, -60.416
1531.5400, -60.364
1531.5600, -60.375
1531.5800, -60.375
1531.6000, -60.361
1531.6200, -60.325
1531.6400, -60.307
1531.6600, -60.263
1531.6800, -60.223
1531.7000, -60.173
1531.7200, -60.166
1531.7400, -60.109
1531.7600, -60.088
1531.7800, -60.024
1531.8000, -60.083
1531.8200, -60.058
1531.8400, -60.051
1531.8600, -59.980
1531.8800, -59.951
1531.9000, -59.922
1531.9200, -59.877
1531.9400, -59.865
1531.9600, -59.852
1531.9800, -59.812
1532.0000, -59.774
1532.0200, -59.807
1532.0400, -59.774
1532.0600, -59.802
1532.0800, -59.776
1532.1000, -59.789
1532.1200, -59.837
1532.1400, -59.838
1532.1600, -59.851
1532.1800, -59.872
1532.2000, -59.882
1532.2200, -59.866
1532.2400, -59.966
1532.2600, -59.986
1532.2800, -59.989
1532.3000, -60.037
1532.3200, -60.048
1532.3400, -60.033
1532.3600, -60.032
1532.3800, -60.074
1532.4000, -60.089
1532.4200, -60.030
1532.4400, -60.046
1532.4600, -59.985
1532.4800, -60.008
1532.5000, -60.009
1532.5200, -60.005
1532.5400, -60.031
1532.5600, -59.924
1532.5800, -59.918
1532.6000, -59.875
1532.6200, -59.840
1532.6400, -59.785
1532.6600, -59.792
1532.6800, -59.738
1532.7000, -59.712
1532.7200, -59.727
1532.7400, -59.724
1532.7600, -59.705
1532.7800, -59.665
1532.8000, -59.607
1532.8200, -59.577
1532.8400, -59.543
1532.8600, -59.515
1532.8800, -59.518
1532.9000, -59.486
1532.9200, -59.453
1532.9400, -59.466
1532.9600, -59.471
1532.9800, -59.464
1533.0000, -59.466
1533.0200, -59.465
1533.0400, -59.501
1533.0600, -59.531
1533.0800, -59.527
1533.1000, -59.532
1533.1200, -59.551
1533.1400, -59.565
1533.1600, -59.626
1533.1800, -59.679
1533.2000, -59.682
1533.2200, -59.706
1533.2400, -59.736
1533.2600, -59.747
1533.2800, -59.762
1533.3000, -59.767
1533.3200, -59.757
1533.3400, -59.792
1533.3600, -59.743
1533.3800, -59.704
1533.4000, -59.718
1533.4200, -59.700
1533.4400, -59.724
1533.4600, -59.712
1533.4800, -59.661
1533.5000, -59.595
1533.5200, -59.564
1533.5400, -59.535
1533.5600, -59.488
1533.5800, -59.480
1533.6000, -59.481
1533.6200, -59.403
1533.6400, -59.446
1533.6600, -59.428
1533.6800, -59.412
1533.7000, -59.356
1533.7200, -59.320
1533.7400, -59.287
1533.7600, -59.279
1533.7800, -59.247
1533.8000, -59.235
1533.8200, -59.228
1533.8400, -59.201
1533.8600, -59.226
1533.8800, -59.195
1533.9000, -59.198
1533.9200, -59.196
1533.9400, -59.209
1533.9600, -59.245
1533.9800, -59.259
1534.0000, -59.262
1534.0200, -59.284
1534.0400, -59.316
1534.0600, -59.301
1534.0800, -59.385
1534.1000, -59.415
1534.1200, -59.438
1534.1400, -59.455
1534.1600, -59.477
1534.1800, -59.500
1534.2000, -59.474
1534.2200, -59.523
1534.2400, -59.530
1534.2600, -59.490
1534.2800, -59.487
1534.3000, -59.492
1534.3200, -59.472
1534.3400, -59.495
1534.3600, -59.470
1534.3800, -59.487
1534.4000, -59.412
1534.4200, -59.369
1534.4400, -59.344
1534.4600, -59.308
1534.4800, -59.280
1534.5000, -59.276
1534.5200, -59.251
1534.5400, -59.229
1534.5600, -59.234
1534.5800, -59.249
1534.6000, -59.215
1534.6200, -59.185
1534.6400, -59.140
1534.6600, -59.115
1534.6800, -59.101
1534.7000, -59.053
1534.7200, -59.091
1534.7400, -59.050
1534.7600, -59.056
1534.7800, -59.072
1534.8000, -59.053
1534.8200, -59.052
1534.8400, -59.047
1534.8600, -59.045
1534.8800, -59.096
1534.9000, -59.119
1534.9200, -59.130
1534.9400, -59.140
1534.9600, -59.159
1534.9800, -59.155
1535.0000, -59.227
1535.0200, -59.257
1535.0400, -59.268
1535.0600, -59.300
1535.0800, -59.355
1535.1000, -59.304
1535.1200, -59.301
1535.1400, -59.352
1535.1600, -59.369
1535.1800, -59.351
1535.2000, -59.373
1535.2200, -59.295
1535.2400, -59.315
1535.2600, -59.346
1535.2800, -59.320
1535.3000, -59.321
1535.3200, -59.254
1535.3400, -59.226
1535.3600, -59.215
1535.3800, -59.168
1535.4000, -59.154
1535.4200, -59.145
1535.4400, -59.150
1535.4600, -59.103
1535.4800, -59.112
1535.5000, -59.119
1535.5200, -59.094
1535.5400, -59.072
1535.5600, -59.018
1535.5800, -58.998
1535.6000, -58.984
1535.6200, -58.965
1535.6400, -58.972
1535.6600, -58.975
1535.6800, -58.962
1535.7000, -58.965
1535.7200, -58.958
1535.7400, -58.933
1535.7600, -58.947
1535.7800, -58.951
1535.8000, -58.989
1535.8200, -59.024
1535.8400, -59.025
1535.8600, -59.048
1535.8800, -59.050
1535.9000, -59.071
1535.9200, -59.133
1535.9400, -59.149
1535.9600, -59.163
1535.9800, -59.208
1536.0000, -59.222
1536.0200, -59.233
1536.0400, -59.215
1536.0600, -59.215
1536.0800, -59.273
1536.1000, -59.255
1536.1200, -59.259
1536.1400, -59.221
1536.1600, -59.223
1536.1800, -59.237
1536.2000, -59.224
1536.2200, -59.201
1536.2400, -59.172
1536.2600, -59.132
1536.2800, -59.101
1536.3000, -59.088
1536.3200, -59.077
1536.3400, -59.073
1536.3600, -59.046
1536.3800, -59.018
1536.4000, -59.047
1536.4200, -59.024
1536.4400, -59.006
1536.4600, -58.967
1536.4800, -58.936
1536.5000, -58.921
1536.5200, -58.910
1536.5400, -58.896
1536.5600, -58.907
1536.5800, -58.895
1536.6000, -58.926
1536.6200, -58.883
1536.6400, -58.906
1536.6600, -58.888
1536.6800, -58.851
1536.7000, -58.888
1536.7200, -58.918
1536.7400, -58.957
1536.7600, -58.959
1536.7800, -58.966
1536.8000, -58.970
1536.8200, -59.010
1536.8400, -59.032
1536.8600, -59.061
1536.8800, -59.081
1536.9000, -59.127
1536.9200, -59.128
1536.9400, -59.115
1536.9600, -59.102
1536.9800, -59.133
1537.0000, -59.148
1537.0200, -59.134
1537.0400, -59.146
1537.0600, -59.083
1537.0800, -59.115
1537.1000, -59.110
1537.1200, -59.103
1537.1400, -59.088
1537.1600, -59.072
1537.1800, -59.007
1537.2000, -58.994
1537.2200, -58.973
1537.2400, -58.967
1537.2600, -58.949
1537.2800, -58.938
1537.3000, -58.929
1537.3200, -58.926
1537.3400, -58.933
1537.3600, -58.873
1537.3800, -58.864
1537.4000, -58.837
1537.4200, -58.809
1537.4400, -58.785
1537.4600, -58.789
1537.4800, -58.798
1537.5000, -58.817
1537.5200, -58.811
1537.5400, -58.782
1537.5600, -58.761
1537.5800, -58.758
1537.6000, -58.754
1537.6200, -58.772
1537.6400, -58.812
1537.6600, -58.806
1537.6800, -58.836
1537.7000, -58.835
1537.7200, -58.852
1537.7400, -58.872
1537.7600, -58.917
1537.7800, -58.940
1537.8000, -58.962
1537.8200, -58.994
1537.8400, -58.974
1537.8600, -58.967
1537.8800, -58.984
1537.9000, -58.986
1537.9200, -59.000
1537.9400, -58.981
1537.9600, -58.981
1537.9800, -58.950
1538.0000, -58.981
1538.0200, -58.968
1538.0400, -58.953
1538.0600, -58.911
1538.0800, -58.903
1538.1000, -58.870
1538.1200, -58.840
1538.1400, -58.832
1538.1600, -58.809
1538.1800, -58.804
1538.2000, -58.792
1538.2200, -58.778
1538.2400, -58.769
1538.2600, -58.762
1538.2800, -58.725
1538.3000, -58.683
1538.3200, -58.658
1538.3400, -58.654
1538.3600, -58.633
1538.3800, -58.644
1538.4000, -58.653
1538.4200, -58.661
1538.4400, -58.662
1538.4600, -58.647
1538.4800, -58.609
1538.5000, -58.604
1538.5200, -58.605
1538.5400, -58.631
1538.5600, -58.654
1538.5800, -58.650
1538.6000, -58.663
1538.6200, -58.689
1538.6400, -58.686
1538.6600, -58.733
1538.6800, -58.756
1538.7000, -58.765
1538.7200, -58.787
1538.7400, -58.822
1538.7600, -58.807
1538.7800, -58.793
1538.8000, -58.794
1538.8200, -58.836
1538.8400, -58.789
1538.8600, -58.809
1538.8800, -58.778
1538.9000, -58.774
1538.9200, -58.782
1538.9400, -58.766
1538.9600, -58.750
1538.9800, -58.731
1539.0000, -58.692
1539.0200, -58.662
1539.0400, -58.652
1539.0600, -58.644
1539.0800, -58.641
1539.1000, -58.594
1539.1200, -58.566
1539.1400, -58.595
1539.1600, -58.571
1539.1800, -58.547
1539.2000, -58.551
1539.2200, -58.492
1539.2400, -58.461
1539.2600, -58.451
1539.2800, -58.439
1539.3000, -58.448
1539.3200, -58.464
1539.3400, -58.471
1539.3600, -58.441
1539.3800, -58.418
1539.4000, -58.420
1539.4200, -58.418
1539.4400, -58.415
1539.4600, -58.426
1539.4800, -58.441
1539.5000, -58.443
1539.5200, -58.468
1539.5400, -58.468
1539.5600, -58.492
1539.5800, -58.524
1539.6000, -58.557
1539.6200, -58.551
1539.6400, -58.579
1539.6600, -58.588
1539.6800, -58.575
1539.7000, -58.566
1539.7200, -58.609
1539.7400, -58.603
1539.7600, -58.568
1539.7800, -58.580
1539.8000, -58.564
1539.8200, -58.553
1539.8400, -58.546
1539.8600, -58.546
1539.8800, -58.525
1539.9000, -58.485
1539.9200, -58.434
1539.9400, -58.454
1539.9600, -58.400
1539.9800, -58.399
1540.0000, -58.394
1540.0200, -58.368
1540.0400, -58.349
1540.0600, -58.344
1540.0800, -58.342
1540.1000, -58.301
1540.1200, -58.284
1540.1400, -58.252
1540.1600, -58.230
1540.1800, -58.217
1540.2000, -58.205
1540.2200, -58.227
1540.2400, -58.243
1540.2600, -58.251
1540.2800, -58.218
1540.3000, -58.183
1540.3200, -58.155
1540.3400, -58.169
1540.3600, -58.191
1540.3800, -58.204
1540.4000, -58.210
1540.4200, -58.241
1540.4400, -58.230
1540.4600, -58.234
1540.4800, -58.267
1540.5000, -58.290
1540.5200, -58.304
1540.5400, -58.307
1540.5600, -58.339
1540.5800, -58.341
1540.6000, -58.340
1540.6200, -58.348
1540.6400, -58.372
1540.6600, -58.356
1540.6800, -58.328
1540.7000, -58.319
1540.7200, -58.314
1540.7400, -58.310
1540.7600, -58.290
1540.7800, -58.289
1540.8000, -58.257
1540.8200, -58.223
1540.8400, -58.196
1540.8600, -58.190
1540.8800, -58.152
1540.9000, -58.156
1540.9200, -58.123
1540.9400, -58.112
1540.9600, -58.103
1540.9800, -58.111
1541.0000, -58.088
1541.0200, -58.039
1541.0400, -58.004
1541.0600, -57.995
1541.0800, -57.966
1541.1000, -57.967
1541.1200, -57.990
1541.1400, -57.983
1541.1600, -57.985
1541.1800, -57.971
1541.2000, -57.937
1541.2200, -57.915
1541.2400, -57.921
1541.2600, -57.924
1541.2800, -57.950
1541.3000, -57.950
1541.3200, -57.964
1541.3400, -57.975
1541.3600, -57.990
1541.3800, -57.997
1541.4000, -58.050
1541.4200, -58.048
1541.4400, -58.062
1541.4600, -58.094
1541.4800, -58.096
1541.5000, -58.095
1541.5200, -58.100
1541.5400, -58.128
1541.5600, -58.127
1541.5800, -58.091
1541.6000, -58.068
1541.6200, -58.033
1541.6400, -58.030
1541.6600, -58.056
1541.6800, -58.032
1541.7000, -58.002
1541.7200, -57.977
1541.7400, -57.939
1541.7600, -57.925
1541.7800, -57.897
1541.8000, -57.920
1541.8200, -57.883
1541.8400, -57.854
1541.8600, -57.841
1541.8800, -57.840
1541.9000, -57.828
1541.9200, -57.813
1541.9400, -57.786
1541.9600, -57.757
1541.9800, -57.738
1542.0000, -57.720
1542.0200, -57.688
1542.0400, -57.741
1542.0600, -57.753
1542.0800, -57.744
1542.1000, -57.703
1542.1200, -57.695
1542.1400, -57.669
1542.1600, -57.691
1542.1800, -57.678
1542.2000, -57.706
1542.2200, -57.694
1542.2400, -57.716
1542.2600, -57.718
1542.2800, -57.747
1542.3000, -57.757
1542.3200, -57.780
1542.3400, -57.792
1542.3600, -57.807
1542.3800, -57.835
1542.4000, -57.829
1542.4200, -57.828
1542.4400, -57.847
1542.4600, -57.867
1542.4800, -57.844
1542.5000, -57.807
1542.5200, -57.813
1542.5400, -57.790
1542.5600, -57.792
1542.5800, -57.800
1542.6000, -57.761
1542.6200, -57.747
1542.6400, -57.714
1542.6600, -57.684
1542.6800, -57.676
1542.7000, -57.640
1542.7200, -57.646
1542.7400, -57.613
1542.7600, -57.607
1542.7800, -57.602
1542.8000, -57.588
1542.8200, -57.582
1542.8400, -57.548
1542.8600, -57.505
1542.8800, -57.493
1542.9000, -57.454
1542.9200, -57.462
1542.9400, -57.490
1542.9600, -57.483
1542.9800, -57.505
1543.0000, -57.470
1543.0200, -57.441
1543.0400, -57.433
1543.0600, -57.417
1543.0800, -57.440
1543.1000, -57.443
1543.1200, -57.452
1543.1400, -57.461
1543.1600, -57.477
1543.1800, -57.471
1543.2000, -57.517
1543.2200, -57.531
1543.2400, -57.555
1543.2600, -57.545
1543.2800, -57.606
1543.3000, -57.590
1543.3200, -57.596
1543.3400, -57.575
1543.3600, -57.611
1543.3800, -57.610
1543.4000, -57.564
1543.4200, -57.564
1543.4400, -57.533
1543.4600, -57.547
1543.4800, -57.546
1543.5000, -57.536
1543.5200, -57.509
1543.5400, -57.493
1543.5600, -57.458
1543.5800, -57.432
1543.6000, -57.428
1543.6200, -57.422
1543.6400, -57.388
1543.6600, -57.377
1543.6800, -57.368
1543.7000, -57.352
1543.7200, -57.338
1543.7400, -57.319
1543.7600, -57.290
1543.7800, -57.258
1543.8000, -57.235
1543.8200, -57.227
1543.8400, -57.234
1543.8600, -57.242
1543.8800, -57.256
1543.9000, -57.247
1543.9200, -57.228
1543.9400, -57.188
1543.9600, -57.194
1543.9800, -57.213
1544.0000, -57.214
1544.0200, -57.233
1544.0400, -57.232
1544.0600, -57.235
1544.0800, -57.252
1544.1000, -57.283
1544.1200, -57.300
1544.1400, -57.326
1544.1600, -57.321
1544.1800, -57.362
1544.2000, -57.375
1544.2200, -57.378
1544.2400, -57.369
1544.2600, -57.399
1544.2800, -57.407
1544.3000, -57.363
1544.3200, -57.355
1544.3400, -57.331
1544.3600, -57.327
1544.3800, -57.340
1544.4000, -57.311
1544.4200, -57.299
1544.4400, -57.295
1544.4600, -57.258
1544.4800, -57.235
1544.5000, -57.223
1544.5200, -57.206
1544.5400, -57.177
1544.5600, -57.156
1544.5800, -57.133
1544.6000, -57.145
1544.6200, -57.115
1544.6400, -57.117
1544.6600, -57.092
1544.6800, -57.062
1544.7000, -57.048
1544.7200, -57.025
1544.7400, -57.035
1544.7600, -57.055
1544.7800, -57.070
1544.8000, -57.059
1544.8200, -57.032
1544.8400, -57.013
1544.8600, -56.991
1544.8800, -57.005
1544.9000, -57.016
1544.9200, -57.037
1544.9400, -57.026
1544.9600, -57.035
1544.9800, -57.059
1545.0000, -57.075
1545.0200, -57.108
1545.0400, -57.129
1545.0600, -57.134
1545.0800, -57.169
1545.1000, -57.180
1545.1200, -57.170
1545.1400, -57.157
1545.1600, -57.187
1545.1800, -57.222
1545.2000, -57.181
1545.2200, -57.165
1545.2400, -57.150
1545.2600, -57.150
1545.2800, -57.164
1545.3000, -57.137
1545.3200, -57.114
1545.3400, -57.112
1545.3600, -57.086
1545.3800, -57.047
1545.4000, -57.035
1545.4200, -57.012
1545.4400, -57.019
1545.4600, -56.987
1545.4800, -56.969
1545.5000, -56.985
1545.5200, -56.939
1545.5400, -56.942
1545.5600, -56.929
1545.5800, -56.890
1545.6000, -56.867
1545.6200, -56.858
1545.6400, -56.844
1545.6600, -56.874
1545.6800, -56.879
1545.7000, -56.890
1545.7200, -56.856
1545.7400, -56.841
1545.7600, -56.808
1545.7800, -56.818
1545.8000, -56.852
1545.8200, -56.851
1545.8400, -56.846
1545.8600, -56.870
1545.8800, -56.879
1545.9000, -56.899
1545.9200, -56.923
1545.9400, -56.941
1545.9600, -56.946
1545.9800, -56.975
1546.0000, -57.012
1546.0200, -56.999
1546.0400, -56.999
1546.0600, -57.022
1546.0800, -57.029
1546.1000, -57.019
1546.1200, -56.992
1546.1400, -56.970
1546.1600, -56.963
1546.1800, -56.989
1546.2000, -56.961
1546.2200, -56.962
1546.2400, -56.932
1546.2600, -56.929
1546.2800, -56.890
1546.3000, -56.869
1546.3200, -56.852
1546.3400, -56.862
1546.3600, -56.798
1546.3800, -56.792
1546.4000, -56.799
1546.4200, -56.788
1546.4400, -56.765
1546.4600, -56.760
1546.4800, -56.724
1546.5000, -56.711
1546.5200, -56.687
1546.5400, -56.678
1546.5600, -56.708
1546.5800, -56.710
1546.6000, -56.720
1546.6200, -56.695
1546.6400, -56.668
1546.6600, -56.656
1546.6800, -56.671
1546.7000, -56.672
1546.7200, -56.689
1546.7400, -56.708
1546.7600, -56.704
1546.7800, -56.710
1546.8000, -56.725
1546.8200, -56.764
1546.8400, -56.782
1546.8600, -56.788
1546.8800, -56.804
1546.9000, -56.839
1546.9200, -56.852
1546.9400, -56.834
1546.9600, -56.847
1546.9800, -56.887
1547.0000, -56.865
1547.0200, -56.838
1547.0400, -56.827
1547.0600, -56.801
1547.0800, -56.816
1547.1000, -56.796
1547.1200, -56.790
1547.1400, -56.776
1547.1600, -56.758
1547.1800, -56.729
1547.2000, -56.723
1547.2200, -56.698
1547.2400, -56.686
1547.2600, -56.652
1547.2800, -56.627
1547.3000, -56.650
1547.3200, -56.620
1547.3400, -56.613
1547.3600, -56.620
1547.3800, -56.574
1547.4000, -56.558
1547.4200, -56.528
1547.4400, -56.520
1547.4600, -56.545
1547.4800, -56.571
1547.5000, -56.579
1547.5200, -56.549
1547.5400, -56.522
1547.5600, -56.502
1547.5800, -56.512
1547.6000, -56.529
1547.6200, -56.530
1547.6400, -56.548
1547.6600, -56.550
1547.6800, -56.564
1547.7000, -56.591
1547.7200, -56.603
1547.7400, -56.634
1547.7600, -56.641
1547.7800, -56.666
1547.8000, -56.681
1547.8200, -56.682
1547.8400, -56.680
1547.8600, -56.686
1547.8800, -56.726
1547.9000, -56.719
1547.9200, -56.678
1547.9400, -56.670
1547.9600, -56.666
1547.9800, -56.673
1548.0000, -56.659
1548.0200, -56.644
1548.0400, -56.636
1548.0600, -56.629
1548.0800, -56.585
1548.1000, -56.580
1548.1200, -56.550
1548.1400, -56.551
1548.1600, -56.510
1548.1800, -56.503
1548.2000, -56.506
1548.2200, -56.483
1548.2400, -56.458
1548.2600, -56.468
1548.2800, -56.433
1548.3000, -56.407
1548.3200, -56.386
1548.3400, -56.382
1548.3600, -56.401
1548.3800, -56.406
1548.4000, -56.420
1548.4200, -56.404
1548.4400, -56.368
1548.4600, -56.385
1548.4800, -56.365
1548.5000, -56.375
1548.5200, -56.401
1548.5400, -56.387
1548.5600, -56.386
1548.5800, -56.429
1548.6000, -56.425
1548.6200, -56.463
1548.6400, -56.481
1548.6600, -56.482
1548.6800, -56.496
1548.7000, -56.553
1548.7200, -56.543
1548.7400, -56.545
1548.7600, -56.546
1548.7800, -56.576
1548.8000, -56.572
1548.8200, -56.526
1548.8400, -56.515
1548.8600, -56.505
1548.8800, -56.515
1548.9000, -56.500
1548.9200, -56.491
1548.9400, -56.485
1548.9600, -56.474
1548.9800, -56.444
1549.0000, -56.432
1549.0200, -56.395
1549.0400, -56.402
1549.0600, -56.359
1549.0800, -56.357
1549.1000, -56.350
1549.1200, -56.346
1549.1400, -56.313
1549.1600, -56.325
1549.1800, -56.284
1549.2000, -56.280
1549.2200, -56.242
1549.2400, -56.225
1549.2600, -56.253
1549.2800, -56.260
1549.3000, -56.275
1549.3200, -56.245
1549.3400, -56.237
1549.3600, -56.211
1549.3800, -56.231
1549.4000, -56.229
1549.4200, -56.252
1549.4400, -56.247
1549.4600, -56.268
1549.4800, -56.269
1549.5000, -56.290
1549.5200, -56.315
1549.5400, -56.341
1549.5600, -56.336
1549.5800, -56.359
1549.6000, -56.405
1549.6200, -56.398
1549.6400, -56.395
1549.6600, -56.394
1549.6800, -56.436
1549.7000, -56.424
1549.7200, -56.383
1549.7400, -56.374
1549.7600, -56.358
1549.7800, -56.377
1549.8000, -56.349
1549.8200, -56.339
1549.8400, -56.336
1549.8600, -56.327
1549.8800, -56.300
1549.9000, -56.282
1549.9200, -56.258
1549.9400, -56.253
1549.9600, -56.222
1549.9800, -56.205
1550.0000, -56.208
1550.0200, -56.184
1550.0400, -56.181
1550.0600, -56.170
1550.0800, -56.147
1550.1000, -56.122
1550.1200, -56.084
1550.1400, -56.100
1550.1600, -56.117
1550.1800, -56.132
1550.2000, -56.145
1550.2200, -56.101
1550.2400, -56.080
1550.2600, -56.075
1550.2800, -56.078
1550.3000, -56.094
1550.3200, -56.101
1550.3400, -56.110
1550.3600, -56.126
1550.3800, -56.140
1550.4000, -56.162
1550.4200, -56.176
1550.4400, -56.199
1550.4600, -56.217
1550.4800, -56.224
1550.5000, -56.261
1550.5200, -56.239
1550.5400, -56.242
1550.5600, -56.255
1550.5800, -56.288
1550.6000, -56.283
1550.6200, -56.226
1550.6400, -56.244
1550.6600, -56.212
1550.6800, -56.232
1550.7000, -56.223
1550.7200, -56.197
1550.7400, -56.195
1550.7600, -56.186
1550.7800, -56.155
1550.8000, -56.139
1550.8200, -56.131
1550.8400, -56.119
1550.8600, -56.083
1550.8800, -56.068
1550.9000, -56.081
1550.9200, -56.060
1550.9400, -56.056
1550.9600, -56.026
1550.9800, -55.997
1551.0000, -55.986
1551.0200, -55.964
1551.0400, -55.967
1551.0600, -55.988
1551.0800, -55.998
1551.1000, -56.002
1551.1200, -55.966
1551.1400, -55.954
1551.1600, -55.960
1551.1800, -55.959
1551.2000, -55.965
1551.2200, -55.984
1551.2400, -55.991
1551.2600, -55.986
1551.2800, -56.015
1551.3000, -56.039
1551.3200, -56.057
1551.3400, -56.064
1551.3600, -56.076
1551.3800, -56.121
1551.4000, -56.129
1551.4200, -56.127
1551.4400, -56.123
1551.4600, -56.142
1551.4800, -56.170
1551.5000, -56.139
1551.5200, -56.111
1551.5400, -56.096
1551.5600, -56.103
1551.5800, -56.099
1551.6000, -56.090
1551.6200, -56.078
1551.6400, -56.078
1551.6600, -56.056
1551.6800, -56.050
1551.7000, -56.008
1551.7200, -56.005
1551.7400, -55.979
1551.7600, -55.960
1551.7800, -55.944
1551.8000, -55.945
1551.8200, -55.942
1551.8400, -55.918
1551.8600, -55.909
1551.8800, -55.878
1551.9000, -55.870
1551.9200, -55.841
1551.9400, -55.851
1551.9600, -55.870
1551.9800, -55.880
1552.0000, -55.874
1552.0200, -55.831
1552.0400, -55.830
1552.0600, -55.821
1552.0800, -55.848
1552.1000, -55.854
1552.1200, -55.865
1552.1400, -55.852
1552.1600, -55.879
1552.1800, -55.886
1552.2000, -55.906
1552.2200, -55.925
1552.2400, -55.938
1552.2600, -55.951
1552.2800, -55.980
1552.3000, -55.996
1552.3200, -55.979
1552.3400, -55.995
1552.3600, -56.018
1552.3800, -56.034
1552.4000, -55.995
1552.4200, -55.981
1552.4400, -55.966
1552.4600, -55.980
1552.4800, -55.957
1552.5000, -55.948
1552.5200, -55.937
1552.5400, -55.936
1552.5600, -55.912
1552.5800, -55.883
1552.6000, -55.860
1552.6200, -55.873
1552.6400, -55.828
1552.6600, -55.814
1552.6800, -55.824
1552.7000, -55.808
1552.7200, -55.811
1552.7400, -55.796
1552.7600, -55.774
1552.7800, -55.745
1552.8000, -55.722
1552.8200, -55.725
1552.8400, -55.737
1552.8600, -55.751
1552.8800, -55.753
1552.9000, -55.736
1552.9200, -55.704
1552.9400, -55.698
1552.9600, -55.707
1552.9800, -55.722
1553.0000, -55.720
1553.0200, -55.725
1553.0400, -55.733
1553.0600, -55.745
1553.0800, -55.763
1553.1000, -55.789
1553.1200, -55.815
1553.1400, -55.817
1553.1600, -55.831
1553.1800, -55.866
1553.2000, -55.851
1553.2200, -55.864
1553.2400, -55.864
1553.2600, -55.892
1553.2800, -55.887
1553.3000, -55.856
1553.3200, -55.837
1553.3400, -55.826
1553.3600, -55.841
1553.3800, -55.830
1553.4000, -55.807
1553.4200, -55.804
1553.4400, -55.796
1553.4600, -55.780
1553.4800, -55.760
1553.5000, -55.727
1553.5200, -55.730
1553.5400, -55.700
1553.5600, -55.680
1553.5800, -55.682
1553.6000, -55.655
1553.6200, -55.649
1553.6400, -55.648
1553.6600, -55.633
1553.6800, -55.603
1553.7000, -55.586
1553.7200, -55.588
1553.7400, -55.595
1553.7600, -55.606
1553.7800, -55.609
1553.8000, -55.578
1553.8200, -55.560
1553.8400, -55.564
1553.8600, -55.571
1553.8800, -55.578
1553.9000, -55.585
1553.9200, -55.586
1553.9400, -55.600
1553.9600, -55.621
1553.9800, -55.651
1554.0000, -55.662
1554.0200, -55.669
1554.0400, -55.670
1554.0600, -55.710
1554.0800, -55.723
1554.1000, -55.727
1554.1200, -55.728
1554.1400, -55.740
1554.1600, -55.765
1554.1800, -55.740
1554.2000, -55.701
1554.2200, -55.706
1554.2400, -55.698
1554.2600, -55.701
1554.2800, -55.685
1554.3000, -55.680
1554.3200, -55.660
1554.3400, -55.654
1554.3600, -55.635
1554.3800, -55.611
1554.4000, -55.604
1554.4200, -55.586
1554.4400, -55.550
1554.4600, -55.548
1554.4800, -55.548
1554.5000, -55.532
1554.5200, -55.518
1554.5400, -55.519
1554.5600, -55.482
1554.5800, -55.466
1554.6000, -55.450
1554.6200, -55.465
1554.6400, -55.478
1554.6600, -55.497
1554.6800, -55.475
1554.7000, -55.446
1554.7200, -55.443
1554.7400, -55.450
1554.7600, -55.454
1554.7800, -55.461
1554.8000, -55.471
1554.8200, -55.469
1554.8400, -55.472
1554.8600, -55.509
1554.8800, -55.529
1554.9000, -55.543
1554.9200, -55.553
1554.9400, -55.562
1554.9600, -55.606
1554.9800, -55.601
1555.0000, -55.594
1555.0200, -55.596
1555.0400, -55.626
1555.0600, -55.641
1555.0800, -55.591
1555.1000, -55.579
1555.1200, -55.568
1555.1400, -55.569
1555.1600, -55.575
1555.1800, -55.554
1555.2000, -55.564
1555.2200, -55.542
1555.2400, -55.518
1555.2600, -55.500
1555.2800, -55.479
1555.3000, -55.487
1555.3200, -55.444
1555.3400, -55.430
1555.3600, -55.423
1555.3800, -55.416
1555.4000, -55.408
1555.4200, -55.397
1555.4400, -55.379
1555.4600, -55.358
1555.4800, -55.333
1555.5000, -55.339
1555.5200, -55.358
1555.5400, -55.361
1555.5600, -55.367
1555.5800, -55.354
1555.6000, -55.323
1555.6200, -55.327
1555.6400, -55.332
1555.6600, -55.342
1555.6800, -55.349
1555.7000, -55.345
1555.7200, -55.368
1555.7400, -55.369
1555.7600, -55.403
1555.7800, -55.416
1555.8000, -55.437
1555.8200, -55.430
1555.8400, -55.467
1555.8600, -55.477
1555.8800, -55.488
1555.9000, -55.481
1555.9200, -55.489
1555.9400, -55.510
1555.9600, -55.506
1555.9800, -55.472
1556.0000, -55.467
1556.0200, -55.471
1556.0400, -55.465
1556.0600, -55.451
1556.0800, -55.447
1556.1000, -55.440
1556.1200, -55.421
1556.1400, -55.413
1556.1600, -55.382
1556.1800, -55.383
1556.2000, -55.352
1556.2200, -55.324
1556.2400, -55.327
1556.2600, -55.319
1556.2800, -55.305
1556.3000, -55.304
1556.3200, -55.291
1556.3400, -55.275
1556.3600, -55.251
1556.3800, -55.233
1556.4000, -55.250
1556.4200, -55.252
1556.4400, -55.263
1556.4600, -55.248
1556.4800, -55.225
1556.5000, -55.224
1556.5200, -55.227
1556.5400, -55.238
1556.5600, -55.234
1556.5800, -55.247
1556.6000, -55.248
1556.6200, -55.269
1556.6400, -55.291
1556.6600, -55.308
1556.6800, -55.324
1556.7000, -55.340
1556.7200, -55.356
1556.7400, -55.373
1556.7600, -55.390
1556.7800, -55.381
1556.8000, -55.395
1556.8200, -55.421
1556.8400, -55.424
1556.8600, -55.382
1556.8800, -55.376
1556.9000, -55.363
1556.9200, -55.377
1556.9400, -55.356
1556.9600, -55.357
1556.9800, -55.352
1557.0000, -55.335
1557.0200, -55.321
1557.0400, -55.300
1557.0600, -55.284
1557.0800, -55.274
1557.1000, -55.242
1557.1200, -55.238
1557.1400, -55.232
1557.1600, -55.218
1557.1800, -55.226
1557.2000, -55.206
1557.2200, -55.194
1557.2400, -55.184
1557.2600, -55.176
1557.2800, -55.167
1557.3000, -55.179
1557.3200, -55.189
1557.3400, -55.190
1557.3600, -55.171
1557.3800, -55.157
1557.4000, -55.163
1557.4200, -55.164
1557.4400, -55.169
1557.4600, -55.173
1557.4800, -55.179
1557.5000, -55.187
1557.5200, -55.212
1557.5400, -55.236
1557.5600, -55.252
1557.5800, -55.267
1557.6000, -55.273
1557.6200, -55.308
1557.6400, -55.318
1557.6600, -55.321
1557.6800, -55.303
1557.7000, -55.341
1557.7200, -55.354
1557.7400, -55.317
1557.7600, -55.306
1557.7800, -55.291
1557.8000, -55.306
1557.8200, -55.285
1557.8400, -55.296
1557.8600, -55.286
1557.8800, -55.270
1557.9000, -55.266
1557.9200, -55.243
1557.9400, -55.232
1557.9600, -55.229
1557.9800, -55.197
1558.0000, -55.184
1558.0200, -55.176
1558.0400, -55.168
1558.0600, -55.165
1558.0800, -55.165
1558.1000, -55.143
1558.1200, -55.139
1558.1400, -55.108
1558.1600, -55.109
1558.1800, -55.132
1558.2000, -55.130
1558.2200, -55.147
1558.2400, -55.122
1558.2600, -55.102
1558.2800, -55.116
1558.3000, -55.116
1558.3200, -55.121
1558.3400, -55.138
1558.3600, -55.134
1558.3800, -55.160
1558.4000, -55.169
1558.4200, -55.197
1558.4400, -55.205
1558.4600, -55.236
1558.4800, -55.236
1558.5000, -55.248
1558.5200, -55.281
1558.5400, -55.282
1558.5600, -55.291
1558.5800, -55.302
1558.6000, -55.323
1558.6200, -55.309
1558.6400, -55.258
1558.6600, -55.281
1558.6800, -55.267
1558.7000, -55.272
1558.7200, -55.265
1558.7400, -55.262
1558.7600, -55.258
1558.7800, -55.241
1558.8000, -55.238
1558.8200, -55.217
1558.8400, -55.211
1558.8600, -55.176
1558.8800, -55.162
1558.9000, -55.165
1558.9200, -55.166
1558.9400, -55.159
1558.9600, -55.148
1558.9800, -55.130
1559.0000, -55.131
1559.0200, -55.119
1559.0400, -55.100
1559.0600, -55.115
1559.0800, -55.121
1559.1000, -55.129
1559.1200, -55.130
1559.1400, -55.108
1559.1600, -55.113
1559.1800, -55.108
1559.2000, -55.128
1559.2200, -55.152
1559.2400, -55.132
1559.2600, -55.147
1559.2800, -55.164
1559.3000, -55.190
1559.3200, -55.217
1559.3400, -55.229
1559.3600, -55.240
1559.3800, -55.245
1559.4000, -55.284
1559.4200, -55.288
1559.4400, -55.293
1559.4600, -55.313
1559.4800, -55.337
1559.5000, -55.327
1559.5200, -55.297
1559.5400, -55.287
1559.5600, -55.295
1559.5800, -55.294
1559.6000, -55.296
1559.6200, -55.290
1559.6400, -55.281
1559.6600, -55.265
1559.6800, -55.256
1559.7000, -55.244
1559.7200, -55.240
1559.7400, -55.223
1559.7600, -55.190
1559.7800, -55.191
1559.8000, -55.192
1559.8200, -55.183
1559.8400, -55.186
1559.8600, -55.185
1559.8800, -55.170
1559.9000, -55.154
1559.9200, -55.143
1559.9400, -55.151
1559.9600, -55.169
1559.9800, -55.167
1560.0000, -55.173
1560.0200, -55.158
1560.0400, -55.155
1560.0600, -55.164
1560.0800, -55.176
1560.1000, -55.188
1560.1200, -55.193
1560.1400, -55.194
1560.1600, -55.222
1560.1800, -55.240
1560.2000, -55.271
1560.2200, -55.280
1560.2400, -55.302
1560.2600, -55.306
1560.2800, -55.336
1560.3000, -55.349
1560.3200, -55.366
1560.3400, -55.369
1560.3600, -55.377
1560.3800, -55.383
1560.4000, -55.351
1560.4200, -55.352
1560.4400, -55.356
1560.4600, -55.352
1560.4800, -55.358
1560.5000, -55.355
1560.5200, -55.366
1560.5400, -55.353
1560.5600, -55.347
1560.5800, -55.332
1560.6000, -55.328
1560.6200, -55.313
1560.6400, -55.278
1560.6600, -55.285
1560.6800, -55.294
1560.7000, -55.286
1560.7200, -55.286
1560.7400, -55.279
1560.7600, -55.268
1560.7800, -55.262
1560.8000, -55.258
1560.8200, -55.268
1560.8400, -55.265
1560.8600, -55.270
1560.8800, -55.268
1560.9000, -55.256
1560.9200, -55.266
1560.9400, -55.272
1560.9600, -55.286
1560.9800, -55.293
1561.0000, -55.299
1561.0200, -55.301
1561.0400, -55.332
1561.0600, -55.345
1561.0800, -55.382
1561.1000, -55.397
1561.1200, -55.417
1561.1400, -55.416
1561.1600, -55.459
1561.1800, -55.459
1561.2000, -55.478
1561.2200, -55.492
1561.2400, -55.509
1561.2600, -55.517
1561.2800, -55.483
1561.3000, -55.482
1561.3200, -55.491
1561.3400, -55.496
1561.3600, -55.497
1561.3800, -55.496
1561.4000, -55.499
1561.4200, -55.496
1561.4400, -55.471
1561.4600, -55.471
1561.4800, -55.469
1561.5000, -55.462
1561.5200, -55.428
1561.5400, -55.433
1561.5600, -55.429
1561.5800, -55.440
1561.6000, -55.435
1561.6200, -55.433
1561.6400, -55.421
1561.6600, -55.420
1561.6800, -55.415
1561.7000, -55.420
1561.7200, -55.433
1561.7400, -55.422
1561.7600, -55.426
1561.7800, -55.430
1561.8000, -55.446
1561.8200, -55.440
1561.8400, -55.458
1561.8600, -55.467
1561.8800, -55.486
1561.9000, -55.480
1561.9200, -55.509
1561.9400, -55.525
1561.9600, -55.547
1561.9800, -55.587
1562.0000, -55.592
1562.0200, -55.604
1562.0400, -55.640
1562.0600, -55.652
1562.0800, -55.669
1562.1000, -55.682
1562.1200, -55.695
1562.1400, -55.697
1562.1600, -55.657
1562.1800, -55.660
1562.2000, -55.697
1562.2200, -55.677
1562.2400, -55.678
1562.2600, -55.674
1562.2800, -55.691
1562.3000, -55.689
1562.3200, -55.673
1562.3400, -55.683
1562.3600, -55.685
1562.3800, -55.645
1562.4000, -55.634
1562.4200, -55.637
1562.4400, -55.639
1562.4600, -55.650
1562.4800, -55.642
1562.5000, -55.639
1562.5200, -55.635
1562.5400, -55.633
1562.5600, -55.634
1562.5800, -55.642
1562.6000, -55.642
1562.6200, -55.645
1562.6400, -55.657
1562.6600, -55.660
1562.6800, -55.655
1562.7000, -55.663
1562.7200, -55.687
1562.7400, -55.703
1562.7600, -55.703
1562.7800, -55.712
1562.8000, -55.731
1562.8200, -55.764
1562.8400, -55.781
1562.8600, -55.815
1562.8800, -55.822
1562.9000, -55.841
1562.9200, -55.876
1562.9400, -55.896
1562.9600, -55.918
1562.9800, -55.924
1563.0000, -55.945
1563.0200, -55.955
1563.0400, -55.919
1563.0600, -55.911
1563.0800, -55.935
1563.1000, -55.948
1563.1200, -55.937
1563.1400, -55.949
1563.1600, -55.961
1563.1800, -55.958
1563.2000, -55.930
1563.2200, -55.933
1563.2400, -55.939
1563.2600, -55.922
1563.2800, -55.890
1563.3000, -55.906
1563.3200, -55.907
1563.3400, -55.901
1563.3600, -55.911
1563.3800, -55.913
1563.4000, -55.912
1563.4200, -55.909
1563.4400, -55.911
1563.4600, -55.906
1563.4800, -55.906
1563.5000, -55.911
1563.5200, -55.921
1563.5400, -55.927
1563.5600, -55.933
1563.5800, -55.942
1563.6000, -55.962
1563.6200, -55.990
1563.6400, -55.987
1563.6600, -56.000
1563.6800, -56.022
1563.7000, -56.054
1563.7200, -56.078
1563.7400, -56.094
1563.7600, -56.120
1563.7800, -56.122
1563.8000, -56.158
1563.8200, -56.181
1563.8400, -56.205
1563.8600, -56.223
1563.8800, -56.228
1563.9000, -56.243
1563.9200, -56.225
1563.9400, -56.214
1563.9600, -56.231
1563.9800, -56.235
1564.0000, -56.232
1564.0200, -56.248
1564.0400, -56.247
1564.0600, -56.244
1564.0800, -56.243
1564.1000, -56.233
1564.1200, -56.236
1564.1400, -56.232
1564.1600, -56.204
1564.1800, -56.216
1564.2000, -56.214
1564.2200, -56.215
1564.2400, -56.232
1564.2600, -56.222
1564.2800, -56.225
1564.3000, -56.215
1564.3200, -56.224
1564.3400, -56.220
1564.3600, -56.230
1564.3800, -56.225
1564.4000, -56.247
1564.4200, -56.251
1564.4400, -56.257
1564.4600, -56.280
1564.4800, -56.294
1564.5000, -56.306
1564.5200, -56.322
1564.5400, -56.326
1564.5600, -56.377
1564.5800, -56.381
1564.6000, -56.416
1564.6200, -56.427
1564.6400, -56.456
1564.6600, -56.470
1564.6800, -56.495
1564.7000, -56.538
1564.7200, -56.535
1564.7400, -56.570
1564.7600, -56.559
1564.7800, -56.570
1564.8000, -56.547
1564.8200, -56.554
1564.8400, -56.570
1564.8600, -56.568
1564.8800, -56.566
1564.9000, -56.582
1564.9200, -56.587
1564.9400, -56.594
1564.9600, -56.577
1564.9800, -56.576
1565.0000, -56.577
1565.0200, -56.562
1565.0400, -56.552
1565.0600, -56.565
1565.0800, -56.565
1565.1000, -56.576
1565.1200, -56.581
1565.1400, -56.576
1565.1600, -56.576
1565.1800, -56.580
1565.2000, -56.594
1565.2200, -56.583
1565.2400, -56.585
1565.2600, -56.580
1565.2800, -56.608
1565.3000, -56.612
1565.3200, -56.622
1565.3400, -56.644
1565.3600, -56.669
1565.3800, -56.680
1565.4000, -56.681
1565.4200, -56.695
1565.4400, -56.728
1565.4600, -56.754
1565.4800, -56.774
1565.5000, -56.800
1565.5200, -56.811
1565.5400, -56.853
1565.5600, -56.872
1565.5800, -56.904
1565.6000, -56.919
1565.6200, -56.927
1565.6400, -56.941
1565.6600, -56.938
1565.6800, -56.921
1565.7000, -56.924
1565.7200, -56.944
1565.7400, -56.928
1565.7600, -56.959
1565.7800, -56.952
1565.8000, -56.952
1565.8200, -56.943
1565.8400, -56.959
1565.8600, -56.939
1565.8800, -56.961
1565.9000, -56.932
1565.9200, -56.933
1565.9400, -56.949
1565.9600, -56.957
1565.9800, -56.963
1566.0000, -56.963
1566.0200, -56.963
1566.0400, -56.971
1566.0600, -56.976
1566.0800, -56.968
1566.1000, -56.975
1566.1200, -56.972
1566.1400, -56.986
1566.1600, -57.002
1566.1800, -57.000
1566.2000, -57.009
1566.2200, -57.020
1566.2400, -57.061
1566.2600, -57.080
1566.2800, -57.058
1566.3000, -57.105
1566.3200, -57.127
1566.3400, -57.156
1566.3600, -57.161
1566.3800, -57.195
1566.4000, -57.189
1566.4200, -57.252
1566.4400, -57.270
1566.4600, -57.285
1566.4800, -57.288
1566.5000, -57.315
1566.5200, -57.323
1566.5400, -57.316
1566.5600, -57.300
1566.5800, -57.317
1566.6000, -57.332
1566.6200, -57.330
1566.6400, -57.360
1566.6600, -57.354
1566.6800, -57.346
1566.7000, -57.350
1566.7200, -57.339
1566.7400, -57.366
1566.7600, -57.340
1566.7800, -57.323
1566.8000, -57.339
1566.8200, -57.354
1566.8400, -57.358
1566.8600, -57.345
1566.8800, -57.359
1566.9000, -57.358
1566.9200, -57.378
1566.9400, -57.348
1566.9600, -57.369
1566.9800, -57.385
1567.0000, -57.351
1567.0200, -57.388
1567.0400, -57.398
1567.0600, -57.408
1567.0800, -57.431
1567.1000, -57.445
1567.1200, -57.464
1567.1400, -57.475
1567.1600, -57.469
1567.1800, -57.523
1567.2000, -57.522
1567.2200, -57.547
1567.2400, -57.589
1567.2600, -57.609
1567.2800, -57.618
1567.3000, -57.663
1567.3200, -57.670
1567.3400, -57.705
1567.3600, -57.713
1567.3800, -57.708
1567.4000, -57.729
1567.4200, -57.733
1567.4400, -57.710
1567.4600, -57.739
1567.4800, -57.747
1567.5000, -57.738
1567.5200, -57.769
1567.5400, -57.757
1567.5600, -57.751
1567.5800, -57.756
1567.6000, -57.773
1567.6200, -57.777
1567.6400, -57.763
1567.6600, -57.747
1567.6800, -57.762
1567.7000, -57.757
1567.7200, -57.770
1567.7400, -57.781
1567.7600, -57.781
1567.7800, -57.786
1567.8000, -57.777
1567.8200, -57.807
1567.8400, -57.806
1567.8600, -57.799
1567.8800, -57.794
1567.9000, -57.824
1567.9200, -57.811
1567.9400, -57.847
1567.9600, -57.850
1567.9800, -57.865
1568.0000, -57.899
1568.0200, -57.902
1568.0400, -57.925
1568.0600, -57.929
1568.0800, -57.972
1568.1000, -57.987
1568.1200, -58.022
1568.1400, -58.027
1568.1600, -58.052
1568.1800, -58.097
1568.2000, -58.129
1568.2200, -58.101
1568.2400, -58.154
1568.2600, -58.129
1568.2800, -58.146
1568.3000, -58.137
1568.3200, -58.147
1568.3400, -58.158
1568.3600, -58.166
1568.3800, -58.172
1568.4000, -58.191
1568.4200, -58.187
1568.4400, -58.180
1568.4600, -58.188
1568.4800, -58.177
1568.5000, -58.183
1568.5200, -58.175
1568.5400, -58.192
1568.5600, -58.192
1568.5800, -58.201
1568.6000, -58.202
1568.6200, -58.205
1568.6400, -58.215
1568.6600, -58.219
1568.6800, -58.209
1568.7000, -58.230
1568.7200, -58.236
1568.7400, -58.229
1568.7600, -58.229
1568.7800, -58.258
1568.8000, -58.267
1568.8200, -58.266
1568.8400, -58.297
1568.8600, -58.326
1568.8800, -58.326
1568.9000, -58.342
1568.9200, -58.374
1568.9400, -58.394
1568.9600, -58.408
1568.9800, -58.439
1569.0000, -58.446
1569.0200, -58.463
1569.0400, -58.478
1569.0600, -58.520
1569.0800, -58.532
1569.1000, -58.565
1569.1200, -58.567
1569.1400, -58.578
1569.1600, -58.587
1569.1800, -58.574
1569.2000, -58.566
1569.2200, -58.595
1569.2400, -58.592
1569.2600, -58.601
1569.2800, -58.624
1569.3000, -58.610
1569.3200, -58.613
1569.3400, -58.618
1569.3600, -58.617
1569.3800, -58.621
1569.4000, -58.608
1569.4200, -58.636
1569.4400, -58.628
1569.4600, -58.653
1569.4800, -58.630
1569.5000, -58.656
1569.5200, -58.650
1569.5400, -58.632
1569.5600, -58.656
1569.5800, -58.656
1569.6000, -58.665
1569.6200, -58.668
1569.6400, -58.692
1569.6600, -58.695
1569.6800, -58.689
1569.7000, -58.699
1569.7200, -58.748
1569.7400, -58.768
1569.7600, -58.758
1569.7800, -58.762
1569.8000, -58.806
1569.8200, -58.811
1569.8400, -58.860
1569.8600, -58.881
1569.8800, -58.880
1569.9000, -58.911
1569.9200, -58.938
1569.9400, -58.948
1569.9600, -58.971
1569.9800, -58.999
1570.0000, -58.996
1570.0200, -59.004
1570.0400, -58.992
1570.0600, -58.997
1570.0800, -58.999
1570.1000, -59.019
1570.1200, -59.028
1570.1400, -59.014
1570.1600, -59.044
1570.1800, -59.034
1570.2000, -59.033
1570.2200, -59.041
1570.2400, -59.057
1570.2600, -59.037
1570.2800, -59.041
1570.3000, -59.040
1570.3200, -59.070
1570.3400, -59.056
1570.3600, -59.078
1570.3800, -59.055
1570.4000, -59.071
1570.4200, -59.069
1570.4400, -59.071
1570.4600, -59.115
1570.4800, -59.111
1570.5000, -59.092
1570.5200, -59.147
1570.5400, -59.101
1570.5600, -59.138
1570.5800, -59.141
1570.6000, -59.176
1570.6200, -59.204
1570.6400, -59.181
1570.6600, -59.231
1570.6800, -59.235
1570.7000, -59.285
1570.7200, -59.280
1570.7400, -59.307
1570.7600, -59.339
1570.7800, -59.358
1570.8000, -59.360
1570.8200, -59.408
1570.8400, -59.403
1570.8600, -59.422
1570.8800, -59.418
1570.9000, -59.414
1570.9200, -59.415
1570.9400, -59.440
1570.9600, -59.470
1570.9800, -59.438
1571.0000, -59.466
1571.0200, -59.436
1571.0400, -59.464
1571.0600, -59.458
1571.0800, -59.470
1571.1000, -59.479
1571.1200, -59.456
1571.1400, -59.444
1571.1600, -59.480
1571.1800, -59.475
1571.2000, -59.498
1571.2200, -59.501
1571.2400, -59.482
1571.2600, -59.511
1571.2800, -59.483
1571.3000, -59.500
1571.3200, -59.518
1571.3400, -59.512
1571.3600, -59.536
1571.3800, -59.539
1571.4000, -59.542
1571.4200, -59.577
1571.4400, -59.578
1571.4600, -59.572
1571.4800, -59.609
1571.5000, -59.614
1571.5200, -59.651
1571.5400, -59.663
1571.5600, -59.688
1571.5800, -59.710
1571.6000, -59.723
1571.6200, -59.742
1571.6400, -59.751
1571.6600, -59.801
1571.6800, -59.793
1571.7000, -59.827
1571.7200, -59.819
1571.7400, -59.890
1571.7600, -59.800
1571.7800, -59.857
1571.8000, -59.841
1571.8200, -59.838
1571.8400, -59.868
1571.8600, -59.864
1571.8800, -59.892
1571.9000, -59.869
1571.9200, -59.907
1571.9400, -59.854
1571.9600, -59.887
1571.9800, -59.904
1572.0000, -59.882
1572.0200, -59.917
1572.0400, -59.902
1572.0600, -59.931
1572.0800, -59.922
1572.1000, -59.914
1572.1200, -59.911
1572.1400, -59.934
1572.1600, -59.906
1572.1800, -59.915
1572.2000, -59.952
1572.2200, -59.946
1572.2400, -59.940
1572.2600, -59.980
1572.2800, -59.985
1572.3000, -59.995
1572.3200, -60.006
1572.3400, -60.014
1572.3600, -60.030
1572.3800, -60.064
1572.4000, -60.055
1572.4200, -60.099
1572.4400, -60.118
1572.4600, -60.133
1572.4800, -60.154
1572.5000, -60.169
1572.5200, -60.189
1572.5400, -60.205
1572.5600, -60.240
1572.5800, -60.244
1572.6000, -60.275
1572.6200, -60.243
1572.6400, -60.261
1572.6600, -60.250
1572.6800, -60.257
1572.7000, -60.246
1572.7200, -60.268
1572.7400, -60.279
1572.7600, -60.284
1572.7800, -60.280
1572.8000, -60.286
1572.8200, -60.286
1572.8400, -60.314
1572.8600, -60.280
1572.8800, -60.298
1572.9000, -60.297
1572.9200, -60.303
1572.9400, -60.314
1572.9600, -60.298
1572.9800, -60.303
1573.0000, -60.340
1573.0200, -60.324
1573.0400, -60.329
1573.0600, -60.338
1573.0800, -60.346
1573.1000, -60.372
1573.1200, -60.380
1573.1400, -60.377
1573.1600, -60.375
1573.1800, -60.378
1573.2000, -60.403
1573.2200, -60.436
1573.2400, -60.456
1573.2600, -60.457
1573.2800, -60.456
1573.3000, -60.517
1573.3200, -60.543
1573.3400, -60.516
1573.3600, -60.572
1573.3800, -60.557
1573.4000, -60.598
1573.4200, -60.610
1573.4400, -60.625
1573.4600, -60.636
1573.4800, -60.602
1573.5000, -60.653
1573.5200, -60.607
1573.5400, -60.645
1573.5600, -60.648
1573.5800, -60.660
1573.6000, -60.675
1573.6200, -60.697
1573.6400, -60.642
1573.6600, -60.686
1573.6800, -60.664
1573.7000, -60.697
1573.7200, -60.697
1573.7400, -60.651
1573.7600, -60.690
1573.7800, -60.680
1573.8000, -60.701
1573.8200, -60.689
1573.8400, -60.702
1573.8600, -60.692
1573.8800, -60.691
1573.9000, -60.715
1573.9200, -60.735
1573.9400, -60.710
1573.9600, -60.748
1573.9800, -60.712
1574.0000, -60.760
1574.0200, -60.747
1574.0400, -60.790
1574.0600, -60.769
1574.0800, -60.790
1574.1000, -60.814
1574.1200, -60.847
1574.1400, -60.862
1574.1600, -60.860
1574.1800, -60.907
1574.2000, -60.885
1574.2200, -60.925
1574.2400, -60.948
1574.2600, -60.933
1574.2800, -60.965
1574.3000, -60.969
1574.3200, -61.007
1574.3400, -61.009
1574.3600, -60.988
1574.3800, -61.006
1574.4000, -60.993
1574.4200, -61.011
1574.4400, -61.029
1574.4600, -61.022
1574.4800, -61.024
1574.5000, -61.044
1574.5200, -61.034
1574.5400, -61.043
1574.5600, -61.023
1574.5800, -61.033
1574.6000, -61.050
1574.6200, -61.074
1574.6400, -61.037
1574.6600, -61.067
1574.6800, -61.067
1574.7000, -61.063
1574.7200, -61.080
1574.7400, -61.078
1574.7600, -61.068
1574.7800, -61.060
1574.8000, -61.081
1574.8200, -61.110
1574.8400, -61.098
1574.8600, -61.096
1574.8800, -61.116
1574.9000, -61.144
1574.9200, -61.127
1574.9400, -61.155
1574.9600, -61.199
1574.9800, -61.186
1575.0000, -61.222
1575.0200, -61.208
1575.0400, -61.251
1575.0600, -61.263
1575.0800, -61.281
1575.1000, -61.302
1575.1200, -61.308
1575.1400, -61.319
1575.1600, -61.342
1575.1800, -61.325
1575.2000, -61.361
1575.2200, -61.325
1575.2400, -61.330
1575.2600, -61.367
1575.2800, -61.371
1575.3000, -61.405
1575.3200, -61.366
1575.3400, -61.390
1575.3600, -61.365
1575.3800, -61.349
1575.4000, -61.380
1575.4200, -61.394
1575.4400, -61.389
1575.4600, -61.390
1575.4800, -61.417
1575.5000, -61.379
1575.5200, -61.415
1575.5400, -61.402
1575.5600, -61.389
1575.5800, -61.405
1575.6000, -61.421
1575.6200, -61.454
1575.6400, -61.380
1575.6600, -61.443
1575.6800, -61.432
1575.7000, -61.465
1575.7200, -61.464
1575.7400, -61.475
1575.7600, -61.495
1575.7800, -61.514
1575.8000, -61.523
1575.8200, -61.487
1575.8400, -61.553
1575.8600, -61.536
1575.8800, -61.557
1575.9000, -61.589
1575.9200, -61.564
1575.9400, -61.632
1575.9600, -61.652
1575.9800, -61.634
1576.0000, -61.665
1576.0200, -61.676
1576.0400, -61.668
1576.0600, -61.667
1576.0800, -61.698
1576.1000, -61.668
1576.1200, -61.660
1576.1400, -61.703
1576.1600, -61.710
1576.1800, -61.693
1576.2000, -61.716
1576.2200, -61.694
1576.2400, -61.730
1576.2600, -61.746
1576.2800, -61.685
1576.3000, -61.749
1576.3200, -61.712
1576.3400, -61.690
1576.3600, -61.693
1576.3800, -61.742
1576.4000, -61.721
1576.4200, -61.742
1576.4400, -61.726
1576.4600, -61.735
1576.4800, -61.771
1576.5000, -61.719
1576.5200, -61.771
1576.5400, -61.749
1576.5600, -61.773
1576.5800, -61.801
1576.6000, -61.776
1576.6200, -61.796
1576.6400, -61.812
1576.6600, -61.808
1576.6800, -61.808
1576.7000, -61.863
1576.7200, -61.861
1576.7400, -61.861
1576.7600, -61.907
1576.7800, -61.902
1576.8000, -61.896
1576.8200, -61.912
1576.8400, -61.983
1576.8600, -61.962
1576.8800, -61.992
1576.9000, -61.945
1576.9200, -61.989
1576.9400, -61.958
1576.9600, -61.989
1576.9800, -61.991
1577.0000, -61.979
1577.0200, -62.024
1577.0400, -62.018
1577.0600, -62.036
1577.0800, -62.003
1577.1000, -62.037
1577.1200, -62.010
1577.1400, -62.005
1577.1600, -61.978
1577.1800, -62.018
1577.2000, -62.011
1577.2200, -62.014
1577.2400, -62.002
1577.2600, -61.981
1577.2800, -62.002
1577.3000, -62.053
1577.3200, -62.069
1577.3400, -62.040
1577.3600, -62.059
1577.3800, -62.059
1577.4000, -62.039
1577.4200, -62.032
1577.4400, -62.060
1577.4600, -62.102
1577.4800, -62.049
1577.5000, -62.146
1577.5200, -62.103
1577.5400, -62.139
1577.5600, -62.187
1577.5800, -62.174
1577.6000, -62.162
1577.6200, -62.133
1577.6400, -62.147
1577.6600, -62.224
1577.6800, -62.245
1577.7000, -62.212
1577.7200, -62.264
1577.7400, -62.268
1577.7600, -62.262
1577.7800, -62.298
1577.8000, -62.246
1577.8200, -62.266
1577.8400, -62.245
1577.8600, -62.271
1577.8800, -62.291
1577.9000, -62.296
1577.9200, -62.292
1577.9400, -62.250
1577.9600, -62.273
1577.9800, -62.293
1578.0000, -62.296
1578.0200, -62.298
1578.0400, -62.273
1578.0600, -62.257
1578.0800, -62.331
1578.1000, -62.304
1578.1200, -62.285
1578.1400, -62.321
1578.1600, -62.306
1578.1800, -62.330
1578.2000, -62.342
1578.2200, -62.303
1578.2400, -62.295
1578.2600, -62.397
1578.2800, -62.321
1578.3000, -62.356
1578.3200, -62.347
1578.3400, -62.365
1578.3600, -62.384
1578.3800, -62.391
1578.4000, -62.400
1578.4200, -62.388
1578.4400, -62.441
1578.4600, -62.430
1578.4800, -62.478
1578.5000, -62.429
1578.5200, -62.451
1578.5400, -62.513
1578.5600, -62.473
1578.5800, -62.546
1578.6000, -62.534
1578.6200, -62.554
1578.6400, -62.540
1578.6600, -62.508
1578.6800, -62.537
1578.7000, -62.535
1578.7200, -62.540
1578.7400, -62.578
1578.7600, -62.545
1578.7800, -62.545
1578.8000, -62.559
1578.8200, -62.534
1578.8400, -62.586
1578.8600, -62.555
1578.8800, -62.548
1578.9000, -62.549
1578.9200, -62.573
1578.9400, -62.509
1578.9600, -62.559
1578.9800, -62.601
1579.0000, -62.568
1579.0200, -62.555
1579.0400, -62.583
1579.0600, -62.557
1579.0800, -62.581
1579.1000, -62.594
1579.1200, -62.590
1579.1400, -62.645
1579.1600, -62.594
1579.1800, -62.571
1579.2000, -62.617
1579.2200, -62.624
1579.2400, -62.618
1579.2600, -62.680
1579.2800, -62.645
1579.3000, -62.685
1579.3200, -62.697
1579.3400, -62.738
1579.3600, -62.703
1579.3800, -62.741
1579.4000, -62.734
1579.4200, -62.743
1579.4400, -62.819
1579.4600, -62.751
1579.4800, -62.833
1579.5000, -62.750
1579.5200, -62.767
1579.5400, -62.797
1579.5600, -62.824
1579.5800, -62.763
1579.6000, -62.831
1579.6200, -62.796
1579.6400, -62.808
1579.6600, -62.841
1579.6800, -62.793
1579.7000, -62.824
1579.7200, -62.774
1579.7400, -62.792
1579.7600, -62.825
1579.7800, -62.782
1579.8000, -62.828
1579.8200, -62.845
1579.8400, -62.793
1579.8600, -62.855
1579.8800, -62.821
1579.9000, -62.800
1579.9200, -62.844
1579.9400, -62.858
1579.9600, -62.848
1579.9800, -62.816
1580.0000, -62.849
1580.0200, -62.887
1580.0400, -62.862
1580.0600, -62.897
1580.0800, -62.852
1580.1000, -62.864
1580.1200, -62.909
1580.1400, -62.912
1580.1600, -62.919
1580.1800, -62.904
1580.2000, -62.964
1580.2200, -62.977
1580.2400, -62.946
1580.2600, -62.974
1580.2800, -63.034
1580.3000, -63.026
1580.3200, -63.000
1580.3400, -63.016
1580.3600, -63.000
1580.3800, -63.017
1580.4000, -63.020
1580.4200, -62.999
1580.4400, -62.993
1580.4600, -63.041
1580.4800, -63.015
1580.5000, -63.048
1580.5200, -63.041
1580.5400, -63.031
1580.5600, -63.037
1580.5800, -62.998
1580.6000, -63.048
1580.6200, -63.067
1580.6400, -63.025
1580.6600, -63.047
1580.6800, -63.032
1580.7000, -63.031
1580.7200, -63.022
1580.7400, -63.093
1580.7600, -63.006
1580.7800, -63.092
1580.8000, -63.063
1580.8200, -63.064
1580.8400, -63.084
1580.8600, -63.001
1580.8800, -63.098
1580.9000, -63.039
1580.9200, -63.099
1580.9400, -63.112
1580.9600, -63.105
1580.9800, -63.087
1581.0000, -63.133
1581.0200, -63.151
1581.0400, -63.193
1581.0600, -63.159
1581.0800, -63.209
1581.1000, -63.208
1581.1200, -63.192
1581.1400, -63.234
1581.1600, -63.165
1581.1800, -63.214
1581.2000, -63.226
1581.2200, -63.204
1581.2400, -63.223
1581.2600, -63.209
1581.2800, -63.249
1581.3000, -63.228
1581.3200, -63.230
1581.3400, -63.237
1581.3600, -63.273
1581.3800, -63.223
1581.4000, -63.226
1581.4200, -63.283
1581.4400, -63.204
1581.4600, -63.246
1581.4800, -63.217
1581.5000, -63.241
1581.5200, -63.239
1581.5400, -63.243
1581.5600, -63.234
1581.5800, -63.236
1581.6000, -63.252
1581.6200, -63.263
1581.6400, -63.242
1581.6600, -63.242
1581.6800, -63.248
1581.7000, -63.274
1581.7200, -63.207
1581.7400, -63.278
1581.7600, -63.275
1581.7800, -63.313
1581.8000, -63.286
1581.8200, -63.323
1581.8400, -63.276
1581.8600, -63.281
1581.8800, -63.376
1581.9000, -63.379
1581.9200, -63.368
1581.9400, -63.379
1581.9600, -63.373
1581.9800, -63.376
1582.0000, -63.379
1582.0200, -63.435
1582.0400, -63.419
1582.0600, -63.443
1582.0800, -63.430
1582.1000, -63.442
1582.1200, -63.405
1582.1400, -63.401
1582.1600, -63.421
1582.1800, -63.495
1582.2000, -63.439
1582.2200, -63.426
1582.2400, -63.376
1582.2600, -63.458
1582.2800, -63.410
1582.3000, -63.473
1582.3200, -63.434
1582.3400, -63.427
1582.3600, -63.419
1582.3800, -63.458
1582.4000, -63.418
1582.4200, -63.474
1582.4400, -63.431
1582.4600, -63.424
1582.4800, -63.480
1582.5000, -63.441
1582.5200, -63.425
1582.5400, -63.448
1582.5600, -63.446
1582.5800, -63.430
1582.6000, -63.528
1582.6200, -63.415
1582.6400, -63.510
1582.6600, -63.486
1582.6800, -63.484
1582.7000, -63.531
1582.7200, -63.545
1582.7400, -63.484
1582.7600, -63.569
1582.7800, -63.559
1582.8000, -63.519
1582.8200, -63.634
1582.8400, -63.573
1582.8600, -63.618
1582.8800, -63.569
1582.9000, -63.603
1582.9200, -63.613
1582.9400, -63.603
1582.9600, -63.659
1582.9800, -63.639
1583.0000, -63.586
1583.0200, -63.600
1583.0400, -63.610
1583.0600, -63.599
1583.0800, -63.620
1583.1000, -63.558
1583.1200, -63.641
1583.1400, -63.577
1583.1600, -63.673
1583.1800, -63.622
1583.2000, -63.589
1583.2200, -63.614
1583.2400, -63.617
1583.2600, -63.612
1583.2800, -63.615
1583.3000, -63.633
1583.3200, -63.592
1583.3400, -63.614
1583.3600, -63.649
1583.3800, -63.635
1583.4000, -63.644
1583.4200, -63.619
1583.4400, -63.686
1583.4600, -63.670
1583.4800, -63.615
1583.5000, -63.675
1583.5200, -63.726
1583.5400, -63.716
1583.5600, -63.710
1583.5800, -63.651
1583.6000, -63.786
1583.6200, -63.747
1583.6400, -63.732
1583.6600, -63.764
1583.6800, -63.826
1583.7000, -63.778
1583.7200, -63.779
1583.7400, -63.777
1583.7600, -63.757
1583.7800, -63.783
1583.8000, -63.820
1583.8200, -63.719
1583.8400, -63.818
1583.8600, -63.785
1583.8800, -63.829
1583.9000, -63.816
1583.9200, -63.821
1583.9400, -63.779
1583.9600, -63.793
1583.9800, -63.826
1584.0000, -63.740
1584.0200, -63.813
1584.0400, -63.731
1584.0600, -63.769
1584.0800, -63.827
1584.1000, -63.815
1584.1200, -63.754
1584.1400, -63.857
1584.1600, -63.753
1584.1800, -63.762
1584.2000, -63.912
1584.2200, -63.781
1584.2400, -63.809
1584.2600, -63.800
1584.2800, -63.785
1584.3000, -63.820
1584.3200, -63.829
1584.3400, -63.804
1584.3600, -63.825
1584.3800, -63.835
1584.4000, -63.914
1584.4200, -63.866
1584.4400, -63.878
1584.4600, -63.875
1584.4800, -63.909
1584.5000, -64.020
1584.5200, -63.856
1584.5400, -63.992
1584.5600, -63.865
1584.5800, -63.913
1584.6000, -63.939
1584.6200, -63.986
1584.6400, -63.888
1584.6600, -63.898
1584.6800, -63.962
1584.7000, -63.896
1584.7200, -63.979
1584.7400, -63.997
1584.7600, -63.936
1584.7800, -63.947
1584.8000, -63.896
1584.8200, -63.907
1584.8400, -63.955
1584.8600, -63.934
1584.8800, -63.966
1584.9000, -63.882
1584.9200, -63.971
1584.9400, -63.929
1584.9600, -63.919
1584.9800, -63.935
1585.0000, -64.033
1585.0200, -63.931
1585.0400, -63.947
1585.0600, -63.979
1585.0800, -63.898
1585.1000, -63.918
1585.1200, -63.986
1585.1400, -63.910
1585.1600, -63.933
1585.1800, -64.024
1585.2000, -64.008
1585.2200, -64.038
1585.2400, -63.892
1585.2600, -64.117
1585.2800, -63.971
1585.3000, -64.025
1585.3200, -64.015
1585.3400, -64.075
1585.3600, -64.033
1585.3800, -64.075
1585.4000, -64.116
1585.4200, -64.072
1585.4400, -64.058
1585.4600, -64.081
1585.4800, -64.002
1585.5000, -64.098
1585.5200, -64.120
1585.5400, -64.071
1585.5600, -64.056
1585.5800, -64.095
1585.6000, -64.118
1585.6200, -64.127
1585.6400, -64.119
1585.6600, -64.124
1585.6800, -64.125
1585.7000, -64.079
1585.7200, -64.102
1585.7400, -64.079
1585.7600, -64.026
1585.7800, -64.057
1585.8000, -64.078
1585.8200, -64.047
1585.8400, -64.060
1585.8600, -64.112
1585.8800, -64.118
1585.9000, -64.107
1585.9200, -64.133
1585.9400, -64.037
1585.9600, -64.137
1585.9800, -64.091
1586.0000, -64.080
1586.0200, -64.126
1586.0400, -64.228
1586.0600, -64.087
1586.0800, -64.134
1586.1000, -64.144
1586.1200, -64.171
1586.1400, -64.142
1586.1600, -64.243
1586.1800, -64.139
1586.2000, -64.176
1586.2200, -64.206
1586.2400, -64.230
1586.2600, -64.210
1586.2800, -64.225
1586.3000, -64.189
1586.3200, -64.250
1586.3400, -64.191
1586.3600, -64.270
1586.3800, -64.189
1586.4000, -64.227
1586.4200, -64.219
1586.4400, -64.226
1586.4600, -64.249
1586.4800, -64.263
1586.5000, -64.226
1586.5200, -64.165
1586.5400, -64.206
1586.5600, -64.185
1586.5800, -64.173
1586.6000, -64.355
1586.6200, -64.143
1586.6400, -64.264
1586.6600, -64.177
1586.6800, -64.213
1586.7000, -64.230
1586.7200, -64.217
1586.7400, -64.240
1586.7600, -64.235
1586.7800, -64.335
1586.8000, -64.158
1586.8200, -64.325
1586.8400, -64.202
1586.8600, -64.239
1586.8800, -64.305
1586.9000, -64.277
1586.9200, -64.234
1586.9400, -64.346
1586.9600, -64.298
1586.9800, -64.300
1587.0000, -64.297
1587.0200, -64.321
1587.0400, -64.378
1587.0600, -64.258
1587.0800, -64.438
1587.1000, -64.329
1587.1200, -64.305
1587.1400, -64.394
1587.1600, -64.327
1587.1800, -64.344
1587.2000, -64.363
1587.2200, -64.431
1587.2400, -64.293
1587.2600, -64.418
1587.2800, -64.371
1587.3000, -64.379
1587.3200, -64.349
1587.3400, -64.430
1587.3600, -64.380
1587.3800, -64.389
1587.4000, -64.281
1587.4200, -64.396
1587.4400, -64.430
1587.4600, -64.303
1587.4800, -64.340
1587.5000, -64.364
1587.5200, -64.358
1587.5400, -64.447
1587.5600, -64.321
1587.5800, -64.366
1587.6000, -64.376
1587.6200, -64.405
1587.6400, -64.332
1587.6600, -64.365
1587.6800, -64.453
1587.7000, -64.336
1587.7200, -64.483
1587.7400, -64.483
1587.7600, -64.300
1587.7800, -64.435
1587.8000, -64.512
1587.8200, -64.382
1587.8400, -64.452
1587.8600, -64.372
1587.8800, -64.541
1587.9000, -64.522
1587.9200, -64.510
1587.9400, -64.500
1587.9600, -64.497
1587.9800, -64.426
1588.0000, -64.495
1588.0200, -64.522
1588.0400, -64.556
1588.0600, -64.397
1588.0800, -64.599
1588.1000, -64.525
1588.1200, -64.512
1588.1400, -64.416
1588.1600, -64.478
1588.1800, -64.538
1588.2000, -64.523
1588.2200, -64.453
1588.2400, -64.500
1588.2600, -64.512
1588.2800, -64.408
1588.3000, -64.570
1588.3200, -64.440
1588.3400, -64.449
1588.3600, -64.507
1588.3800, -64.472
1588.4000, -64.545
1588.4200, -64.492
1588.4400, -64.508
1588.4600, -64.475
1588.4800, -64.618
1588.5000, -64.502
1588.5200, -64.523
1588.5400, -64.433
1588.5600, -64.486
1588.5800, -64.565
1588.6000, -64.484
1588.6200, -64.694
1588.6400, -64.457
1588.6600, -64.602
1588.6800, -64.569
1588.7000, -64.636
1588.7200, -64.623
1588.7400, -64.601
1588.7600, -64.607
1588.7800, -64.698
1588.8000, -64.606
1588.8200, -64.600
1588.8400, -64.603
1588.8600, -64.564
1588.8800, -64.641
1588.9000, -64.617
1588.9200, -64.680
1588.9400, -64.537
1588.9600, -64.656
1588.9800, -64.629
1589.0000, -64.633
1589.0200, -64.604
1589.0400, -64.625
1589.0600, -64.637
1589.0800, -64.640
1589.1000, -64.717
1589.1200, -64.564
1589.1400, -64.614
1589.1600, -64.591
1589.1800, -64.616
1589.2000, -64.596
1589.2200, -64.611
1589.2400, -64.586
1589.2600, -64.583
1589.2800, -64.700
1589.3000, -64.639
1589.3200, -64.547
1589.3400, -64.674
1589.3600, -64.665
1589.3800, -64.663
1589.4000, -64.684
1589.4200, -64.671
1589.4400, -64.637
1589.4600, -64.679
1589.4800, -64.692
1589.5000, -64.677
1589.5200, -64.678
1589.5400, -64.682
1589.5600, -64.770
1589.5800, -64.718
1589.6000, -64.718
1589.6200, -64.734
1589.6400, -64.774
1589.6600, -64.773
1589.6800, -64.775
1589.7000, -64.737
1589.7200, -64.702
1589.7400, -64.784
1589.7600, -64.757
1589.7800, -64.772
1589.8000, -64.721
1589.8200, -64.811
1589.8400, -64.755
1589.8600, -64.683
1589.8800, -64.753
1589.9000, -64.756
1589.9200, -64.724
1589.9400, -64.733
1589.9600, -64.761
1589.9800, -64.724
1590.0000, -64.757
1590.0200, -64.687
1590.0400, -64.735
1590.0600, -64.712
1590.0800, -64.731
1590.1000, -64.790
1590.1200, -64.725
1590.1400, -64.786
1590.1600, -64.823
1590.1800, -64.788
1590.2000, -64.753
1590.2200, -64.728
1590.2400, -64.787
1590.2600, -64.784
1590.2800, -64.778
1590.3000, -64.713
1590.3200, -64.818
1590.3400, -64.833
1590.3600, -64.859
1590.3800, -64.814
1590.4000, -64.832
1590.4200, -64.852
1590.4400, -64.869
1590.4600, -64.826
1590.4800, -64.822
1590.5000, -64.875
1590.5200, -64.904
1590.5400, -64.795
1590.5600, -64.863
1590.5800, -64.952
1590.6000, -64.840
1590.6200, -64.860
1590.6400, -64.820
1590.6600, -64.834
1590.6800, -64.845
1590.7000, -64.911
1590.7200, -64.916
1590.7400, -64.798
1590.7600, -64.827
1590.7800, -64.875
1590.8000, -64.897
1590.8200, -64.792
1590.8400, -64.871
1590.8600, -64.847
1590.8800, -64.915
1590.9000, -64.885
1590.9200, -64.750
1590.9400, -64.905
1590.9600, -64.866
1590.9800, -64.866
1591.0000, -64.925
1591.0200, -64.815
1591.0400, -64.887
1591.0600, -64.894
1591.0800, -64.872
1591.1000, -64.956
1591.1200, -64.899
1591.1400, -64.968
1591.1600, -64.923
1591.1800, -64.942
1591.2000, -64.968
1591.2200, -64.995
1591.2400, -65.018
1591.2600, -64.920
1591.2800, -65.020
1591.3000, -65.053
1591.3200, -64.965
1591.3400, -64.858
1591.3600, -65.014
1591.3800, -64.996
1591.4000, -64.938
1591.4200, -65.041
1591.4400, -65.024
1591.4600, -64.996
1591.4800, -65.041
1591.5000, -65.039
1591.5200, -64.935
1591.5400, -65.013
1591.5600, -64.985
1591.5800, -64.970
1591.6000, -65.023
1591.6200, -65.005
1591.6400, -64.943
1591.6600, -65.019
1591.6800, -64.934
1591.7000, -65.016
1591.7200, -64.980
1591.7400, -65.002
1591.7600, -64.987
1591.7800, -65.031
1591.8000, -64.947
1591.8200, -65.009
1591.8400, -64.998
1591.8600, -64.995
1591.8800, -65.025
1591.9000, -65.031
1591.9200, -65.054
1591.9400, -65.021
1591.9600, -65.037
1591.9800, -65.037
1592.0000, -65.062
1592.0200, -65.066
1592.0400, -65.075
1592.0600, -65.193
1592.0800, -65.098
1592.1000, -65.066
1592.1200, -65.047
1592.1400, -65.043
1592.1600, -65.167
1592.1800, -65.156
1592.2000, -65.143
1592.2200, -65.013
1592.2400, -65.230
1592.2600, -65.112
1592.2800, -65.112
1592.3000, -65.156
1592.3200, -65.169
1592.3400, -65.098
1592.3600, -65.135
1592.3800, -65.113
1592.4000, -65.110
1592.4200, -65.055
1592.4400, -65.208
1592.4600, -65.064
1592.4800, -65.123
1592.5000, -65.011
1592.5200, -65.150
1592.5400, -65.088
1592.5600, -65.161
1592.5800, -65.139
1592.6000, -65.160
1592.6200, -65.125
1592.6400, -65.121
1592.6600, -65.138
1592.6800, -65.057
1592.7000, -65.188
1592.7200, -65.125
1592.7400, -65.127
1592.7600, -65.117
1592.7800, -65.168
1592.8000, -65.253
1592.8200, -65.166
1592.8400, -65.177
1592.8600, -65.204
1592.8800, -65.189
1592.9000, -65.209
1592.9200, -65.216
1592.9400, -65.259
1592.9600, -65.234
1592.9800, -65.249
1593.0000, -65.164
1593.0200, -65.318
1593.0400, -65.096
1593.0600, -65.225
1593.0800, -65.274
1593.1000, -65.207
1593.1200, -65.301
1593.1400, -65.249
1593.1600, -65.256
1593.1800, -65.206
1593.2000, -65.158
1593.2200, -65.241
1593.2400, -65.252
1593.2600, -65.215
1593.2800, -65.263
1593.3000, -65.184
1593.3200, -65.273
1593.3400, -65.227
1593.3600, -65.242
1593.3800, -65.289
1593.4000, -65.188
1593.4200, -65.290
1593.4400, -65.352
1593.4600, -65.215
1593.4800, -65.244
1593.5000, -65.180
1593.5200, -65.321
1593.5400, -65.221
1593.5600, -65.263
1593.5800, -65.206
1593.6000, -65.310
1593.6200, -65.268
1593.6400, -65.289
1593.6600, -65.350
1593.6800, -65.219
1593.7000, -65.392
1593.7200, -65.252
1593.7400, -65.370
1593.7600, -65.264
1593.7800, -65.351
1593.8000, -65.369
1593.8200, -65.342
1593.8400, -65.377
1593.8600, -65.283
1593.8800, -65.352
1593.9000, -65.398
1593.9200, -65.325
1593.9400, -65.301
1593.9600, -65.349
1593.9800, -65.310
1594.0000, -65.400
1594.0200, -65.316
1594.0400, -65.350
1594.0600, -65.338
1594.0800, -65.336
1594.1000, -65.287
1594.1200, -65.340
1594.1400, -65.387
1594.1600, -65.312
1594.1800, -65.359
1594.2000, -65.420
1594.2200, -65.342
1594.2400, -65.265
1594.2600, -65.443
1594.2800, -65.310
1594.3000, -65.337
1594.3200, -65.323
1594.3400, -65.373
1594.3600, -65.327
1594.3800, -65.422
1594.4000, -65.411
1594.4200, -65.342
1594.4400, -65.448
1594.4600, -65.412
1594.4800, -65.444
1594.5000, -65.530
1594.5200, -65.456
1594.5400, -65.438
1594.5600, -65.408
1594.5800, -65.498
1594.6000, -65.383
1594.6200, -65.493
1594.6400, -65.466
1594.6600, -65.440
1594.6800, -65.542
1594.7000, -65.559
1594.7200, -65.520
1594.7400, -65.446
1594.7600, -65.486
1594.7800, -65.503
1594.8000, -65.428
1594.8200, -65.429
1594.8400, -65.477
1594.8600, -65.496
1594.8800, -65.443
1594.9000, -65.500
1594.9200, -65.513
1594.9400, -65.471
1594.9600, -65.517
1594.9800, -65.427
1595.0000, -65.425
1595.0200, -65.513
1595.0400, -65.502
1595.0600, -65.475
1595.0800, -65.495
1595.1000, -65.490
1595.1200, -65.561
1595.1400, -65.383
1595.1600, -65.413
1595.1800, -65.579
1595.2000, -65.413
1595.2200, -65.591
1595.2400, -65.538
1595.2600, -65.435
1595.2800, -65.547
1595.3000, -65.493
1595.3200, -65.571
1595.3400, -65.538
1595.3600, -65.642
1595.3800, -65.520
1595.4000, -65.584
1595.4200, -65.609
1595.4400, -65.576
1595.4600, -65.598
1595.4800, -65.631
1595.5000, -65.511
1595.5200, -65.637
1595.5400, -65.647
1595.5600, -65.508
1595.5800, -65.610
1595.6000, -65.533
1595.6200, -65.677
1595.6400, -65.522
1595.6600, -65.633
1595.6800, -65.624
1595.7000, -65.510
1595.7200, -65.638
1595.7400, -65.573
1595.7600, -65.555
1595.7800, -65.584
1595.8000, -65.626
1595.8200, -65.658
1595.8400, -65.649
1595.8600, -65.600
1595.8800, -65.519
1595.9000, -65.602
1595.9200, -65.539
1595.9400, -65.643
1595.9600, -65.624
1595.9800, -65.648
1596.0000, -65.518
1596.0200, -65.711
1596.0400, -65.585
1596.0600, -65.678
1596.0800, -65.569
1596.1000, -65.603
1596.1200, -65.718
1596.1400, -65.636
1596.1600, -65.745
1596.1800, -65.606
1596.2000, -65.748
1596.2200, -65.740
1596.2400, -65.713
1596.2600, -65.695
1596.2800, -65.677
1596.3000, -65.801
1596.3200, -65.663
1596.3400, -65.707
1596.3600, -65.730
1596.3800, -65.744
1596.4000, -65.671
1596.4200, -65.768
1596.4400, -65.697
1596.4600, -65.693
1596.4800, -65.765
1596.5000, -65.746
1596.5200, -65.665
1596.5400, -65.706
1596.5600, -65.726
1596.5800, -65.732
1596.6000, -65.704
1596.6200, -65.694
1596.6400, -65.777
1596.6600, -65.730
1596.6800, -65.708
1596.7000, -65.687
1596.7200, -65.736
1596.7400, -65.693
1596.7600, -65.702
1596.7800, -65.742
1596.8000, -65.827
1596.8200, -65.634
1596.8400, -65.779
1596.8600, -65.763
1596.8800, -65.841
1596.9000, -65.678
1596.9200, -65.838
1596.9400, -65.738
1596.9600, -65.722
1596.9800, -65.822
1597.0000, -65.870
1597.0200, -65.833
1597.0400, -65.750
1597.0600, -65.783
1597.0800, -65.793
1597.1000, -65.863
1597.1200, -65.777
1597.1400, -65.786
1597.1600, -65.889
1597.1800, -65.792
1597.2000, -65.941
1597.2200, -65.832
1597.2400, -65.769
1597.2600, -65.812
1597.2800, -65.870
1597.3000, -65.911
1597.3200, -65.859
1597.3400, -65.766
1597.3600, -65.686
1597.3800, -65.944
1597.4000, -65.846
1597.4200, -65.769
1597.4400, -65.817
1597.4600, -65.805
1597.4800, -65.941
1597.5000, -65.814
1597.5200, -65.930
1597.5400, -65.763
1597.5600, -65.850
1597.5800, -65.782
1597.6000, -65.847
1597.6200, -65.875
1597.6400, -65.778
1597.6600, -65.877
1597.6800, -65.903
1597.7000, -65.847
1597.7200, -65.966
1597.7400, -65.848
1597.7600, -65.875
1597.7800, -65.826
1597.8000, -65.888
1597.8200, -65.955
1597.8400, -65.909
1597.8600, -65.863
1597.8800, -66.008
1597.9000, -65.886
1597.9200, -66.007
1597.9400, -65.873
1597.9600, -65.977
1597.9800, -65.935
1598.0000, -65.989
1598.0200, -65.829
1598.0400, -65.992
1598.0600, -65.936
1598.0800, -65.907
1598.1000, -66.029
1598.1200, -65.925
1598.1400, -65.971
1598.1600, -65.922
1598.1800, -65.962
1598.2000, -65.833
1598.2200, -66.013
1598.2400, -65.896
1598.2600, -65.842
1598.2800, -65.930
1598.3000, -66.057
1598.3200, -65.902
1598.3400, -65.984
1598.3600, -65.919
1598.3800, -65.956
1598.4000, -66.003
1598.4200, -65.905
1598.4400, -65.940
1598.4600, -65.978
1598.4800, -65.972
1598.5000, -65.917
1598.5200, -65.980
1598.5400, -66.010
1598.5600, -66.033
1598.5800, -65.881
1598.6000, -66.103
1598.6200, -66.008
1598.6400, -66.017
1598.6600, -66.022
1598.6800, -66.065
1598.7000, -66.095
1598.7200, -66.066
1598.7400, -66.017
1598.7600, -66.092
1598.7800, -65.979
1598.8000, -66.012
1598.8200, -66.084
1598.8400, -66.063
1598.8600, -66.083
1598.8800, -66.006
1598.9000, -65.982
1598.9200, -66.197
1598.9400, -66.041
1598.9600, -66.082
1598.9800, -66.038
1599.0000, -66.029
1599.0200, -66.144
1599.0400, -66.031
1599.0600, -66.036
1599.0800, -66.076
1599.1000, -66.084
1599.1200, -66.087
1599.1400, -66.139
1599.1600, -66.046
1599.1800, -66.067
1599.2000, -66.079
1599.2200, -66.086
1599.2400, -66.136
1599.2600, -66.108
1599.2800, -66.142
1599.3000, -66.177
1599.3200, -66.086
1599.3400, -66.004
1599.3600, -66.082
1599.3800, -66.053
1599.4000, -66.222
1599.4200, -66.102
1599.4400, -66.189
1599.4600, -66.047
1599.4800, -66.167
1599.5000, -66.142
1599.5200, -66.177
1599.5400, -66.101
1599.5600, -66.170
1599.5800, -66.147
1599.6000, -66.252
1599.6200, -66.124
1599.6400, -66.195
1599.6600, -66.215
1599.6800, -66.311
1599.7000, -66.131
1599.7200, -66.167
1599.7400, -66.181
1599.7600, -66.244
1599.7800, -66.257
1599.8000, -66.249
1599.8200, -66.137
1599.8400, -66.179
1599.8600, -66.225
1599.8800, -66.168
1599.9000, -66.327
1599.9200, -66.260
1599.9400, -66.098
1599.9600, -66.190
1599.9800, -66.202
1600.0000, -66.227
