70BCSV 	
// AQ6370B OPTICAL SPECTRUM ANALYZER //                 
25
"CTRWL",1550.000000
"SPAN", 100.000000
"START WL",1500.000000
"STOP WL",1600.000000
"WLFREQ", 0
"REFL",-62.8
"LSCL", 5.0
"RESLN",0.100
"AVG",   1
"SMPLAUTO",      0
"SMPL",       5001
"SMPLINTVL",0.0200
"HIGH1"
"MEAS"
"LSUNT",0
"NMSKH","OFF"
"RESCOR",0
"RESPARM", 9050
"FREQPARM", 9050






"[TRACE DATA]"
1500.0000, -81.749
1500.0200,-105.986
1500.0400, -84.170
1500.0600, -87.191
1500.0800,-111.378
1500.1000, -84.294
1500.1200, -87.177
1500.1400,-210.000
1500.1600, -81.666
1500.1800,-210.000
1500.2000, -88.741
1500.2200, -86.024
1500.2400, -84.697
1500.2600, -81.931
1500.2800, -96.344
1500.3000, -87.925
1500.3200, -83.786
1500.3400, -88.082
1500.3600, -84.568
1500.3800, -83.713
1500.4000,-210.000
1500.4200, -86.063
1500.4400, -90.250
1500.4600, -84.828
1500.4800, -87.958
1500.5000, -86.697
1500.5200, -81.672
1500.5400, -84.770
1500.5600, -84.249
1500.5800, -81.978
1500.6000, -81.994
1500.6200, -85.230
1500.6400,-210.000
1500.6600, -82.661
1500.6800, -86.946
1500.7000,-210.000
1500.7200, -81.659
1500.7400,-210.000
1500.7600, -81.060
1500.7800, -88.377
1500.8000, -88.714
1500.8200,-210.000
1500.8400, -82.853
1500.8600,-101.251
1500.8800, -81.773
1500.9000, -85.562
1500.9200, -83.619
1500.9400, -85.608
1500.9600, -85.801
1500.9800, -82.753
1501.0000, -83.166
1501.0200,-210.000
1501.0400, -83.687
1501.0600, -83.056
1501.0800, -88.063
1501.1000, -83.409
1501.1200,-210.000
1501.1400, -82.910
1501.1600, -84.737
1501.1800, -87.286
1501.2000, -83.884
1501.2200, -82.778
1501.2400, -83.464
1501.2600, -89.369
1501.2800,-210.000
1501.3000, -89.774
1501.3200, -83.952
1501.3400, -87.291
1501.3600, -85.066
1501.3800, -83.517
1501.4000, -86.292
1501.4200, -81.987
1501.4400, -87.247
1501.4600, -83.845
1501.4800, -87.890
1501.5000, -84.528
1501.5200, -83.641
1501.5400, -84.914
1501.5600, -84.577
1501.5800, -84.733
1501.6000, -84.324
1501.6200, -88.417
1501.6400,-102.573
1501.6600, -84.576
1501.6800, -85.628
1501.7000, -84.340
1501.7200, -85.597
1501.7400, -85.663
1501.7600, -85.844
1501.7800, -87.580
1501.8000,-210.000
1501.8200, -86.109
1501.8400, -85.990
1501.8600, -86.905
1501.8800, -94.555
1501.9000, -92.767
1501.9200, -82.434
1501.9400, -86.722
1501.9600, -86.616
1501.9800, -84.836
1502.0000, -82.416
1502.0200,-210.000
1502.0400, -89.017
1502.0600, -83.195
1502.0800, -82.983
1502.1000, -94.489
1502.1200, -84.547
1502.1400, -89.316
1502.1600, -84.355
1502.1800, -89.388
1502.2000, -83.754
1502.2200, -83.697
1502.2400, -85.270
1502.2600, -85.740
1502.2800,-210.000
1502.3000, -82.364
1502.3200, -80.686
1502.3400, -83.283
1502.3600, -87.447
1502.3800, -89.166
1502.4000, -82.134
1502.4200, -84.724
1502.4400, -82.911
1502.4600, -84.070
1502.4800, -82.715
1502.5000, -89.169
1502.5200, -85.780
1502.5400, -82.847
1502.5600, -85.117
1502.5800,-210.000
1502.6000,-210.000
1502.6200, -80.755
1502.6400, -83.296
1502.6600, -84.037
1502.6800, -82.932
1502.7000, -85.833
1502.7200, -83.490
1502.7400, -86.600
1502.7600, -85.488
1502.7800, -84.701
1502.8000, -85.337
1502.8200, -86.495
1502.8400, -90.637
1502.8600, -82.137
1502.8800, -83.607
1502.9000, -83.057
1502.9200, -83.915
1502.9400, -83.954
1502.9600, -89.710
1502.9800, -84.312
1503.0000, -83.628
1503.0200, -92.338
1503.0400, -83.297
1503.0600, -85.511
1503.0800, -93.503
1503.1000, -92.034
1503.1200, -81.799
1503.1400, -81.807
1503.1600, -84.773
1503.1800, -87.154
1503.2000, -91.310
1503.2200, -81.679
1503.2400, -88.779
1503.2600, -82.111
1503.2800, -94.201
1503.3000,-210.000
1503.3200, -87.229
1503.3400, -87.055
1503.3600,-210.000
1503.3800, -84.595
1503.4000, -86.621
1503.4200, -83.688
1503.4400, -84.125
1503.4600, -86.603
1503.4800, -82.900
1503.5000, -91.392
1503.5200, -82.507
1503.5400, -84.827
1503.5600, -87.143
1503.5800, -85.533
1503.6000, -82.904
1503.6200, -86.079
1503.6400, -95.540
1503.6600, -84.564
1503.6800, -87.814
1503.7000, -83.717
1503.7200, -82.658
1503.7400, -85.346
1503.7600, -86.258
1503.7800, -84.568
1503.8000,-210.000
1503.8200, -79.813
1503.8400, -95.238
1503.8600, -94.526
1503.8800, -86.800
1503.9000, -80.357
1503.9200, -86.412
1503.9400, -87.955
1503.9600, -82.774
1503.9800, -84.118
1504.0000,-111.745
1504.0200, -86.113
1504.0400, -86.974
1504.0600, -86.739
1504.0800, -92.577
1504.1000, -88.125
1504.1200, -86.285
1504.1400, -80.338
1504.1600, -85.552
1504.1800,-210.000
1504.2000, -83.282
1504.2200, -83.404
1504.2400, -87.472
1504.2600, -86.475
1504.2800, -83.078
1504.3000, -90.221
1504.3200, -85.685
1504.3400, -86.939
1504.3600, -83.594
1504.3800, -99.513
1504.4000, -82.043
1504.4200, -82.081
1504.4400, -83.757
1504.4600, -89.783
1504.4800, -83.987
1504.5000,-210.000
1504.5200, -82.872
1504.5400, -86.219
1504.5600, -89.504
1504.5800, -82.379
1504.6000, -88.195
1504.6200,-210.000
1504.6400, -90.164
1504.6600, -83.989
1504.6800, -83.273
1504.7000, -84.976
1504.7200,-210.000
1504.7400, -93.897
1504.7600, -81.891
1504.7800, -97.402
1504.8000, -83.592
1504.8200,-210.000
1504.8400, -83.038
1504.8600, -86.301
1504.8800, -84.255
1504.9000, -82.739
1504.9200, -86.019
1504.9400, -81.974
1504.9600, -81.227
1504.9800,-210.000
1505.0000, -85.168
1505.0200, -81.628
1505.0400, -93.527
1505.0600, -85.255
1505.0800, -86.248
1505.1000, -84.605
1505.1200, -82.019
1505.1400, -93.325
1505.1600,-210.000
1505.1800, -83.348
1505.2000, -85.127
1505.2200, -94.477
1505.2400, -81.451
1505.2600, -87.692
1505.2800, -81.963
1505.3000, -81.751
1505.3200, -87.210
1505.3400, -81.207
1505.3600,-210.000
1505.3800, -80.692
1505.4000, -83.174
1505.4200, -90.216
1505.4400, -87.068
1505.4600, -81.929
1505.4800, -86.362
1505.5000,-210.000
1505.5200, -83.734
1505.5400, -91.656
1505.5600, -82.040
1505.5800, -82.075
1505.6000, -92.687
1505.6200, -83.687
1505.6400, -81.930
1505.6600,-210.000
1505.6800, -83.586
1505.7000, -85.645
1505.7200, -86.745
1505.7400, -84.457
1505.7600, -85.315
1505.7800, -80.902
1505.8000,-210.000
1505.8200, -88.792
1505.8400,-210.000
1505.8600, -81.771
1505.8800, -81.752
1505.9000, -84.553
1505.9200,-210.000
1505.9400, -81.976
1505.9600, -83.533
1505.9800, -84.620
1506.0000, -89.268
1506.0200, -82.924
1506.0400, -86.632
1506.0600, -85.366
1506.0800, -87.109
1506.1000, -86.454
1506.1200, -87.352
1506.1400,-210.000
1506.1600,-210.000
1506.1800, -83.124
1506.2000, -83.396
1506.2200,-210.000
1506.2400, -82.157
1506.2600, -81.879
1506.2800, -83.763
1506.3000, -82.307
1506.3200,-210.000
1506.3400, -84.452
1506.3600, -83.849
1506.3800, -83.868
1506.4000,-210.000
1506.4200, -95.094
1506.4400, -83.821
1506.4600, -84.033
1506.4800,-210.000
1506.5000,-210.000
1506.5200, -80.501
1506.5400, -84.649
1506.5600, -84.078
1506.5800, -84.617
1506.6000,-210.000
1506.6200, -80.283
1506.6400, -86.691
1506.6600,-210.000
1506.6800, -80.694
1506.7000, -86.566
1506.7200, -84.910
1506.7400, -84.431
1506.7600, -84.239
1506.7800, -86.604
1506.8000, -94.486
1506.8200, -83.013
1506.8400, -90.967
1506.8600, -85.185
1506.8800, -83.305
1506.9000, -83.434
1506.9200,-106.767
1506.9400, -89.467
1506.9600, -83.914
1506.9800, -83.772
1507.0000, -83.170
1507.0200, -86.260
1507.0400, -88.775
1507.0600, -84.088
1507.0800, -82.944
1507.1000, -95.077
1507.1200, -83.604
1507.1400, -84.851
1507.1600, -84.242
1507.1800, -86.492
1507.2000,-210.000
1507.2200, -88.287
1507.2400, -81.331
1507.2600, -84.393
1507.2800, -86.754
1507.3000, -85.947
1507.3200, -84.635
1507.3400, -82.749
1507.3600, -82.762
1507.3800, -85.398
1507.4000, -84.524
1507.4200, -83.587
1507.4400, -89.590
1507.4600, -86.613
1507.4800, -83.587
1507.5000, -87.836
1507.5200,-210.000
1507.5400, -81.253
1507.5600, -83.367
1507.5800,-210.000
1507.6000, -83.261
1507.6200, -83.415
1507.6400,-210.000
1507.6600,-210.000
1507.6800, -79.428
1507.7000,-210.000
1507.7200, -82.991
1507.7400, -81.617
1507.7600, -84.773
1507.7800, -88.045
1507.8000, -82.735
1507.8200, -84.692
1507.8400,-210.000
1507.8600, -83.543
1507.8800, -85.795
1507.9000, -87.681
1507.9200,-210.000
1507.9400, -81.964
1507.9600, -88.738
1507.9800, -85.175
1508.0000, -83.551
1508.0200, -83.790
1508.0400, -93.314
1508.0600, -80.900
1508.0800, -88.643
1508.1000, -80.837
1508.1200,-210.000
1508.1400, -84.223
1508.1600, -81.593
1508.1800,-210.000
1508.2000, -81.266
1508.2200, -86.534
1508.2400, -83.724
1508.2600,-210.000
1508.2800, -82.534
1508.3000, -91.355
1508.3200, -86.021
1508.3400, -86.229
1508.3600,-210.000
1508.3800, -83.945
1508.4000,-210.000
1508.4200, -82.409
1508.4400,-210.000
1508.4600, -83.071
1508.4800, -82.383
1508.5000, -86.620
1508.5200, -93.833
1508.5400, -88.758
1508.5600, -85.069
1508.5800, -86.087
1508.6000, -81.692
1508.6200, -82.741
1508.6400, -83.927
1508.6600, -89.455
1508.6800, -83.224
1508.7000, -97.600
1508.7200, -84.415
1508.7400, -83.305
1508.7600, -83.898
1508.7800, -85.421
1508.8000, -86.274
1508.8200, -83.141
1508.8400, -83.350
1508.8600, -85.254
1508.8800, -86.183
1508.9000, -84.018
1508.9200,-102.695
1508.9400, -82.552
1508.9600,-103.485
1508.9800, -85.140
1509.0000, -84.111
1509.0200, -87.183
1509.0400, -89.730
1509.0600, -83.129
1509.0800, -88.130
1509.1000, -82.876
1509.1200, -85.720
1509.1400, -82.890
1509.1600,-210.000
1509.1800,-210.000
1509.2000, -82.022
1509.2200, -82.770
1509.2400, -83.814
1509.2600, -86.874
1509.2800, -86.953
1509.3000, -98.721
1509.3200, -81.721
1509.3400, -82.618
1509.3600, -83.908
1509.3800, -90.264
1509.4000, -82.718
1509.4200, -91.641
1509.4400, -83.592
1509.4600,-210.000
1509.4800, -82.414
1509.5000, -92.298
1509.5200, -81.735
1509.5400, -87.610
1509.5600, -80.894
1509.5800, -81.739
1509.6000, -89.523
1509.6200, -85.774
1509.6400, -86.158
1509.6600, -84.761
1509.6800, -86.797
1509.7000, -85.043
1509.7200,-210.000
1509.7400, -88.625
1509.7600, -81.141
1509.7800, -81.778
1509.8000,-210.000
1509.8200, -82.690
1509.8400,-210.000
1509.8600, -88.250
1509.8800,-210.000
1509.9000, -84.166
1509.9200, -83.506
1509.9400, -93.339
1509.9600, -84.520
1509.9800, -84.205
1510.0000, -85.256
1510.0200, -84.594
1510.0400, -85.000
1510.0600, -88.186
1510.0800, -83.481
1510.1000, -88.293
1510.1200, -86.304
1510.1400, -85.420
1510.1600, -83.974
1510.1800, -84.741
1510.2000, -81.828
1510.2200, -84.628
1510.2400, -84.749
1510.2600, -88.909
1510.2800, -89.391
1510.3000, -82.289
1510.3200, -87.838
1510.3400, -88.229
1510.3600, -81.473
1510.3800, -85.428
1510.4000, -86.691
1510.4200,-210.000
1510.4400, -83.103
1510.4600, -84.191
1510.4800, -86.310
1510.5000, -87.919
1510.5200,-103.854
1510.5400, -82.500
1510.5600, -82.254
1510.5800, -87.189
1510.6000, -84.755
1510.6200, -82.632
1510.6400, -86.980
1510.6600, -84.638
1510.6800, -86.204
1510.7000,-210.000
1510.7200, -83.408
1510.7400, -85.907
1510.7600, -82.208
1510.7800,-210.000
1510.8000, -84.995
1510.8200, -85.174
1510.8400, -83.093
1510.8600, -82.400
1510.8800,-210.000
1510.9000, -88.862
1510.9200, -82.323
1510.9400, -83.751
1510.9600, -85.520
1510.9800, -85.655
1511.0000,-210.000
1511.0200, -87.097
1511.0400, -88.310
1511.0600, -85.166
1511.0800, -82.202
1511.1000, -86.343
1511.1200, -83.213
1511.1400, -84.607
1511.1600, -98.118
1511.1800, -82.668
1511.2000,-210.000
1511.2200, -81.108
1511.2400, -86.338
1511.2600, -82.119
1511.2800,-210.000
1511.3000, -81.527
1511.3200,-210.000
1511.3400, -83.010
1511.3600, -81.181
1511.3800, -86.780
1511.4000, -89.479
1511.4200,-210.000
1511.4400, -85.067
1511.4600, -83.628
1511.4800, -83.637
1511.5000, -83.901
1511.5200, -81.369
1511.5400,-210.000
1511.5600, -82.224
1511.5800, -81.722
1511.6000, -85.932
1511.6200, -85.122
1511.6400,-210.000
1511.6600, -91.231
1511.6800, -81.008
1511.7000,-210.000
1511.7200, -84.822
1511.7400, -86.066
1511.7600, -82.106
1511.7800, -92.206
1511.8000, -84.598
1511.8200, -91.925
1511.8400, -83.083
1511.8600, -83.124
1511.8800, -87.028
1511.9000, -92.603
1511.9200, -85.707
1511.9400, -95.702
1511.9600, -82.848
1511.9800,-210.000
1512.0000, -84.607
1512.0200, -86.332
1512.0400,-210.000
1512.0600, -81.883
1512.0800, -83.167
1512.1000,-210.000
1512.1200,-210.000
1512.1400, -83.573
1512.1600, -83.892
1512.1800,-210.000
1512.2000, -80.757
1512.2200, -89.687
1512.2400, -88.612
1512.2600, -86.907
1512.2800, -84.961
1512.3000,-210.000
1512.3200, -84.830
1512.3400, -91.236
1512.3600, -84.505
1512.3800, -81.355
1512.4000, -84.320
1512.4200, -85.005
1512.4400,-210.000
1512.4600, -81.767
1512.4800,-210.000
1512.5000, -82.079
1512.5200, -87.555
1512.5400, -83.818
1512.5600, -84.447
1512.5800, -84.313
1512.6000, -89.310
1512.6200, -83.141
1512.6400,-210.000
1512.6600, -82.817
1512.6800,-210.000
1512.7000, -87.932
1512.7200, -83.948
1512.7400, -94.618
1512.7600, -88.225
1512.7800, -82.523
1512.8000,-210.000
1512.8200,-112.104
1512.8400, -87.500
1512.8600, -84.958
1512.8800, -82.230
1512.9000, -85.206
1512.9200, -83.526
1512.9400, -85.781
1512.9600,-210.000
1512.9800, -84.036
1513.0000, -83.306
1513.0200, -82.652
1513.0400, -84.818
1513.0600, -84.959
1513.0800, -87.716
1513.1000, -88.849
1513.1200, -91.747
1513.1400, -83.938
1513.1600, -83.581
1513.1800, -83.891
1513.2000, -86.700
1513.2200, -82.381
1513.2400,-102.833
1513.2600, -88.566
1513.2800, -88.218
1513.3000, -89.147
1513.3200, -88.079
1513.3400, -90.812
1513.3600, -88.193
1513.3800, -81.546
1513.4000, -88.578
1513.4200, -88.239
1513.4400, -80.910
1513.4600, -86.364
1513.4800, -88.305
1513.5000, -88.599
1513.5200, -83.766
1513.5400, -93.857
1513.5600, -80.715
1513.5800, -85.317
1513.6000, -95.309
1513.6200, -86.430
1513.6400, -86.934
1513.6600, -83.961
1513.6800, -83.064
1513.7000, -87.391
1513.7200, -81.887
1513.7400, -86.238
1513.7600,-210.000
1513.7800, -90.643
1513.8000, -85.797
1513.8200, -83.260
1513.8400,-210.000
1513.8600, -85.837
1513.8800, -83.530
1513.9000, -83.598
1513.9200, -85.150
1513.9400, -88.969
1513.9600, -83.092
1513.9800,-210.000
1514.0000, -82.033
1514.0200,-210.000
1514.0400, -82.747
1514.0600,-210.000
1514.0800, -83.731
1514.1000, -84.323
1514.1200, -80.848
1514.1400, -90.892
1514.1600, -86.301
1514.1800, -83.365
1514.2000, -86.520
1514.2200, -85.060
1514.2400, -85.743
1514.2600,-210.000
1514.2800, -83.337
1514.3000,-210.000
1514.3200, -85.963
1514.3400,-210.000
1514.3600, -81.387
1514.3800,-210.000
1514.4000, -80.656
1514.4200, -89.424
1514.4400, -83.413
1514.4600, -83.148
1514.4800, -83.251
1514.5000, -82.488
1514.5200, -83.832
1514.5400, -90.152
1514.5600, -85.347
1514.5800, -83.246
1514.6000,-210.000
1514.6200, -82.878
1514.6400, -88.319
1514.6600, -89.459
1514.6800,-210.000
1514.7000, -82.364
1514.7200, -82.319
1514.7400, -87.512
1514.7600,-210.000
1514.7800, -84.664
1514.8000, -82.721
1514.8200, -84.930
1514.8400, -82.434
1514.8600, -93.427
1514.8800, -84.555
1514.9000, -82.064
1514.9200, -86.703
1514.9400, -81.808
1514.9600,-210.000
1514.9800, -82.437
1515.0000,-210.000
1515.0200, -92.777
1515.0400, -84.452
1515.0600, -84.039
1515.0800, -87.367
1515.1000, -84.347
1515.1200,-210.000
1515.1400, -89.164
1515.1600, -88.124
1515.1800, -82.074
1515.2000, -93.893
1515.2200, -82.995
1515.2400, -88.475
1515.2600,-210.000
1515.2800, -89.197
1515.3000, -81.810
1515.3200, -89.115
1515.3400, -83.365
1515.3600, -87.149
1515.3800, -83.066
1515.4000,-210.000
1515.4200, -82.298
1515.4400, -83.861
1515.4600, -90.611
1515.4800, -89.820
1515.5000, -91.565
1515.5200,-210.000
1515.5400, -86.353
1515.5600, -81.393
1515.5800, -85.895
1515.6000, -84.124
1515.6200,-210.000
1515.6400,-101.270
1515.6600, -83.530
1515.6800, -82.550
1515.7000, -86.888
1515.7200,-210.000
1515.7400, -79.987
1515.7600,-210.000
1515.7800, -81.868
1515.8000,-210.000
1515.8200, -81.298
1515.8400, -84.250
1515.8600, -82.867
1515.8800,-210.000
1515.9000, -84.507
1515.9200,-210.000
1515.9400, -84.433
1515.9600, -83.137
1515.9800, -96.516
1516.0000,-210.000
1516.0200, -82.734
1516.0400, -82.950
1516.0600,-210.000
1516.0800, -94.677
1516.1000, -82.096
1516.1200, -93.294
1516.1400, -93.470
1516.1600,-210.000
1516.1800, -80.941
1516.2000, -85.638
1516.2200, -85.704
1516.2400, -84.188
1516.2600, -84.762
1516.2800, -85.575
1516.3000, -87.760
1516.3200, -86.029
1516.3400, -84.565
1516.3600, -84.173
1516.3800, -94.481
1516.4000, -83.212
1516.4200, -85.183
1516.4400, -98.831
1516.4600, -88.249
1516.4800, -90.132
1516.5000, -83.227
1516.5200,-210.000
1516.5400, -83.587
1516.5600, -86.118
1516.5800, -95.569
1516.6000, -82.853
1516.6200, -91.358
1516.6400, -82.455
1516.6600,-210.000
1516.6800, -81.107
1516.7000, -83.173
1516.7200, -87.221
1516.7400, -83.102
1516.7600,-210.000
1516.7800, -82.962
1516.8000,-210.000
1516.8200, -83.131
1516.8400, -85.807
1516.8600, -87.533
1516.8800, -83.730
1516.9000, -90.696
1516.9200,-210.000
1516.9400, -79.819
1516.9600, -93.066
1516.9800, -89.854
1517.0000,-210.000
1517.0200, -80.921
1517.0400,-210.000
1517.0600, -81.181
1517.0800,-210.000
1517.1000, -82.925
1517.1200, -87.173
1517.1400, -87.194
1517.1600, -83.237
1517.1800, -82.974
1517.2000, -81.024
1517.2200,-210.000
1517.2400, -85.050
1517.2600, -81.589
1517.2800, -95.869
1517.3000, -87.814
1517.3200, -84.120
1517.3400, -88.780
1517.3600, -82.115
1517.3800, -87.176
1517.4000, -84.433
1517.4200, -86.589
1517.4400,-210.000
1517.4600, -80.141
1517.4800, -88.215
1517.5000, -85.680
1517.5200,-210.000
1517.5400, -82.703
1517.5600, -83.879
1517.5800, -94.417
1517.6000, -89.383
1517.6200, -85.683
1517.6400, -85.059
1517.6600, -81.359
1517.6800, -85.782
1517.7000, -89.726
1517.7200,-210.000
1517.7400, -83.189
1517.7600, -83.992
1517.7800, -83.955
1517.8000, -82.988
1517.8200, -85.622
1517.8400, -85.689
1517.8600, -85.429
1517.8800, -90.069
1517.9000, -84.814
1517.9200, -84.715
1517.9400, -90.305
1517.9600, -92.086
1517.9800, -86.815
1518.0000, -86.895
1518.0200, -85.290
1518.0400, -85.471
1518.0600, -81.512
1518.0800, -86.405
1518.1000,-210.000
1518.1200, -84.061
1518.1400, -85.876
1518.1600, -84.947
1518.1800, -82.539
1518.2000, -94.298
1518.2200,-210.000
1518.2400, -84.554
1518.2600, -87.677
1518.2800, -90.934
1518.3000, -88.526
1518.3200,-210.000
1518.3400, -90.500
1518.3600, -83.316
1518.3800, -81.975
1518.4000, -91.100
1518.4200, -95.829
1518.4400, -84.473
1518.4600, -82.146
1518.4800,-210.000
1518.5000,-210.000
1518.5200, -84.057
1518.5400,-210.000
1518.5600, -84.324
1518.5800,-210.000
1518.6000, -83.803
1518.6200, -85.827
1518.6400, -83.935
1518.6600,-210.000
1518.6800, -84.432
1518.7000, -86.721
1518.7200,-210.000
1518.7400, -85.685
1518.7600, -84.348
1518.7800, -87.055
1518.8000, -84.405
1518.8200, -84.901
1518.8400, -84.056
1518.8600, -85.558
1518.8800, -88.196
1518.9000, -86.582
1518.9200, -93.174
1518.9400, -84.662
1518.9600, -81.974
1518.9800, -95.353
1519.0000, -85.692
1519.0200, -82.405
1519.0400, -85.468
1519.0600, -85.684
1519.0800,-210.000
1519.1000, -83.387
1519.1200, -85.447
1519.1400, -82.253
1519.1600, -97.898
1519.1800, -87.855
1519.2000, -99.383
1519.2200, -81.768
1519.2400,-210.000
1519.2600, -79.681
1519.2800, -86.095
1519.3000, -86.005
1519.3200, -85.598
1519.3400, -89.753
1519.3600,-210.000
1519.3800, -92.331
1519.4000, -81.962
1519.4200,-210.000
1519.4400, -85.943
1519.4600, -88.050
1519.4800, -89.578
1519.5000, -87.721
1519.5200, -85.869
1519.5400, -80.869
1519.5600, -85.555
1519.5800, -80.949
1519.6000, -84.163
1519.6200,-210.000
1519.6400, -89.686
1519.6600, -87.207
1519.6800, -92.707
1519.7000, -82.395
1519.7200, -81.540
1519.7400, -84.754
1519.7600, -85.385
1519.7800, -89.544
1519.8000, -82.709
1519.8200, -84.003
1519.8400, -85.891
1519.8600, -86.520
1519.8800,-210.000
1519.9000, -80.359
1519.9200, -83.821
1519.9400, -92.221
1519.9600, -83.124
1519.9800, -85.094
1520.0000, -83.669
1520.0200, -85.242
1520.0400, -87.297
1520.0600, -85.900
1520.0800, -84.168
1520.1000,-210.000
1520.1200, -84.077
1520.1400, -83.300
1520.1600, -88.052
1520.1800,-210.000
1520.2000, -83.155
1520.2200, -84.363
1520.2400, -81.928
1520.2600, -93.901
1520.2800, -92.226
1520.3000, -90.517
1520.3200, -84.407
1520.3400,-210.000
1520.3600, -81.016
1520.3800, -83.934
1520.4000, -84.698
1520.4200, -81.767
1520.4400, -86.976
1520.4600, -84.581
1520.4800,-210.000
1520.5000, -82.513
1520.5200,-210.000
1520.5400, -84.252
1520.5600,-210.000
1520.5800, -80.607
1520.6000, -92.067
1520.6200, -84.036
1520.6400,-210.000
1520.6600, -86.732
1520.6800, -87.572
1520.7000,-210.000
1520.7200, -83.664
1520.7400, -84.314
1520.7600,-210.000
1520.7800, -83.609
1520.8000, -88.890
1520.8200, -94.179
1520.8400, -82.542
1520.8600,-210.000
1520.8800, -80.684
1520.9000,-210.000
1520.9200, -81.468
1520.9400, -85.773
1520.9600, -82.557
1520.9800, -97.711
1521.0000, -84.293
1521.0200,-210.000
1521.0400,-210.000
1521.0600, -83.865
1521.0800, -81.018
1521.1000,-210.000
1521.1200, -88.542
1521.1400, -82.996
1521.1600, -89.317
1521.1800, -82.934
1521.2000, -94.321
1521.2200,-210.000
1521.2400, -84.814
1521.2600, -83.069
1521.2800, -83.350
1521.3000,-210.000
1521.3200, -83.678
1521.3400,-210.000
1521.3600, -81.868
1521.3800,-210.000
1521.4000, -85.371
1521.4200, -80.417
1521.4400, -88.983
1521.4600, -95.090
1521.4800, -84.613
1521.5000,-210.000
1521.5200, -94.177
1521.5400, -82.492
1521.5600,-210.000
1521.5800, -81.000
1521.6000, -85.508
1521.6200, -89.660
1521.6400, -88.265
1521.6600, -85.106
1521.6800, -86.552
1521.7000, -89.019
1521.7200,-210.000
1521.7400, -81.992
1521.7600, -85.950
1521.7800,-210.000
1521.8000,-210.000
1521.8200, -87.119
1521.8400,-210.000
1521.8600, -80.078
1521.8800, -85.386
1521.9000, -82.898
1521.9200,-210.000
1521.9400, -83.683
1521.9600, -82.446
1521.9800, -85.863
1522.0000, -87.942
1522.0200, -86.040
1522.0400, -93.105
1522.0600, -88.107
1522.0800, -84.758
1522.1000,-210.000
1522.1200, -82.932
1522.1400, -86.342
1522.1600, -84.836
1522.1800, -94.594
1522.2000, -88.652
1522.2200, -85.719
1522.2400,-210.000
1522.2600, -81.643
1522.2800, -82.835
1522.3000,-210.000
1522.3200,-210.000
1522.3400, -81.793
1522.3600, -86.329
1522.3800, -82.602
1522.4000, -86.501
1522.4200,-210.000
1522.4400, -85.611
1522.4600, -87.891
1522.4800, -82.446
1522.5000, -87.658
1522.5200, -82.529
1522.5400,-210.000
1522.5600,-210.000
1522.5800, -81.795
1522.6000,-210.000
1522.6200, -89.244
1522.6400, -84.624
1522.6600, -83.763
1522.6800, -83.227
1522.7000, -90.090
1522.7200,-210.000
1522.7400, -83.855
1522.7600, -82.031
1522.7800, -87.772
1522.8000, -82.017
1522.8200, -91.666
1522.8400,-210.000
1522.8600, -88.903
1522.8800, -84.437
1522.9000, -85.215
1522.9200, -85.610
1522.9400,-210.000
1522.9600, -86.141
1522.9800, -84.158
1523.0000, -84.179
1523.0200, -92.281
1523.0400, -97.207
1523.0600, -87.315
1523.0800, -84.536
1523.1000, -88.725
1523.1200, -92.947
1523.1400, -85.050
1523.1600, -86.063
1523.1800, -83.206
1523.2000, -84.126
1523.2200, -88.644
1523.2400,-210.000
1523.2600, -80.348
1523.2800,-210.000
1523.3000,-210.000
1523.3200,-210.000
1523.3400, -80.991
1523.3600, -96.668
1523.3800, -85.005
1523.4000, -84.245
1523.4200, -85.115
1523.4400, -96.344
1523.4600, -93.661
1523.4800, -83.828
1523.5000, -85.309
1523.5200, -80.843
1523.5400, -87.709
1523.5600, -85.446
1523.5800, -85.070
1523.6000,-210.000
1523.6200, -83.088
1523.6400, -86.117
1523.6600,-210.000
1523.6800,-210.000
1523.7000, -92.748
1523.7200, -85.298
1523.7400, -89.004
1523.7600, -82.917
1523.7800, -86.745
1523.8000, -85.148
1523.8200,-210.000
1523.8400, -82.755
1523.8600,-210.000
1523.8800, -81.956
1523.9000, -88.995
1523.9200, -95.608
1523.9400,-210.000
1523.9600, -81.635
1523.9800,-210.000
1524.0000, -80.637
1524.0200, -83.056
1524.0400, -84.324
1524.0600, -86.638
1524.0800, -90.564
1524.1000,-210.000
1524.1200, -81.300
1524.1400, -87.431
1524.1600,-210.000
1524.1800, -80.875
1524.2000, -89.511
1524.2200, -82.741
1524.2400,-210.000
1524.2600, -84.849
1524.2800, -90.007
1524.3000, -84.833
1524.3200,-210.000
1524.3400, -85.215
1524.3600, -93.838
1524.3800, -85.644
1524.4000,-210.000
1524.4200, -91.887
1524.4400, -82.474
1524.4600, -90.421
1524.4800, -85.770
1524.5000, -93.000
1524.5200,-210.000
1524.5400,-210.000
1524.5600, -90.789
1524.5800, -85.329
1524.6000, -83.516
1524.6200,-210.000
1524.6400, -86.907
1524.6600, -87.506
1524.6800, -86.954
1524.7000, -83.601
1524.7200, -87.084
1524.7400, -87.238
1524.7600,-210.000
1524.7800, -81.405
1524.8000,-210.000
1524.8200, -88.419
1524.8400, -86.670
1524.8600, -93.129
1524.8800, -82.666
1524.9000, -84.982
1524.9200, -87.729
1524.9400, -82.162
1524.9600,-210.000
1524.9800,-210.000
1525.0000, -83.953
1525.0200, -87.679
1525.0400,-210.000
1525.0600, -83.410
1525.0800, -84.362
1525.1000, -87.374
1525.1200,-210.000
1525.1400, -83.400
1525.1600, -83.134
1525.1800, -84.831
1525.2000,-210.000
1525.2200, -85.738
1525.2400, -87.139
1525.2600, -93.732
1525.2800,-103.022
1525.3000, -81.246
1525.3200,-210.000
1525.3400,-210.000
1525.3600, -81.309
1525.3800,-210.000
1525.4000,-210.000
1525.4200, -84.353
1525.4400, -82.046
1525.4600, -83.533
1525.4800, -88.302
1525.5000, -83.387
1525.5200, -88.323
1525.5400, -86.201
1525.5600,-210.000
1525.5800, -89.467
1525.6000, -87.240
1525.6200, -84.480
1525.6400, -83.773
1525.6600,-210.000
1525.6800, -85.669
1525.7000, -86.402
1525.7200,-210.000
1525.7400, -84.312
1525.7600, -81.840
1525.7800, -84.565
1525.8000, -85.921
1525.8200, -86.747
1525.8400,-210.000
1525.8600, -93.203
1525.8800, -81.392
1525.9000,-210.000
1525.9200, -95.276
1525.9400, -83.847
1525.9600, -82.264
1525.9800,-210.000
1526.0000, -83.982
1526.0200,-115.158
1526.0400,-210.000
1526.0600, -84.063
1526.0800, -82.843
1526.1000,-210.000
1526.1200, -84.814
1526.1400, -85.579
1526.1600, -81.672
1526.1800,-210.000
1526.2000, -82.644
1526.2200, -83.041
1526.2400, -84.078
1526.2600, -84.136
1526.2800, -86.712
1526.3000, -89.874
1526.3200, -83.087
1526.3400,-210.000
1526.3600, -82.689
1526.3800, -88.555
1526.4000, -86.033
1526.4200, -90.169
1526.4400, -94.933
1526.4600, -87.096
1526.4800, -89.118
1526.5000, -83.715
1526.5200, -91.277
1526.5400, -82.733
1526.5600, -84.433
1526.5800, -82.078
1526.6000, -88.022
1526.6200,-210.000
1526.6400, -82.681
1526.6600, -82.959
1526.6800, -86.090
1526.7000,-210.000
1526.7200, -85.896
1526.7400, -85.325
1526.7600,-102.405
1526.7800, -82.668
1526.8000,-210.000
1526.8200, -80.789
1526.8400, -85.552
1526.8600, -87.766
1526.8800, -92.563
1526.9000, -83.158
1526.9200,-210.000
1526.9400, -82.556
1526.9600, -82.438
1526.9800,-210.000
1527.0000,-210.000
1527.0200, -81.194
1527.0400, -82.433
1527.0600, -86.850
1527.0800, -94.617
1527.1000, -82.844
1527.1200,-210.000
1527.1400, -85.737
1527.1600, -84.060
1527.1800,-210.000
1527.2000, -85.770
1527.2200, -82.583
1527.2400, -85.280
1527.2600,-210.000
1527.2800, -83.302
1527.3000, -86.467
1527.3200,-210.000
1527.3400, -86.447
1527.3600, -81.854
1527.3800, -88.147
1527.4000, -83.897
1527.4200, -82.628
1527.4400, -85.702
1527.4600, -84.034
1527.4800, -87.738
1527.5000,-210.000
1527.5200,-100.546
1527.5400, -81.190
1527.5600,-210.000
1527.5800, -87.871
1527.6000, -84.923
1527.6200, -86.441
1527.6400,-210.000
1527.6600, -86.205
1527.6800, -84.232
1527.7000, -82.638
1527.7200,-210.000
1527.7400, -88.551
1527.7600,-210.000
1527.7800,-101.771
1527.8000, -89.060
1527.8200, -83.259
1527.8400,-210.000
1527.8600, -82.468
1527.8800,-210.000
1527.9000, -93.843
1527.9200, -85.085
1527.9400, -81.008
1527.9600,-210.000
1527.9800, -82.309
1528.0000, -95.391
1528.0200, -86.779
1528.0400, -86.870
1528.0600, -80.853
1528.0800,-210.000
1528.1000,-210.000
1528.1200, -89.413
1528.1400, -82.482
1528.1600,-210.000
1528.1800,-210.000
1528.2000, -84.203
1528.2200, -93.665
1528.2400, -88.150
1528.2600, -82.956
1528.2800, -83.714
1528.3000,-210.000
1528.3200,-210.000
1528.3400,-210.000
1528.3600, -80.404
1528.3800, -85.846
1528.4000, -89.045
1528.4200, -82.357
1528.4400, -88.484
1528.4600,-210.000
1528.4800, -85.616
1528.5000, -85.765
1528.5200, -87.104
1528.5400, -90.195
1528.5600, -86.268
1528.5800, -84.491
1528.6000,-210.000
1528.6200, -88.082
1528.6400,-210.000
1528.6600, -83.965
1528.6800, -85.793
1528.7000, -84.422
1528.7200, -87.543
1528.7400, -95.781
1528.7600, -84.826
1528.7800, -90.278
1528.8000, -87.998
1528.8200, -87.420
1528.8400,-210.000
1528.8600, -80.883
1528.8800,-210.000
1528.9000, -84.924
1528.9200, -87.908
1528.9400, -84.594
1528.9600, -85.169
1528.9800,-210.000
1529.0000, -87.273
1529.0200, -83.625
1529.0400,-210.000
1529.0600, -82.422
1529.0800, -86.563
1529.1000, -91.293
1529.1200,-210.000
1529.1400, -82.325
1529.1600, -85.197
1529.1800, -89.294
1529.2000, -90.158
1529.2200, -96.375
1529.2400, -88.666
1529.2600,-114.123
1529.2800, -84.411
1529.3000, -91.569
1529.3200, -84.539
1529.3400, -84.159
1529.3600, -90.280
1529.3800, -91.362
1529.4000, -92.164
1529.4200, -87.664
1529.4400,-210.000
1529.4600, -84.260
1529.4800, -82.694
1529.5000,-210.000
1529.5200, -83.264
1529.5400, -89.027
1529.5600, -85.327
1529.5800, -83.807
1529.6000,-210.000
1529.6200, -85.241
1529.6400, -83.096
1529.6600,-210.000
1529.6800, -84.986
1529.7000, -85.712
1529.7200,-210.000
1529.7400, -86.674
1529.7600, -89.515
1529.7800, -80.523
1529.8000, -91.108
1529.8200, -87.884
1529.8400, -86.795
1529.8600, -87.195
1529.8800, -86.574
1529.9000, -91.738
1529.9200, -99.401
1529.9400, -83.729
1529.9600, -91.092
1529.9800, -85.107
1530.0000,-210.000
1530.0200, -85.405
1530.0400, -89.023
1530.0600, -87.611
1530.0800, -86.649
1530.1000, -87.066
1530.1200, -83.234
1530.1400,-210.000
1530.1600, -91.537
1530.1800, -92.540
1530.2000, -83.432
1530.2200, -94.595
1530.2400, -86.656
1530.2600, -84.288
1530.2800, -84.641
1530.3000, -83.603
1530.3200, -83.566
1530.3400, -90.345
1530.3600, -82.070
1530.3800, -84.515
1530.4000, -82.990
1530.4200,-210.000
1530.4400,-210.000
1530.4600,-210.000
1530.4800, -85.565
1530.5000, -83.161
1530.5200, -95.569
1530.5400,-210.000
1530.5600, -84.048
1530.5800, -85.518
1530.6000, -95.825
1530.6200, -82.650
1530.6400, -81.755
1530.6600, -85.731
1530.6800, -86.574
1530.7000, -84.993
1530.7200, -89.065
1530.7400,-210.000
1530.7600, -84.706
1530.7800, -85.985
1530.8000, -84.290
1530.8200, -87.741
1530.8400, -87.907
1530.8600, -83.923
1530.8800,-210.000
1530.9000, -86.234
1530.9200, -82.097
1530.9400,-210.000
1530.9600, -88.922
1530.9800, -88.749
1531.0000, -81.242
1531.0200, -85.623
1531.0400,-210.000
1531.0600, -85.860
1531.0800, -84.604
1531.1000,-210.000
1531.1200, -88.779
1531.1400, -86.027
1531.1600,-210.000
1531.1800, -87.794
1531.2000,-210.000
1531.2200, -93.292
1531.2400, -83.887
1531.2600,-210.000
1531.2800, -82.851
1531.3000, -86.617
1531.3200,-210.000
1531.3400,-210.000
1531.3600, -86.992
1531.3800,-210.000
1531.4000, -85.220
1531.4200, -82.645
1531.4400,-210.000
1531.4600, -85.811
1531.4800, -81.081
1531.5000,-210.000
1531.5200, -86.756
1531.5400, -87.909
1531.5600,-210.000
1531.5800, -84.690
1531.6000,-210.000
1531.6200, -85.340
1531.6400, -91.563
1531.6600, -85.968
1531.6800, -83.379
1531.7000, -84.089
1531.7200,-210.000
1531.7400,-210.000
1531.7600, -82.731
1531.7800, -96.368
1531.8000, -85.921
1531.8200, -84.271
1531.8400, -88.566
1531.8600, -91.867
1531.8800, -83.791
1531.9000, -92.837
1531.9200, -92.299
1531.9400, -85.159
1531.9600,-210.000
1531.9800, -84.553
1532.0000,-210.000
1532.0200, -83.757
1532.0400, -86.818
1532.0600,-210.000
1532.0800, -83.092
1532.1000, -82.424
1532.1200, -97.282
1532.1400, -88.772
1532.1600, -94.624
1532.1800, -88.520
1532.2000, -84.859
1532.2200,-102.071
1532.2400, -82.988
1532.2600,-210.000
1532.2800, -83.729
1532.3000, -84.322
1532.3200, -84.290
1532.3400, -87.088
1532.3600,-210.000
1532.3800, -81.849
1532.4000,-210.000
1532.4200, -82.593
1532.4400,-210.000
1532.4600, -82.201
1532.4800, -83.151
1532.5000, -86.603
1532.5200, -85.852
1532.5400, -89.083
1532.5600, -88.371
1532.5800,-210.000
1532.6000, -89.309
1532.6200, -85.696
1532.6400, -83.885
1532.6600, -87.562
1532.6800,-210.000
1532.7000, -88.587
1532.7200, -83.711
1532.7400, -83.018
1532.7600, -87.120
1532.7800, -84.587
1532.8000, -88.590
1532.8200, -81.738
1532.8400,-210.000
1532.8600, -83.850
1532.8800,-210.000
1532.9000, -84.560
1532.9200, -89.439
1532.9400,-210.000
1532.9600, -81.919
1532.9800, -87.369
1533.0000,-210.000
1533.0200, -81.006
1533.0400, -88.826
1533.0600, -90.856
1533.0800, -85.316
1533.1000, -83.306
1533.1200,-210.000
1533.1400, -83.952
1533.1600, -85.205
1533.1800, -86.776
1533.2000, -86.701
1533.2200, -90.033
1533.2400,-210.000
1533.2600,-210.000
1533.2800, -83.673
1533.3000,-210.000
1533.3200, -86.472
1533.3400, -85.540
1533.3600, -95.613
1533.3800, -88.440
1533.4000, -84.568
1533.4200, -88.278
1533.4400, -89.220
1533.4600, -84.883
1533.4800,-210.000
1533.5000, -85.965
1533.5200, -85.189
1533.5400, -86.593
1533.5600, -98.345
1533.5800, -81.343
1533.6000,-210.000
1533.6200, -86.074
1533.6400, -89.960
1533.6600, -83.032
1533.6800, -85.367
1533.7000,-210.000
1533.7200, -83.671
1533.7400, -83.166
1533.7600,-210.000
1533.7800, -84.355
1533.8000, -82.607
1533.8200, -83.177
1533.8400,-210.000
1533.8600, -91.926
1533.8800,-210.000
1533.9000, -82.568
1533.9200, -83.703
1533.9400, -87.984
1533.9600,-210.000
1533.9800, -85.839
1534.0000, -84.319
1534.0200, -90.730
1534.0400, -91.703
1534.0600, -88.458
1534.0800,-210.000
1534.1000, -84.725
1534.1200, -91.118
1534.1400, -87.682
1534.1600, -85.939
1534.1800, -84.937
1534.2000,-210.000
1534.2200, -90.389
1534.2400, -85.664
1534.2600, -88.975
1534.2800, -85.043
1534.3000, -83.901
1534.3200, -87.638
1534.3400, -96.075
1534.3600, -94.293
1534.3800, -84.826
1534.4000, -92.981
1534.4200, -86.111
1534.4400, -83.057
1534.4600, -85.380
1534.4800,-210.000
1534.5000, -90.159
1534.5200, -84.815
1534.5400, -85.269
1534.5600, -81.917
1534.5800,-210.000
1534.6000, -86.112
1534.6200, -83.310
1534.6400, -81.831
1534.6600, -87.728
1534.6800, -82.590
1534.7000,-210.000
1534.7200, -87.937
1534.7400,-210.000
1534.7600, -90.002
1534.7800, -89.184
1534.8000, -83.878
1534.8200, -96.300
1534.8400, -83.501
1534.8600, -89.204
1534.8800, -81.728
1534.9000, -82.066
1534.9200,-210.000
1534.9400, -87.746
1534.9600, -83.860
1534.9800,-107.590
1535.0000, -84.184
1535.0200,-210.000
1535.0400, -85.917
1535.0600, -81.624
1535.0800,-210.000
1535.1000, -86.519
1535.1200, -96.111
1535.1400, -80.615
1535.1600, -97.100
1535.1800,-210.000
1535.2000, -81.928
1535.2200,-210.000
1535.2400, -80.944
1535.2600, -84.857
1535.2800, -92.522
1535.3000,-210.000
1535.3200, -82.795
1535.3400, -86.330
1535.3600,-210.000
1535.3800, -82.491
1535.4000, -86.384
1535.4200,-210.000
1535.4400, -91.762
1535.4600, -84.380
1535.4800, -84.775
1535.5000, -80.524
1535.5200,-210.000
1535.5400, -87.284
1535.5600, -84.533
1535.5800,-210.000
1535.6000, -85.258
1535.6200, -82.778
1535.6400,-210.000
1535.6600, -85.253
1535.6800, -84.243
1535.7000, -82.403
1535.7200,-101.206
1535.7400, -85.101
1535.7600, -84.950
1535.7800,-210.000
1535.8000, -86.105
1535.8200, -82.445
1535.8400, -86.494
1535.8600, -85.357
1535.8800, -91.927
1535.9000, -84.826
1535.9200, -85.025
1535.9400, -84.915
1535.9600, -82.269
1535.9800, -83.632
1536.0000, -85.171
1536.0200,-210.000
1536.0400,-210.000
1536.0600, -85.406
1536.0800, -83.631
1536.1000, -84.227
1536.1200, -84.460
1536.1400, -86.277
1536.1600, -81.014
1536.1800,-210.000
1536.2000, -93.349
1536.2200,-210.000
1536.2400, -81.114
1536.2600, -87.554
1536.2800, -96.925
1536.3000, -82.824
1536.3200, -81.395
1536.3400, -86.584
1536.3600, -83.921
1536.3800, -84.962
1536.4000,-210.000
1536.4200,-210.000
1536.4400, -80.648
1536.4600,-210.000
1536.4800, -83.637
1536.5000, -87.790
1536.5200, -85.742
1536.5400, -85.094
1536.5600, -90.956
1536.5800, -88.337
1536.6000, -87.156
1536.6200, -86.002
1536.6400, -85.167
1536.6600, -87.955
1536.6800, -81.523
1536.7000, -87.319
1536.7200, -85.000
1536.7400, -84.745
1536.7600, -86.600
1536.7800, -88.021
1536.8000, -86.934
1536.8200, -87.132
1536.8400, -91.595
1536.8600, -84.497
1536.8800, -94.003
1536.9000, -84.746
1536.9200, -84.634
1536.9400, -82.949
1536.9600, -85.642
1536.9800, -83.511
1537.0000, -86.275
1537.0200, -82.282
1537.0400,-210.000
1537.0600, -93.995
1537.0800, -84.663
1537.1000,-210.000
1537.1200, -82.372
1537.1400,-210.000
1537.1600, -85.502
1537.1800,-210.000
1537.2000, -87.827
1537.2200, -82.220
1537.2400, -88.278
1537.2600, -95.804
1537.2800, -84.577
1537.3000, -91.029
1537.3200, -85.288
1537.3400, -84.452
1537.3600, -86.234
1537.3800, -89.481
1537.4000, -88.861
1537.4200, -83.492
1537.4400, -96.841
1537.4600, -85.618
1537.4800, -94.133
1537.5000,-100.854
1537.5200, -81.614
1537.5400, -83.988
1537.5600, -82.731
1537.5800, -83.917
1537.6000, -85.676
1537.6200, -85.601
1537.6400, -83.058
1537.6600, -88.394
1537.6800, -82.070
1537.7000, -82.346
1537.7200, -97.507
1537.7400, -82.422
1537.7600,-103.035
1537.7800, -81.242
1537.8000, -84.172
1537.8200, -85.500
1537.8400, -85.604
1537.8600, -84.020
1537.8800, -85.331
1537.9000,-210.000
1537.9200, -83.549
1537.9400, -86.211
1537.9600,-210.000
1537.9800, -84.652
1538.0000, -84.164
1538.0200, -81.676
1538.0400, -98.618
1538.0600, -94.131
1538.0800, -82.125
1538.1000, -86.866
1538.1200,-210.000
1538.1400, -94.514
1538.1600, -90.675
1538.1800, -83.103
1538.2000, -88.657
1538.2200, -83.850
1538.2400, -83.014
1538.2600, -86.314
1538.2800, -90.323
1538.3000, -82.622
1538.3200, -82.055
1538.3400,-210.000
1538.3600,-210.000
1538.3800, -83.587
1538.4000, -83.573
1538.4200, -83.662
1538.4400, -82.835
1538.4600, -82.519
1538.4800, -87.524
1538.5000, -83.455
1538.5200, -87.010
1538.5400, -83.765
1538.5600,-210.000
1538.5800, -82.582
1538.6000, -83.953
1538.6200, -85.234
1538.6400, -81.027
1538.6600, -83.888
1538.6800, -89.157
1538.7000, -97.235
1538.7200, -82.877
1538.7400, -87.969
1538.7600, -85.326
1538.7800, -85.901
1538.8000, -83.009
1538.8200, -82.366
1538.8400,-210.000
1538.8600, -84.547
1538.8800, -83.813
1538.9000,-210.000
1538.9200, -80.434
1538.9400,-210.000
1538.9600, -81.334
1538.9800, -84.580
1539.0000, -84.621
1539.0200,-210.000
1539.0400, -80.437
1539.0600, -87.762
1539.0800,-210.000
1539.1000, -80.432
1539.1200, -83.969
1539.1400, -96.742
1539.1600, -82.092
1539.1800, -91.710
1539.2000, -84.733
1539.2200,-210.000
1539.2400, -85.251
1539.2600, -83.499
1539.2800,-210.000
1539.3000, -85.301
1539.3200, -81.169
1539.3400, -89.759
1539.3600, -85.077
1539.3800, -84.281
1539.4000, -83.631
1539.4200, -85.162
1539.4400, -85.966
1539.4600, -86.987
1539.4800, -86.611
1539.5000, -86.343
1539.5200, -83.426
1539.5400, -88.693
1539.5600, -84.433
1539.5800, -86.122
1539.6000, -87.095
1539.6200, -83.491
1539.6400, -86.337
1539.6600,-210.000
1539.6800, -83.806
1539.7000, -81.771
1539.7200, -88.675
1539.7400, -82.040
1539.7600, -87.285
1539.7800, -87.958
1539.8000, -85.005
1539.8200, -84.054
1539.8400, -83.478
1539.8600, -82.332
1539.8800, -86.280
1539.9000, -83.915
1539.9200, -84.049
1539.9400, -83.789
1539.9600, -87.619
1539.9800,-210.000
1540.0000, -82.939
1540.0200, -86.769
1540.0400, -94.084
1540.0600, -82.081
1540.0800, -84.270
1540.1000, -84.032
1540.1200, -84.474
1540.1400, -84.121
1540.1600, -84.129
1540.1800, -83.973
1540.2000, -84.698
1540.2200, -83.400
1540.2400, -86.514
1540.2600, -83.739
1540.2800, -81.691
1540.3000, -83.917
1540.3200, -84.984
1540.3400, -82.282
1540.3600, -84.969
1540.3800, -86.080
1540.4000, -96.039
1540.4200, -81.813
1540.4400,-210.000
1540.4600, -84.550
1540.4800, -82.994
1540.5000, -88.754
1540.5200, -82.345
1540.5400, -82.507
1540.5600, -85.726
1540.5800, -97.038
1540.6000, -82.429
1540.6200,-105.267
1540.6400,-210.000
1540.6600, -84.064
1540.6800, -94.973
1540.7000, -78.890
1540.7200, -84.042
1540.7400, -80.805
1540.7600, -84.083
1540.7800, -85.410
1540.8000, -85.588
1540.8200, -83.785
1540.8400, -82.963
1540.8600, -91.021
1540.8800, -81.843
1540.9000, -83.807
1540.9200, -91.135
1540.9400, -83.947
1540.9600, -81.860
1540.9800, -83.084
1541.0000, -85.849
1541.0200, -83.282
1541.0400, -82.707
1541.0600,-210.000
1541.0800, -88.659
1541.1000, -92.287
1541.1200, -88.792
1541.1400, -81.124
1541.1600, -80.278
1541.1800,-210.000
1541.2000, -83.256
1541.2200, -85.184
1541.2400, -82.250
1541.2600, -86.665
1541.2800, -86.378
1541.3000, -82.518
1541.3200, -84.862
1541.3400, -83.881
1541.3600, -83.538
1541.3800, -83.174
1541.4000, -85.416
1541.4200, -82.412
1541.4400, -83.866
1541.4600, -84.693
1541.4800, -86.781
1541.5000, -81.922
1541.5200, -84.764
1541.5400, -84.264
1541.5600, -86.578
1541.5800, -82.055
1541.6000, -87.212
1541.6200, -82.210
1541.6400, -89.345
1541.6600, -83.304
1541.6800, -87.374
1541.7000, -90.190
1541.7200, -79.840
1541.7400, -82.250
1541.7600, -84.986
1541.7800, -84.757
1541.8000, -83.922
1541.8200, -83.486
1541.8400,-210.000
1541.8600, -82.242
1541.8800, -82.582
1541.9000, -81.448
1541.9200,-210.000
1541.9400, -83.731
1541.9600, -84.829
1541.9800, -98.107
1542.0000, -83.781
1542.0200, -82.317
1542.0400, -85.520
1542.0600, -82.100
1542.0800, -85.055
1542.1000, -85.363
1542.1200, -83.004
1542.1400,-210.000
1542.1600, -88.822
1542.1800, -81.852
1542.2000, -81.764
1542.2200, -84.595
1542.2400, -84.589
1542.2600, -83.424
1542.2800, -85.461
1542.3000, -90.414
1542.3200, -82.549
1542.3400, -84.214
1542.3600, -85.280
1542.3800, -84.890
1542.4000, -82.830
1542.4200, -84.229
1542.4400, -81.977
1542.4600, -88.711
1542.4800, -82.899
1542.5000, -83.281
1542.5200, -84.042
1542.5400, -81.946
1542.5600, -86.222
1542.5800, -84.711
1542.6000, -87.040
1542.6200, -82.161
1542.6400, -90.054
1542.6600, -84.320
1542.6800, -85.922
1542.7000, -81.806
1542.7200, -88.586
1542.7400,-210.000
1542.7600, -81.349
1542.7800, -83.695
1542.8000, -82.733
1542.8200, -83.305
1542.8400, -85.402
1542.8600, -81.575
1542.8800, -88.814
1542.9000,-210.000
1542.9200, -80.405
1542.9400,-210.000
1542.9600, -83.686
1542.9800, -85.311
1543.0000,-210.000
1543.0200, -80.259
1543.0400, -83.250
1543.0600, -86.076
1543.0800, -81.620
1543.1000, -82.939
1543.1200, -82.759
1543.1400, -88.042
1543.1600, -84.774
1543.1800, -82.818
1543.2000, -83.745
1543.2200, -82.925
1543.2400, -88.945
1543.2600, -81.923
1543.2800, -82.097
1543.3000,-210.000
1543.3200, -85.743
1543.3400, -83.981
1543.3600, -82.689
1543.3800, -90.324
1543.4000, -81.903
1543.4200, -87.264
1543.4400, -82.502
1543.4600, -82.794
1543.4800,-210.000
1543.5000, -81.385
1543.5200, -86.046
1543.5400, -82.419
1543.5600,-210.000
1543.5800, -81.520
1543.6000, -85.049
1543.6200, -83.035
1543.6400, -84.897
1543.6600, -87.555
1543.6800, -92.187
1543.7000, -83.832
1543.7200, -80.430
1543.7400, -84.461
1543.7600, -81.814
1543.7800, -93.421
1543.8000, -85.463
1543.8200, -81.700
1543.8400, -84.292
1543.8600, -80.503
1543.8800, -82.966
1543.9000, -82.699
1543.9200, -88.843
1543.9400, -90.070
1543.9600, -84.410
1543.9800, -83.086
1544.0000, -82.062
1544.0200, -84.248
1544.0400, -87.662
1544.0600,-104.611
1544.0800, -84.343
1544.1000, -97.880
1544.1200, -83.268
1544.1400, -81.976
1544.1600, -84.950
1544.1800, -93.564
1544.2000, -82.537
1544.2200, -82.918
1544.2400, -82.603
1544.2600, -81.156
1544.2800, -83.009
1544.3000, -82.831
1544.3200,-210.000
1544.3400, -85.617
1544.3600, -84.955
1544.3800, -80.545
1544.4000, -87.883
1544.4200, -80.221
1544.4400, -83.001
1544.4600,-210.000
1544.4800, -81.067
1544.5000, -82.848
1544.5200, -83.968
1544.5400, -83.691
1544.5600, -81.414
1544.5800, -84.006
1544.6000, -86.192
1544.6200, -85.598
1544.6400, -83.201
1544.6600, -82.212
1544.6800, -82.803
1544.7000, -83.331
1544.7200, -84.185
1544.7400, -90.342
1544.7600, -83.540
1544.7800, -84.295
1544.8000, -82.340
1544.8200, -83.508
1544.8400, -83.608
1544.8600, -84.053
1544.8800, -84.050
1544.9000, -85.159
1544.9200, -83.430
1544.9400, -88.695
1544.9600, -83.279
1544.9800, -87.220
1545.0000, -82.978
1545.0200, -83.186
1545.0400, -81.740
1545.0600, -83.278
1545.0800, -85.474
1545.1000, -81.199
1545.1200, -85.096
1545.1400, -82.546
1545.1600, -83.627
1545.1800, -87.088
1545.2000, -85.799
1545.2200,-210.000
1545.2400, -80.891
1545.2600, -88.669
1545.2800, -81.516
1545.3000, -84.631
1545.3200, -83.533
1545.3400, -80.023
1545.3600, -83.434
1545.3800, -81.538
1545.4000, -92.121
1545.4200, -79.725
1545.4400, -93.063
1545.4600, -81.275
1545.4800, -88.407
1545.5000, -81.649
1545.5200, -88.231
1545.5400, -80.789
1545.5600, -89.425
1545.5800, -82.350
1545.6000, -83.838
1545.6200, -82.199
1545.6400, -84.975
1545.6600, -83.066
1545.6800, -87.631
1545.7000, -80.158
1545.7200,-210.000
1545.7400, -80.472
1545.7600, -81.480
1545.7800, -83.666
1545.8000,-210.000
1545.8200, -80.427
1545.8400, -85.837
1545.8600, -80.734
1545.8800, -86.188
1545.9000, -81.373
1545.9200, -79.386
1545.9400, -81.805
1545.9600, -83.726
1545.9800, -84.091
1546.0000, -83.488
1546.0200, -81.182
1546.0400, -86.163
1546.0600,-210.000
1546.0800, -82.471
1546.1000, -84.786
1546.1200, -86.254
1546.1400, -80.198
1546.1600, -83.546
1546.1800, -81.048
1546.2000, -80.628
1546.2200, -87.473
1546.2400, -82.762
1546.2600, -82.859
1546.2800, -82.301
1546.3000,-210.000
1546.3200, -80.048
1546.3400, -83.902
1546.3600, -81.912
1546.3800, -83.594
1546.4000, -87.482
1546.4200, -84.397
1546.4400, -79.559
1546.4600, -83.176
1546.4800, -80.955
1546.5000, -82.688
1546.5200, -82.683
1546.5400, -83.357
1546.5600, -81.784
1546.5800, -82.899
1546.6000, -84.213
1546.6200, -83.021
1546.6400, -82.897
1546.6600, -84.500
1546.6800, -81.234
1546.7000, -81.276
1546.7200, -97.793
1546.7400, -80.722
1546.7600, -80.894
1546.7800, -85.129
1546.8000, -81.471
1546.8200,-210.000
1546.8400, -86.882
1546.8600, -82.057
1546.8800, -82.908
1546.9000, -82.929
1546.9200, -83.171
1546.9400, -84.567
1546.9600, -87.676
1546.9800, -80.549
1547.0000, -80.432
1547.0200, -83.775
1547.0400, -87.712
1547.0600, -80.560
1547.0800, -81.024
1547.1000, -87.161
1547.1200, -84.833
1547.1400, -82.261
1547.1600, -81.588
1547.1800, -82.767
1547.2000, -82.568
1547.2200, -83.063
1547.2400, -82.302
1547.2600, -84.088
1547.2800, -82.411
1547.3000, -82.468
1547.3200, -80.703
1547.3400, -89.087
1547.3600, -81.534
1547.3800, -94.493
1547.4000, -83.857
1547.4200, -80.268
1547.4400, -86.044
1547.4600, -82.358
1547.4800, -83.666
1547.5000, -82.903
1547.5200, -81.071
1547.5400, -83.114
1547.5600, -84.615
1547.5800, -81.080
1547.6000, -81.782
1547.6200, -79.596
1547.6400, -83.127
1547.6600, -81.847
1547.6800, -81.513
1547.7000, -83.847
1547.7200, -81.965
1547.7400, -84.111
1547.7600, -80.144
1547.7800, -85.752
1547.8000, -81.666
1547.8200, -81.273
1547.8400, -83.772
1547.8600, -84.018
1547.8800, -84.349
1547.9000, -93.308
1547.9200, -81.729
1547.9400, -87.012
1547.9600, -80.508
1547.9800, -84.050
1548.0000, -85.955
1548.0200, -79.852
1548.0400, -84.256
1548.0600, -81.657
1548.0800, -92.718
1548.1000, -80.444
1548.1200, -81.848
1548.1400,-210.000
1548.1600, -79.781
1548.1800, -85.580
1548.2000, -81.932
1548.2200, -82.925
1548.2400, -82.408
1548.2600, -82.118
1548.2800, -82.846
1548.3000, -83.986
1548.3200, -82.662
1548.3400, -87.412
1548.3600, -80.029
1548.3800, -81.422
1548.4000, -81.496
1548.4200, -82.744
1548.4400, -82.597
1548.4600, -81.516
1548.4800, -83.479
1548.5000, -84.255
1548.5200, -83.773
1548.5400, -80.743
1548.5600, -82.456
1548.5800, -80.812
1548.6000, -81.304
1548.6200, -82.835
1548.6400, -82.197
1548.6600, -82.382
1548.6800, -83.316
1548.7000, -81.892
1548.7200,-210.000
1548.7400, -80.066
1548.7600, -81.899
1548.7800, -84.099
1548.8000, -95.896
1548.8200, -85.147
1548.8400, -83.263
1548.8600, -79.702
1548.8800, -84.763
1548.9000, -83.417
1548.9200, -83.140
1548.9400, -82.182
1548.9600, -81.371
1548.9800, -84.196
1549.0000, -83.915
1549.0200, -80.030
1549.0400, -82.679
1549.0600, -87.246
1549.0800, -81.851
1549.1000, -84.445
1549.1200, -80.367
1549.1400, -86.813
1549.1600, -79.598
1549.1800, -80.847
1549.2000, -84.123
1549.2200, -81.724
1549.2400, -80.668
1549.2600, -87.264
1549.2800, -84.632
1549.3000, -83.839
1549.3200, -82.964
1549.3400, -80.177
1549.3600, -81.617
1549.3800, -79.606
1549.4000, -85.930
1549.4200, -82.936
1549.4400, -82.237
1549.4600, -79.754
1549.4800, -82.061
1549.5000, -81.759
1549.5200, -89.942
1549.5400, -79.442
1549.5600, -82.090
1549.5800, -82.719
1549.6000, -82.349
1549.6200, -82.545
1549.6400, -80.224
1549.6600, -80.382
1549.6800, -87.562
1549.7000, -83.261
1549.7200, -80.076
1549.7400, -80.970
1549.7600, -82.877
1549.7800, -82.268
1549.8000, -81.506
1549.8200, -82.619
1549.8400, -84.348
1549.8600, -78.983
1549.8800, -82.892
1549.9000, -83.911
1549.9200, -81.680
1549.9400, -87.477
1549.9600, -79.813
1549.9800, -87.549
1550.0000, -82.697
1550.0200, -81.568
1550.0400, -82.862
1550.0600, -81.475
1550.0800, -79.808
1550.1000, -84.853
1550.1200, -80.185
1550.1400, -85.144
1550.1600, -80.521
1550.1800, -85.311
1550.2000,-210.000
1550.2200, -81.944
1550.2400, -80.699
1550.2600, -79.466
1550.2800, -83.634
1550.3000, -85.200
1550.3200, -86.563
1550.3400, -82.511
1550.3600, -78.882
1550.3800, -79.551
1550.4000, -85.659
1550.4200, -80.939
1550.4400, -81.501
1550.4600, -82.566
1550.4800, -81.145
1550.5000, -79.364
1550.5200, -90.182
1550.5400, -81.448
1550.5600, -81.391
1550.5800, -81.082
1550.6000, -82.077
1550.6200, -81.319
1550.6400, -84.084
1550.6600, -84.351
1550.6800, -81.094
1550.7000, -81.837
1550.7200, -83.923
1550.7400, -80.265
1550.7600, -79.868
1550.7800,-105.708
1550.8000, -81.579
1550.8200, -79.910
1550.8400, -81.176
1550.8600, -81.452
1550.8800, -84.483
1550.9000, -81.239
1550.9200, -80.286
1550.9400, -83.254
1550.9600, -80.957
1550.9800, -84.612
1551.0000, -84.599
1551.0200, -84.240
1551.0400, -81.749
1551.0600, -80.768
1551.0800, -81.554
1551.1000, -80.488
1551.1200, -85.756
1551.1400, -81.180
1551.1600, -80.341
1551.1800, -79.815
1551.2000, -89.024
1551.2200, -82.323
1551.2400, -82.352
1551.2600, -81.354
1551.2800, -79.456
1551.3000, -81.857
1551.3200, -81.922
1551.3400, -81.207
1551.3600, -80.783
1551.3800, -84.124
1551.4000, -80.108
1551.4200, -82.923
1551.4400, -82.328
1551.4600, -79.917
1551.4800, -82.871
1551.5000, -81.651
1551.5200, -80.881
1551.5400, -81.321
1551.5600, -83.884
1551.5800, -80.488
1551.6000, -81.642
1551.6200, -80.714
1551.6400, -88.807
1551.6600, -80.782
1551.6800, -81.523
1551.7000, -81.343
1551.7200, -81.019
1551.7400, -81.237
1551.7600, -82.020
1551.7800, -84.574
1551.8000, -82.528
1551.8200, -79.742
1551.8400, -79.862
1551.8600, -83.789
1551.8800, -82.140
1551.9000, -80.321
1551.9200, -81.361
1551.9400, -83.306
1551.9600, -81.593
1551.9800, -80.548
1552.0000, -80.824
1552.0200, -81.826
1552.0400, -79.669
1552.0600, -81.856
1552.0800, -80.972
1552.1000, -81.399
1552.1200, -79.821
1552.1400, -80.018
1552.1600, -82.014
1552.1800, -81.730
1552.2000, -82.452
1552.2200, -80.578
1552.2400, -81.039
1552.2600, -82.245
1552.2800, -81.840
1552.3000, -81.620
1552.3200, -79.708
1552.3400, -82.200
1552.3600, -79.726
1552.3800, -81.737
1552.4000, -82.521
1552.4200, -82.565
1552.4400, -78.774
1552.4600, -80.933
1552.4800, -81.518
1552.5000, -79.710
1552.5200, -86.847
1552.5400, -78.779
1552.5600, -83.552
1552.5800, -80.091
1552.6000, -81.453
1552.6200, -84.784
1552.6400, -78.897
1552.6600, -81.629
1552.6800, -80.718
1552.7000, -80.545
1552.7200, -80.782
1552.7400, -80.570
1552.7600, -80.815
1552.7800, -80.269
1552.8000, -79.909
1552.8200, -80.628
1552.8400, -82.252
1552.8600, -82.680
1552.8800, -79.826
1552.9000, -80.788
1552.9200, -80.531
1552.9400, -82.092
1552.9600, -80.760
1552.9800, -80.208
1553.0000, -82.520
1553.0200, -79.590
1553.0400, -81.763
1553.0600, -80.082
1553.0800, -83.743
1553.1000, -80.610
1553.1200, -83.080
1553.1400, -81.169
1553.1600, -79.158
1553.1800, -80.377
1553.2000, -81.247
1553.2200, -80.339
1553.2400, -80.269
1553.2600, -81.148
1553.2800, -79.796
1553.3000, -81.271
1553.3200, -80.372
1553.3400, -81.765
1553.3600, -80.959
1553.3800, -81.699
1553.4000, -79.044
1553.4200, -80.313
1553.4400, -82.245
1553.4600, -81.618
1553.4800, -81.884
1553.5000, -81.043
1553.5200, -79.444
1553.5400, -81.567
1553.5600, -78.367
1553.5800, -80.804
1553.6000, -80.973
1553.6200, -80.916
1553.6400, -80.492
1553.6600, -80.332
1553.6800, -80.646
1553.7000, -81.510
1553.7200, -81.322
1553.7400, -82.094
1553.7600, -79.016
1553.7800, -79.786
1553.8000, -82.289
1553.8200, -80.186
1553.8400, -81.455
1553.8600, -81.370
1553.8800, -80.352
1553.9000, -80.123
1553.9200, -81.036
1553.9400, -79.109
1553.9600, -81.274
1553.9800, -79.632
1554.0000, -81.105
1554.0200, -80.172
1554.0400, -81.149
1554.0600, -81.412
1554.0800, -83.185
1554.1000, -82.333
1554.1200, -79.830
1554.1400, -80.268
1554.1600, -80.344
1554.1800, -81.596
1554.2000, -82.408
1554.2200, -78.432
1554.2400, -80.554
1554.2600, -80.900
1554.2800, -79.805
1554.3000, -80.593
1554.3200, -82.344
1554.3400, -79.964
1554.3600, -79.789
1554.3800, -79.813
1554.4000, -78.703
1554.4200, -82.224
1554.4400, -79.993
1554.4600, -80.553
1554.4800, -81.071
1554.5000, -79.845
1554.5200, -80.103
1554.5400, -80.244
1554.5600, -79.716
1554.5800, -80.480
1554.6000, -79.785
1554.6200, -80.094
1554.6400, -80.392
1554.6600, -80.434
1554.6800, -81.929
1554.7000, -78.576
1554.7200, -81.939
1554.7400, -81.539
1554.7600, -81.397
1554.7800, -81.225
1554.8000, -80.631
1554.8200, -79.445
1554.8400, -80.305
1554.8600, -79.633
1554.8800, -80.214
1554.9000, -79.217
1554.9200, -80.780
1554.9400, -81.159
1554.9600, -80.431
1554.9800, -83.185
1555.0000, -79.440
1555.0200, -80.410
1555.0400, -79.875
1555.0600, -80.035
1555.0800, -78.429
1555.1000, -79.735
1555.1200, -80.788
1555.1400, -78.629
1555.1600, -83.499
1555.1800, -80.093
1555.2000, -79.616
1555.2200, -79.560
1555.2400, -81.272
1555.2600, -81.741
1555.2800, -81.525
1555.3000, -80.405
1555.3200, -79.983
1555.3400, -80.019
1555.3600, -80.064
1555.3800, -80.466
1555.4000, -80.244
1555.4200, -79.321
1555.4400, -80.911
1555.4600, -79.857
1555.4800, -79.388
1555.5000, -80.200
1555.5200, -80.357
1555.5400, -80.839
1555.5600, -79.595
1555.5800, -80.824
1555.6000, -79.794
1555.6200, -79.541
1555.6400, -78.618
1555.6600, -79.648
1555.6800, -78.360
1555.7000, -81.150
1555.7200, -79.045
1555.7400, -81.076
1555.7600, -80.342
1555.7800, -79.931
1555.8000, -79.949
1555.8200, -81.992
1555.8400, -79.635
1555.8600, -78.973
1555.8800, -80.225
1555.9000, -80.615
1555.9200, -79.855
1555.9400, -81.220
1555.9600, -78.629
1555.9800, -80.226
1556.0000, -80.165
1556.0200, -78.806
1556.0400, -79.515
1556.0600, -81.879
1556.0800, -78.492
1556.1000, -78.703
1556.1200, -81.082
1556.1400, -78.808
1556.1600, -80.510
1556.1800, -80.271
1556.2000, -77.876
1556.2200, -79.833
1556.2400, -80.424
1556.2600, -80.688
1556.2800, -78.257
1556.3000, -79.761
1556.3200, -80.446
1556.3400, -81.383
1556.3600, -78.464
1556.3800, -81.664
1556.4000, -77.967
1556.4200, -78.879
1556.4400, -78.982
1556.4600, -80.980
1556.4800, -80.351
1556.5000, -80.953
1556.5200, -78.598
1556.5400, -78.718
1556.5600, -78.537
1556.5800, -80.354
1556.6000, -79.861
1556.6200, -79.652
1556.6400, -79.620
1556.6600, -77.954
1556.6800, -80.935
1556.7000, -79.200
1556.7200, -80.770
1556.7400, -80.844
1556.7600, -79.447
1556.7800, -79.072
1556.8000, -78.190
1556.8200, -79.543
1556.8400, -80.460
1556.8600, -80.052
1556.8800, -78.567
1556.9000, -80.886
1556.9200, -79.029
1556.9400, -80.410
1556.9600, -79.326
1556.9800, -80.132
1557.0000, -80.259
1557.0200, -79.668
1557.0400, -77.917
1557.0600, -80.842
1557.0800, -80.304
1557.1000, -79.921
1557.1200, -77.879
1557.1400, -79.150
1557.1600, -78.321
1557.1800, -80.021
1557.2000, -79.666
1557.2200, -80.518
1557.2400, -79.264
1557.2600, -78.333
1557.2800, -78.744
1557.3000, -80.176
1557.3200, -78.592
1557.3400, -78.977
1557.3600, -79.958
1557.3800, -78.975
1557.4000, -79.542
1557.4200, -81.515
1557.4400, -78.363
1557.4600, -79.659
1557.4800, -78.361
1557.5000, -80.849
1557.5200, -78.581
1557.5400, -79.435
1557.5600, -79.027
1557.5800, -78.536
1557.6000, -79.932
1557.6200, -79.723
1557.6400, -78.581
1557.6600, -79.454
1557.6800, -79.663
1557.7000, -80.421
1557.7200, -78.966
1557.7400, -80.557
1557.7600, -79.544
1557.7800, -79.147
1557.8000, -80.299
1557.8200, -77.997
1557.8400, -77.853
1557.8600, -80.199
1557.8800, -79.930
1557.9000, -79.086
1557.9200, -79.050
1557.9400, -79.898
1557.9600, -78.091
1557.9800, -80.832
1558.0000, -78.625
1558.0200, -80.468
1558.0400, -77.566
1558.0600, -79.853
1558.0800, -78.297
1558.1000, -80.195
1558.1200, -78.087
1558.1400, -80.332
1558.1600, -80.100
1558.1800, -80.127
1558.2000, -78.122
1558.2200, -78.594
1558.2400, -81.141
1558.2600, -78.473
1558.2800, -79.414
1558.3000, -78.602
1558.3200, -77.770
1558.3400, -78.613
1558.3600, -78.711
1558.3800, -78.517
1558.4000, -78.432
1558.4200, -78.430
1558.4400, -78.684
1558.4600, -77.799
1558.4800, -79.764
1558.5000, -77.858
1558.5200, -79.134
1558.5400, -79.071
1558.5600, -79.326
1558.5800, -79.631
1558.6000, -78.652
1558.6200, -80.737
1558.6400, -77.966
1558.6600, -79.236
1558.6800, -79.390
1558.7000, -79.765
1558.7200, -78.896
1558.7400, -78.089
1558.7600, -80.786
1558.7800, -78.870
1558.8000, -79.787
1558.8200, -77.826
1558.8400, -81.303
1558.8600, -78.589
1558.8800, -79.610
1558.9000, -77.601
1558.9200, -78.356
1558.9400, -80.158
1558.9600, -77.778
1558.9800, -80.565
1559.0000, -79.107
1559.0200, -78.938
1559.0400, -77.257
1559.0600, -78.723
1559.0800, -79.897
1559.1000, -76.638
1559.1200, -78.131
1559.1400, -78.050
1559.1600, -78.143
1559.1800, -81.874
1559.2000, -78.753
1559.2200, -77.013
1559.2400, -78.541
1559.2600, -77.787
1559.2800, -78.034
1559.3000, -79.155
1559.3200, -77.613
1559.3400, -78.763
1559.3600, -78.717
1559.3800, -77.897
1559.4000, -77.149
1559.4200, -79.205
1559.4400, -78.601
1559.4600, -79.331
1559.4800, -77.504
1559.5000, -78.740
1559.5200, -78.064
1559.5400, -78.448
1559.5600, -79.033
1559.5800, -79.998
1559.6000, -77.717
1559.6200, -78.920
1559.6400, -80.136
1559.6600, -77.305
1559.6800, -77.253
1559.7000, -78.122
1559.7200, -81.378
1559.7400, -79.278
1559.7600, -78.171
1559.7800, -78.978
1559.8000, -78.093
1559.8200, -78.668
1559.8400, -76.521
1559.8600, -77.939
1559.8800, -77.189
1559.9000, -78.643
1559.9200, -78.107
1559.9400, -80.216
1559.9600, -77.980
1559.9800, -77.562
1560.0000, -77.935
1560.0200, -78.640
1560.0400, -77.221
1560.0600, -77.518
1560.0800, -77.612
1560.1000, -80.727
1560.1200, -78.375
1560.1400, -77.293
1560.1600, -79.139
1560.1800, -79.035
1560.2000, -78.401
1560.2200, -78.244
1560.2400, -77.910
1560.2600, -78.609
1560.2800, -77.403
1560.3000, -77.381
1560.3200, -78.104
1560.3400, -77.750
1560.3600, -78.339
1560.3800, -79.055
1560.4000, -77.262
1560.4200, -78.648
1560.4400, -78.056
1560.4600, -78.243
1560.4800, -76.960
1560.5000, -78.612
1560.5200, -78.246
1560.5400, -78.088
1560.5600, -79.410
1560.5800, -77.638
1560.6000, -78.136
1560.6200, -78.678
1560.6400, -77.366
1560.6600, -77.513
1560.6800, -76.566
1560.7000, -78.046
1560.7200, -78.123
1560.7400, -77.459
1560.7600, -78.607
1560.7800, -77.429
1560.8000, -78.407
1560.8200, -77.783
1560.8400, -78.514
1560.8600, -78.210
1560.8800, -77.591
1560.9000, -76.829
1560.9200, -78.395
1560.9400, -76.954
1560.9600, -78.528
1560.9800, -77.765
1561.0000, -78.250
1561.0200, -78.012
1561.0400, -77.323
1561.0600, -77.927
1561.0800, -78.065
1561.1000, -77.700
1561.1200, -78.706
1561.1400, -76.894
1561.1600, -77.826
1561.1800, -77.582
1561.2000, -77.519
1561.2200, -77.546
1561.2400, -77.087
1561.2600, -77.971
1561.2800, -77.695
1561.3000, -77.340
1561.3200, -78.405
1561.3400, -78.992
1561.3600, -77.593
1561.3800, -77.540
1561.4000, -77.646
1561.4200, -76.807
1561.4400, -77.778
1561.4600, -77.304
1561.4800, -77.523
1561.5000, -77.203
1561.5200, -78.377
1561.5400, -77.229
1561.5600, -77.655
1561.5800, -77.763
1561.6000, -76.032
1561.6200, -78.651
1561.6400, -77.341
1561.6600, -77.065
1561.6800, -80.077
1561.7000, -76.300
1561.7200, -79.173
1561.7400, -75.860
1561.7600, -77.646
1561.7800, -77.490
1561.8000, -77.310
1561.8200, -78.939
1561.8400, -77.402
1561.8600, -76.749
1561.8800, -77.767
1561.9000, -77.366
1561.9200, -77.518
1561.9400, -76.732
1561.9600, -78.284
1561.9800, -78.159
1562.0000, -76.500
1562.0200, -77.558
1562.0400, -77.430
1562.0600, -79.210
1562.0800, -76.332
1562.1000, -76.615
1562.1200, -77.914
1562.1400, -77.219
1562.1600, -78.270
1562.1800, -76.633
1562.2000, -78.566
1562.2200, -76.977
1562.2400, -77.398
1562.2600, -77.227
1562.2800, -77.431
1562.3000, -79.115
1562.3200, -76.031
1562.3400, -77.509
1562.3600, -77.141
1562.3800, -76.811
1562.4000, -78.456
1562.4200, -75.863
1562.4400, -78.406
1562.4600, -78.117
1562.4800, -76.618
1562.5000, -77.287
1562.5200, -76.991
1562.5400, -77.226
1562.5600, -77.193
1562.5800, -77.193
1562.6000, -76.723
1562.6200, -76.412
1562.6400, -77.694
1562.6600, -77.522
1562.6800, -76.332
1562.7000, -77.022
1562.7200, -76.532
1562.7400, -76.663
1562.7600, -76.769
1562.7800, -76.853
1562.8000, -76.741
1562.8200, -76.579
1562.8400, -78.157
1562.8600, -75.924
1562.8800, -77.330
1562.9000, -76.434
1562.9200, -76.659
1562.9400, -77.351
1562.9600, -76.496
1562.9800, -76.849
1563.0000, -77.483
1563.0200, -77.468
1563.0400, -76.880
1563.0600, -77.353
1563.0800, -77.285
1563.1000, -77.149
1563.1200, -77.186
1563.1400, -77.498
1563.1600, -76.818
1563.1800, -77.298
1563.2000, -77.739
1563.2200, -77.800
1563.2400, -77.071
1563.2600, -78.318
1563.2800, -76.395
1563.3000, -76.472
1563.3200, -75.966
1563.3400, -76.710
1563.3600, -77.141
1563.3800, -76.299
1563.4000, -76.934
1563.4200, -77.221
1563.4400, -75.880
1563.4600, -77.764
1563.4800, -75.656
1563.5000, -76.705
1563.5200, -76.002
1563.5400, -77.862
1563.5600, -75.878
1563.5800, -77.350
1563.6000, -76.343
1563.6200, -76.402
1563.6400, -77.127
1563.6600, -75.688
1563.6800, -78.093
1563.7000, -75.792
1563.7200, -77.090
1563.7400, -75.957
1563.7600, -75.792
1563.7800, -77.701
1563.8000, -75.956
1563.8200, -78.099
1563.8400, -76.809
1563.8600, -75.919
1563.8800, -77.081
1563.9000, -76.657
1563.9200, -76.748
1563.9400, -75.900
1563.9600, -78.193
1563.9800, -76.648
1564.0000, -75.665
1564.0200, -76.486
1564.0400, -77.087
1564.0600, -76.462
1564.0800, -76.893
1564.1000, -76.531
1564.1200, -76.580
1564.1400, -76.075
1564.1600, -75.863
1564.1800, -75.668
1564.2000, -76.265
1564.2200, -77.334
1564.2400, -76.465
1564.2600, -76.226
1564.2800, -76.986
1564.3000, -75.976
1564.3200, -76.338
1564.3400, -76.316
1564.3600, -76.267
1564.3800, -76.723
1564.4000, -75.805
1564.4200, -76.923
1564.4400, -75.769
1564.4600, -76.510
1564.4800, -75.753
1564.5000, -76.559
1564.5200, -76.376
1564.5400, -75.934
1564.5600, -75.764
1564.5800, -76.224
1564.6000, -75.565
1564.6200, -77.332
1564.6400, -76.322
1564.6600, -76.426
1564.6800, -76.306
1564.7000, -75.854
1564.7200, -75.278
1564.7400, -76.431
1564.7600, -76.471
1564.7800, -75.861
1564.8000, -76.034
1564.8200, -76.372
1564.8400, -76.553
1564.8600, -76.509
1564.8800, -77.482
1564.9000, -76.001
1564.9200, -75.339
1564.9400, -76.647
1564.9600, -76.633
1564.9800, -75.419
1565.0000, -77.282
1565.0200, -75.260
1565.0400, -75.961
1565.0600, -77.275
1565.0800, -77.306
1565.1000, -75.551
1565.1200, -75.640
1565.1400, -76.055
1565.1600, -75.987
1565.1800, -75.533
1565.2000, -76.783
1565.2200, -75.478
1565.2400, -75.573
1565.2600, -76.437
1565.2800, -75.278
1565.3000, -76.619
1565.3200, -75.527
1565.3400, -76.292
1565.3600, -74.752
1565.3800, -76.641
1565.4000, -76.279
1565.4200, -75.639
1565.4400, -75.833
1565.4600, -76.028
1565.4800, -76.188
1565.5000, -75.410
1565.5200, -75.442
1565.5400, -75.842
1565.5600, -76.297
1565.5800, -75.693
1565.6000, -75.614
1565.6200, -75.719
1565.6400, -75.819
1565.6600, -75.798
1565.6800, -77.007
1565.7000, -75.201
1565.7200, -76.772
1565.7400, -74.840
1565.7600, -75.398
1565.7800, -76.055
1565.8000, -76.001
1565.8200, -75.549
1565.8400, -76.539
1565.8600, -76.279
1565.8800, -74.965
1565.9000, -76.061
1565.9200, -77.070
1565.9400, -74.982
1565.9600, -76.939
1565.9800, -75.838
1566.0000, -75.996
1566.0200, -75.848
1566.0400, -76.157
1566.0600, -75.617
1566.0800, -75.460
1566.1000, -76.261
1566.1200, -75.318
1566.1400, -75.485
1566.1600, -75.884
1566.1800, -74.617
1566.2000, -75.412
1566.2200, -76.000
1566.2400, -75.835
1566.2600, -75.356
1566.2800, -76.374
1566.3000, -75.831
1566.3200, -75.203
1566.3400, -75.213
1566.3600, -74.737
1566.3800, -75.937
1566.4000, -75.429
1566.4200, -75.536
1566.4400, -74.593
1566.4600, -75.395
1566.4800, -75.516
1566.5000, -75.428
1566.5200, -76.522
1566.5400, -75.541
1566.5600, -75.067
1566.5800, -75.675
1566.6000, -75.974
1566.6200, -75.661
1566.6400, -75.563
1566.6600, -75.883
1566.6800, -75.249
1566.7000, -76.701
1566.7200, -75.826
1566.7400, -75.536
1566.7600, -75.002
1566.7800, -75.741
1566.8000, -75.712
1566.8200, -74.862
1566.8400, -76.146
1566.8600, -75.042
1566.8800, -74.728
1566.9000, -75.546
1566.9200, -75.628
1566.9400, -75.322
1566.9600, -75.379
1566.9800, -75.034
1567.0000, -75.934
1567.0200, -75.367
1567.0400, -74.723
1567.0600, -75.579
1567.0800, -75.114
1567.1000, -76.032
1567.1200, -75.492
1567.1400, -75.425
1567.1600, -74.895
1567.1800, -76.211
1567.2000, -74.886
1567.2200, -75.315
1567.2400, -74.983
1567.2600, -75.827
1567.2800, -75.391
1567.3000, -75.147
1567.3200, -75.257
1567.3400, -75.398
1567.3600, -74.891
1567.3800, -75.055
1567.4000, -74.619
1567.4200, -75.688
1567.4400, -75.412
1567.4600, -75.847
1567.4800, -75.341
1567.5000, -75.140
1567.5200, -74.832
1567.5400, -75.651
1567.5600, -75.265
1567.5800, -75.361
1567.6000, -75.772
1567.6200, -75.358
1567.6400, -75.634
1567.6600, -74.891
1567.6800, -75.086
1567.7000, -74.762
1567.7200, -74.602
1567.7400, -74.968
1567.7600, -75.064
1567.7800, -75.698
1567.8000, -75.045
1567.8200, -75.076
1567.8400, -75.070
1567.8600, -74.521
1567.8800, -75.148
1567.9000, -75.235
1567.9200, -75.394
1567.9400, -75.232
1567.9600, -74.620
1567.9800, -75.050
1568.0000, -74.720
1568.0200, -74.721
1568.0400, -75.525
1568.0600, -74.865
1568.0800, -74.671
1568.1000, -75.509
1568.1200, -74.396
1568.1400, -74.695
1568.1600, -75.361
1568.1800, -74.966
1568.2000, -75.001
1568.2200, -74.374
1568.2400, -74.390
1568.2600, -74.951
1568.2800, -76.317
1568.3000, -74.478
1568.3200, -75.033
1568.3400, -75.384
1568.3600, -75.489
1568.3800, -74.924
1568.4000, -75.130
1568.4200, -75.181
1568.4400, -74.809
1568.4600, -74.578
1568.4800, -74.827
1568.5000, -74.951
1568.5200, -74.764
1568.5400, -74.560
1568.5600, -75.106
1568.5800, -74.946
1568.6000, -74.744
1568.6200, -75.268
1568.6400, -74.558
1568.6600, -75.098
1568.6800, -74.954
1568.7000, -74.690
1568.7200, -74.467
1568.7400, -74.444
1568.7600, -75.318
1568.7800, -74.820
1568.8000, -74.726
1568.8200, -74.716
1568.8400, -74.712
1568.8600, -74.965
1568.8800, -75.165
1568.9000, -74.855
1568.9200, -75.049
1568.9400, -74.490
1568.9600, -74.473
1568.9800, -74.457
1569.0000, -74.360
1569.0200, -75.112
1569.0400, -74.640
1569.0600, -75.077
1569.0800, -74.586
1569.1000, -74.085
1569.1200, -75.307
1569.1400, -74.297
1569.1600, -75.309
1569.1800, -74.285
1569.2000, -75.271
1569.2200, -75.017
1569.2400, -74.875
1569.2600, -74.787
1569.2800, -74.862
1569.3000, -74.918
1569.3200, -74.833
1569.3400, -74.526
1569.3600, -74.609
1569.3800, -75.120
1569.4000, -74.890
1569.4200, -74.706
1569.4400, -74.949
1569.4600, -74.348
1569.4800, -74.643
1569.5000, -74.968
1569.5200, -74.232
1569.5400, -74.272
1569.5600, -74.840
1569.5800, -74.558
1569.6000, -74.509
1569.6200, -74.113
1569.6400, -74.371
1569.6600, -75.111
1569.6800, -74.890
1569.7000, -73.543
1569.7200, -74.948
1569.7400, -74.455
1569.7600, -73.657
1569.7800, -75.042
1569.8000, -74.554
1569.8200, -73.776
1569.8400, -75.297
1569.8600, -74.482
1569.8800, -75.163
1569.9000, -74.555
1569.9200, -74.670
1569.9400, -74.125
1569.9600, -74.214
1569.9800, -74.596
1570.0000, -74.571
1570.0200, -74.618
1570.0400, -74.632
1570.0600, -74.008
1570.0800, -74.912
1570.1000, -74.693
1570.1200, -74.566
1570.1400, -74.880
1570.1600, -74.611
1570.1800, -74.729
1570.2000, -74.531
1570.2200, -74.597
1570.2400, -75.259
1570.2600, -74.158
1570.2800, -74.490
1570.3000, -75.175
1570.3200, -74.509
1570.3400, -74.630
1570.3600, -74.607
1570.3800, -74.279
1570.4000, -74.541
1570.4200, -74.830
1570.4400, -74.321
1570.4600, -73.955
1570.4800, -74.435
1570.5000, -74.016
1570.5200, -74.222
1570.5400, -74.233
1570.5600, -74.210
1570.5800, -74.912
1570.6000, -73.827
1570.6200, -74.428
1570.6400, -73.928
1570.6600, -74.513
1570.6800, -75.372
1570.7000, -74.294
1570.7200, -73.984
1570.7400, -74.227
1570.7600, -74.196
1570.7800, -74.709
1570.8000, -74.305
1570.8200, -74.456
1570.8400, -74.253
1570.8600, -75.145
1570.8800, -74.285
1570.9000, -74.741
1570.9200, -73.937
1570.9400, -74.523
1570.9600, -74.822
1570.9800, -74.178
1571.0000, -74.679
1571.0200, -73.967
1571.0400, -74.081
1571.0600, -74.761
1571.0800, -74.539
1571.1000, -74.237
1571.1200, -74.923
1571.1400, -74.534
1571.1600, -74.365
1571.1800, -74.491
1571.2000, -74.261
1571.2200, -74.114
1571.2400, -73.681
1571.2600, -74.992
1571.2800, -75.302
1571.3000, -74.277
1571.3200, -74.211
1571.3400, -74.446
1571.3600, -73.770
1571.3800, -73.786
1571.4000, -74.944
1571.4200, -74.288
1571.4400, -73.613
1571.4600, -74.184
1571.4800, -74.033
1571.5000, -74.304
1571.5200, -74.109
1571.5400, -73.956
1571.5600, -74.219
1571.5800, -74.851
1571.6000, -74.037
1571.6200, -73.966
1571.6400, -74.397
1571.6600, -74.518
1571.6800, -73.567
1571.7000, -74.488
1571.7200, -74.264
1571.7400, -74.367
1571.7600, -74.073
1571.7800, -74.217
1571.8000, -74.538
1571.8200, -74.165
1571.8400, -74.708
1571.8600, -74.467
1571.8800, -74.039
1571.9000, -74.523
1571.9200, -74.990
1571.9400, -74.112
1571.9600, -74.339
1571.9800, -74.273
1572.0000, -74.574
1572.0200, -73.842
1572.0400, -74.281
1572.0600, -74.084
1572.0800, -74.634
1572.1000, -74.183
1572.1200, -74.598
1572.1400, -73.962
1572.1600, -74.409
1572.1800, -73.790
1572.2000, -74.157
1572.2200, -74.163
1572.2400, -74.388
1572.2600, -74.348
1572.2800, -74.100
1572.3000, -73.745
1572.3200, -74.271
1572.3400, -73.962
1572.3600, -74.208
1572.3800, -73.770
1572.4000, -74.306
1572.4200, -74.081
1572.4400, -73.989
1572.4600, -74.133
1572.4800, -74.273
1572.5000, -74.345
1572.5200, -73.941
1572.5400, -73.803
1572.5600, -74.425
1572.5800, -74.179
1572.6000, -74.014
1572.6200, -73.863
1572.6400, -73.678
1572.6600, -74.464
1572.6800, -74.506
1572.7000, -74.151
1572.7200, -73.908
1572.7400, -74.333
1572.7600, -73.987
1572.7800, -73.847
1572.8000, -74.015
1572.8200, -74.203
1572.8400, -74.021
1572.8600, -74.180
1572.8800, -74.561
1572.9000, -74.452
1572.9200, -73.896
1572.9400, -74.062
1572.9600, -74.389
1572.9800, -74.301
1573.0000, -73.891
1573.0200, -74.122
1573.0400, -73.594
1573.0600, -74.442
1573.0800, -74.122
1573.1000, -74.036
1573.1200, -73.571
1573.1400, -73.778
1573.1600, -74.659
1573.1800, -74.038
1573.2000, -73.810
1573.2200, -73.645
1573.2400, -73.743
1573.2600, -74.377
1573.2800, -73.563
1573.3000, -74.275
1573.3200, -73.935
1573.3400, -73.650
1573.3600, -73.890
1573.3800, -74.330
1573.4000, -73.305
1573.4200, -74.564
1573.4400, -74.285
1573.4600, -74.535
1573.4800, -73.545
1573.5000, -74.340
1573.5200, -73.159
1573.5400, -74.353
1573.5600, -74.169
1573.5800, -74.103
1573.6000, -74.114
1573.6200, -74.013
1573.6400, -73.980
1573.6600, -73.723
1573.6800, -74.054
1573.7000, -74.061
1573.7200, -73.881
1573.7400, -74.005
1573.7600, -74.426
1573.7800, -73.799
1573.8000, -73.776
1573.8200, -74.135
1573.8400, -73.970
1573.8600, -73.845
1573.8800, -73.890
1573.9000, -74.095
1573.9200, -73.651
1573.9400, -73.979
1573.9600, -73.775
1573.9800, -73.764
1574.0000, -73.620
1574.0200, -73.939
1574.0400, -73.683
1574.0600, -74.070
1574.0800, -73.777
1574.1000, -73.624
1574.1200, -73.812
1574.1400, -73.856
1574.1600, -73.498
1574.1800, -74.203
1574.2000, -73.929
1574.2200, -74.127
1574.2400, -74.002
1574.2600, -73.643
1574.2800, -73.897
1574.3000, -73.998
1574.3200, -74.370
1574.3400, -73.590
1574.3600, -74.041
1574.3800, -74.201
1574.4000, -73.349
1574.4200, -74.356
1574.4400, -73.421
1574.4600, -74.647
1574.4800, -74.125
1574.5000, -73.435
1574.5200, -74.351
1574.5400, -73.502
1574.5600, -73.893
1574.5800, -73.846
1574.6000, -74.015
1574.6200, -73.697
1574.6400, -73.765
1574.6600, -73.976
1574.6800, -73.772
1574.7000, -73.583
1574.7200, -73.980
1574.7400, -73.594
1574.7600, -73.789
1574.7800, -73.775
1574.8000, -74.008
1574.8200, -73.644
1574.8400, -73.753
1574.8600, -73.880
1574.8800, -73.395
1574.9000, -73.989
1574.9200, -73.626
1574.9400, -74.071
1574.9600, -73.166
1574.9800, -73.962
1575.0000, -73.693
1575.0200, -73.580
1575.0400, -73.669
1575.0600, -74.400
1575.0800, -73.425
1575.1000, -73.692
1575.1200, -74.454
1575.1400, -73.620
1575.1600, -73.680
1575.1800, -73.599
1575.2000, -73.814
1575.2200, -74.238
1575.2400, -73.354
1575.2600, -73.942
1575.2800, -73.905
1575.3000, -74.123
1575.3200, -73.729
1575.3400, -73.657
1575.3600, -73.610
1575.3800, -73.799
1575.4000, -74.075
1575.4200, -74.123
1575.4400, -73.747
1575.4600, -73.623
1575.4800, -74.055
1575.5000, -73.538
1575.5200, -74.185
1575.5400, -73.715
1575.5600, -73.374
1575.5800, -73.871
1575.6000, -73.453
1575.6200, -73.880
1575.6400, -73.465
1575.6600, -74.033
1575.6800, -73.518
1575.7000, -74.192
1575.7200, -73.460
1575.7400, -73.459
1575.7600, -73.747
1575.7800, -73.665
1575.8000, -73.325
1575.8200, -74.141
1575.8400, -73.724
1575.8600, -73.543
1575.8800, -73.279
1575.9000, -74.042
1575.9200, -73.341
1575.9400, -74.703
1575.9600, -73.521
1575.9800, -74.308
1576.0000, -73.926
1576.0200, -73.788
1576.0400, -73.511
1576.0600, -73.160
1576.0800, -74.310
1576.1000, -73.820
1576.1200, -73.404
1576.1400, -73.715
1576.1600, -73.637
1576.1800, -74.116
1576.2000, -73.811
1576.2200, -73.543
1576.2400, -73.833
1576.2600, -73.810
1576.2800, -73.956
1576.3000, -73.617
1576.3200, -73.883
1576.3400, -73.305
1576.3600, -73.970
1576.3800, -73.579
1576.4000, -74.220
1576.4200, -73.579
1576.4400, -73.755
1576.4600, -73.611
1576.4800, -73.840
1576.5000, -74.327
1576.5200, -73.856
1576.5400, -73.683
1576.5600, -73.811
1576.5800, -72.875
1576.6000, -74.193
1576.6200, -72.979
1576.6400, -73.594
1576.6600, -74.158
1576.6800, -73.726
1576.7000, -73.515
1576.7200, -72.982
1576.7400, -74.558
1576.7600, -73.478
1576.7800, -73.434
1576.8000, -73.527
1576.8200, -74.285
1576.8400, -74.329
1576.8600, -73.966
1576.8800, -73.090
1576.9000, -73.511
1576.9200, -73.617
1576.9400, -73.718
1576.9600, -73.655
1576.9800, -73.534
1577.0000, -73.858
1577.0200, -73.520
1577.0400, -73.681
1577.0600, -74.084
1577.0800, -73.619
1577.1000, -73.824
1577.1200, -73.538
1577.1400, -73.982
1577.1600, -72.919
1577.1800, -74.005
1577.2000, -73.761
1577.2200, -73.228
1577.2400, -74.124
1577.2600, -73.915
1577.2800, -72.982
1577.3000, -73.676
1577.3200, -74.740
1577.3400, -73.041
1577.3600, -73.694
1577.3800, -73.455
1577.4000, -74.030
1577.4200, -74.295
1577.4400, -73.320
1577.4600, -73.541
1577.4800, -74.206
1577.5000, -73.781
1577.5200, -73.779
1577.5400, -73.389
1577.5600, -73.524
1577.5800, -73.505
1577.6000, -73.856
1577.6200, -73.903
1577.6400, -73.686
1577.6600, -73.542
1577.6800, -72.996
1577.7000, -74.055
1577.7200, -73.341
1577.7400, -73.794
1577.7600, -73.450
1577.7800, -74.343
1577.8000, -73.121
1577.8200, -73.670
1577.8400, -73.558
1577.8600, -73.809
1577.8800, -73.223
1577.9000, -74.172
1577.9200, -73.700
1577.9400, -73.677
1577.9600, -74.157
1577.9800, -73.319
1578.0000, -74.422
1578.0200, -72.995
1578.0400, -74.388
1578.0600, -73.392
1578.0800, -73.427
1578.1000, -73.855
1578.1200, -73.908
1578.1400, -73.200
1578.1600, -73.918
1578.1800, -73.752
1578.2000, -74.025
1578.2200, -73.630
1578.2400, -72.996
1578.2600, -74.056
1578.2800, -74.010
1578.3000, -73.688
1578.3200, -73.567
1578.3400, -73.264
1578.3600, -72.972
1578.3800, -73.977
1578.4000, -73.871
1578.4200, -73.461
1578.4400, -73.301
1578.4600, -73.730
1578.4800, -73.681
1578.5000, -73.405
1578.5200, -73.792
1578.5400, -73.809
1578.5600, -73.345
1578.5800, -73.967
1578.6000, -73.660
1578.6200, -73.385
1578.6400, -74.011
1578.6600, -74.060
1578.6800, -73.558
1578.7000, -74.235
1578.7200, -73.590
1578.7400, -73.473
1578.7600, -73.802
1578.7800, -74.332
1578.8000, -73.548
1578.8200, -73.614
1578.8400, -73.364
1578.8600, -73.830
1578.8800, -73.789
1578.9000, -73.958
1578.9200, -73.663
1578.9400, -73.759
1578.9600, -73.735
1578.9800, -73.675
1579.0000, -73.506
1579.0200, -73.250
1579.0400, -74.207
1579.0600, -73.246
1579.0800, -73.593
1579.1000, -73.529
1579.1200, -73.647
1579.1400, -73.686
1579.1600, -73.634
1579.1800, -73.620
1579.2000, -73.719
1579.2200, -73.597
1579.2400, -72.986
1579.2600, -73.744
1579.2800, -73.343
1579.3000, -73.530
1579.3200, -73.541
1579.3400, -73.748
1579.3600, -73.115
1579.3800, -74.116
1579.4000, -73.804
1579.4200, -74.067
1579.4400, -73.030
1579.4600, -74.333
1579.4800, -73.841
1579.5000, -73.419
1579.5200, -73.952
1579.5400, -73.422
1579.5600, -73.321
1579.5800, -73.056
1579.6000, -73.696
1579.6200, -74.083
1579.6400, -73.530
1579.6600, -73.772
1579.6800, -74.178
1579.7000, -73.277
1579.7200, -73.463
1579.7400, -74.031
1579.7600, -73.334
1579.7800, -73.519
1579.8000, -73.819
1579.8200, -72.968
1579.8400, -74.179
1579.8600, -73.366
1579.8800, -74.120
1579.9000, -73.630
1579.9200, -73.330
1579.9400, -74.203
1579.9600, -73.907
1579.9800, -73.537
1580.0000, -72.700
1580.0200, -74.251
1580.0400, -73.426
1580.0600, -74.164
1580.0800, -73.421
1580.1000, -73.187
1580.1200, -73.311
1580.1400, -73.644
1580.1600, -73.639
1580.1800, -73.493
1580.2000, -73.783
1580.2200, -73.458
1580.2400, -73.544
1580.2600, -74.302
1580.2800, -73.535
1580.3000, -72.926
1580.3200, -73.813
1580.3400, -73.396
1580.3600, -74.247
1580.3800, -73.033
1580.4000, -73.684
1580.4200, -73.413
1580.4400, -73.561
1580.4600, -73.668
1580.4800, -73.578
1580.5000, -73.750
1580.5200, -73.582
1580.5400, -73.754
1580.5600, -73.580
1580.5800, -73.435
1580.6000, -73.436
1580.6200, -73.944
1580.6400, -73.468
1580.6600, -73.712
1580.6800, -73.940
1580.7000, -73.667
1580.7200, -73.495
1580.7400, -73.905
1580.7600, -73.862
1580.7800, -73.868
1580.8000, -73.414
1580.8200, -73.138
1580.8400, -73.660
1580.8600, -73.543
1580.8800, -73.827
1580.9000, -73.169
1580.9200, -73.599
1580.9400, -73.704
1580.9600, -74.281
1580.9800, -74.098
1581.0000, -73.469
1581.0200, -73.385
1581.0400, -73.376
1581.0600, -73.727
1581.0800, -74.135
1581.1000, -73.530
1581.1200, -73.914
1581.1400, -73.556
1581.1600, -73.461
1581.1800, -73.700
1581.2000, -73.058
1581.2200, -73.477
1581.2400, -73.840
1581.2600, -73.931
1581.2800, -73.421
1581.3000, -73.382
1581.3200, -73.885
1581.3400, -74.025
1581.3600, -73.379
1581.3800, -73.627
1581.4000, -73.184
1581.4200, -73.542
1581.4400, -73.835
1581.4600, -73.696
1581.4800, -72.958
1581.5000, -73.268
1581.5200, -73.632
1581.5400, -73.361
1581.5600, -74.450
1581.5800, -73.601
1581.6000, -73.316
1581.6200, -73.359
1581.6400, -74.034
1581.6600, -73.838
1581.6800, -73.571
1581.7000, -73.364
1581.7200, -73.867
1581.7400, -73.585
1581.7600, -73.656
1581.7800, -73.020
1581.8000, -74.169
1581.8200, -73.489
1581.8400, -74.249
1581.8600, -73.166
1581.8800, -73.734
1581.9000, -73.730
1581.9200, -73.959
1581.9400, -73.878
1581.9600, -72.975
1581.9800, -73.745
1582.0000, -73.560
1582.0200, -74.335
1582.0400, -73.388
1582.0600, -73.480
1582.0800, -73.658
1582.1000, -73.796
1582.1200, -73.952
1582.1400, -73.463
1582.1600, -73.869
1582.1800, -73.871
1582.2000, -73.609
1582.2200, -73.955
1582.2400, -73.424
1582.2600, -73.381
1582.2800, -73.350
1582.3000, -73.866
1582.3200, -73.660
1582.3400, -73.936
1582.3600, -73.596
1582.3800, -73.316
1582.4000, -74.296
1582.4200, -73.663
1582.4400, -73.284
1582.4600, -73.942
1582.4800, -73.501
1582.5000, -73.413
1582.5200, -73.350
1582.5400, -73.587
1582.5600, -73.444
1582.5800, -73.319
1582.6000, -73.395
1582.6200, -73.905
1582.6400, -73.252
1582.6600, -73.506
1582.6800, -73.260
1582.7000, -73.861
1582.7200, -73.806
1582.7400, -73.439
1582.7600, -73.558
1582.7800, -73.305
1582.8000, -73.521
1582.8200, -73.365
1582.8400, -73.623
1582.8600, -73.919
1582.8800, -73.712
1582.9000, -74.303
1582.9200, -74.013
1582.9400, -73.359
1582.9600, -73.206
1582.9800, -73.553
1583.0000, -73.883
1583.0200, -73.971
1583.0400, -73.370
1583.0600, -73.450
1583.0800, -73.954
1583.1000, -73.661
1583.1200, -73.815
1583.1400, -73.434
1583.1600, -73.677
1583.1800, -73.518
1583.2000, -74.301
1583.2200, -73.015
1583.2400, -73.716
1583.2600, -73.324
1583.2800, -73.808
1583.3000, -74.121
1583.3200, -73.033
1583.3400, -73.654
1583.3600, -73.851
1583.3800, -73.379
1583.4000, -73.493
1583.4200, -73.505
1583.4400, -73.686
1583.4600, -73.736
1583.4800, -73.581
1583.5000, -73.986
1583.5200, -73.444
1583.5400, -73.955
1583.5600, -73.533
1583.5800, -73.876
1583.6000, -73.777
1583.6200, -73.566
1583.6400, -73.465
1583.6600, -73.548
1583.6800, -74.261
1583.7000, -73.333
1583.7200, -74.212
1583.7400, -73.119
1583.7600, -74.187
1583.7800, -73.810
1583.8000, -73.691
1583.8200, -74.398
1583.8400, -73.168
1583.8600, -73.496
1583.8800, -74.012
1583.9000, -73.468
1583.9200, -73.701
1583.9400, -73.619
1583.9600, -73.699
1583.9800, -73.068
1584.0000, -73.410
1584.0200, -73.863
1584.0400, -74.271
1584.0600, -73.519
1584.0800, -73.714
1584.1000, -73.310
1584.1200, -73.561
1584.1400, -73.397
1584.1600, -74.207
1584.1800, -73.298
1584.2000, -73.680
1584.2200, -73.373
1584.2400, -73.776
1584.2600, -73.550
1584.2800, -73.940
1584.3000, -73.374
1584.3200, -73.682
1584.3400, -73.011
1584.3600, -74.091
1584.3800, -73.258
1584.4000, -72.935
1584.4200, -73.939
1584.4400, -74.200
1584.4600, -74.002
1584.4800, -73.761
1584.5000, -73.224
1584.5200, -73.660
1584.5400, -73.647
1584.5600, -73.972
1584.5800, -73.110
1584.6000, -74.072
1584.6200, -73.235
1584.6400, -73.317
1584.6600, -73.610
1584.6800, -74.248
1584.7000, -73.742
1584.7200, -73.887
1584.7400, -73.861
1584.7600, -73.601
1584.7800, -73.652
1584.8000, -73.549
1584.8200, -73.800
1584.8400, -73.793
1584.8600, -73.831
1584.8800, -73.684
1584.9000, -73.329
1584.9200, -73.711
1584.9400, -73.753
1584.9600, -73.652
1584.9800, -73.877
1585.0000, -73.530
1585.0200, -73.815
1585.0400, -73.181
1585.0600, -73.830
1585.0800, -73.128
1585.1000, -73.723
1585.1200, -73.496
1585.1400, -73.550
1585.1600, -74.060
1585.1800, -73.253
1585.2000, -73.467
1585.2200, -73.543
1585.2400, -73.995
1585.2600, -73.829
1585.2800, -73.443
1585.3000, -73.609
1585.3200, -73.419
1585.3400, -73.582
1585.3600, -74.197
1585.3800, -73.490
1585.4000, -74.154
1585.4200, -73.550
1585.4400, -74.048
1585.4600, -73.644
1585.4800, -73.342
1585.5000, -73.626
1585.5200, -73.815
1585.5400, -73.608
1585.5600, -73.813
1585.5800, -73.468
1585.6000, -73.700
1585.6200, -73.799
1585.6400, -73.939
1585.6600, -73.681
1585.6800, -73.554
1585.7000, -73.769
1585.7200, -73.473
1585.7400, -73.692
1585.7600, -73.384
1585.7800, -73.260
1585.8000, -73.785
1585.8200, -73.123
1585.8400, -73.983
1585.8600, -73.533
1585.8800, -73.651
1585.9000, -73.557
1585.9200, -73.278
1585.9400, -73.951
1585.9600, -72.989
1585.9800, -73.791
1586.0000, -73.539
1586.0200, -73.516
1586.0400, -73.994
1586.0600, -73.679
1586.0800, -73.178
1586.1000, -74.327
1586.1200, -73.130
1586.1400, -73.921
1586.1600, -73.596
1586.1800, -73.595
1586.2000, -73.603
1586.2200, -73.368
1586.2400, -73.451
1586.2600, -73.452
1586.2800, -73.862
1586.3000, -73.527
1586.3200, -73.372
1586.3400, -73.986
1586.3600, -73.739
1586.3800, -73.283
1586.4000, -73.965
1586.4200, -73.689
1586.4400, -73.548
1586.4600, -73.404
1586.4800, -73.424
1586.5000, -73.915
1586.5200, -73.972
1586.5400, -73.964
1586.5600, -73.916
1586.5800, -74.000
1586.6000, -74.216
1586.6200, -73.583
1586.6400, -73.250
1586.6600, -73.593
1586.6800, -73.517
1586.7000, -74.002
1586.7200, -74.043
1586.7400, -73.723
1586.7600, -73.878
1586.7800, -73.395
1586.8000, -73.753
1586.8200, -73.167
1586.8400, -73.690
1586.8600, -73.857
1586.8800, -73.303
1586.9000, -73.822
1586.9200, -74.105
1586.9400, -73.179
1586.9600, -73.688
1586.9800, -73.552
1587.0000, -74.283
1587.0200, -73.609
1587.0400, -73.928
1587.0600, -74.132
1587.0800, -73.741
1587.1000, -73.815
1587.1200, -73.850
1587.1400, -73.387
1587.1600, -74.288
1587.1800, -73.616
1587.2000, -73.621
1587.2200, -74.224
1587.2400, -73.413
1587.2600, -74.011
1587.2800, -73.888
1587.3000, -74.198
1587.3200, -73.213
1587.3400, -73.896
1587.3600, -74.167
1587.3800, -73.281
1587.4000, -73.765
1587.4200, -74.114
1587.4400, -73.371
1587.4600, -74.310
1587.4800, -73.492
1587.5000, -73.483
1587.5200, -73.162
1587.5400, -73.916
1587.5600, -73.742
1587.5800, -74.230
1587.6000, -73.309
1587.6200, -73.665
1587.6400, -73.642
1587.6600, -73.403
1587.6800, -73.846
1587.7000, -73.398
1587.7200, -73.707
1587.7400, -73.472
1587.7600, -73.610
1587.7800, -73.691
1587.8000, -73.300
1587.8200, -73.880
1587.8400, -73.726
1587.8600, -73.729
1587.8800, -74.065
1587.9000, -73.442
1587.9200, -73.495
1587.9400, -73.815
1587.9600, -73.693
1587.9800, -73.431
1588.0000, -73.750
1588.0200, -73.751
1588.0400, -73.850
1588.0600, -73.441
1588.0800, -73.986
1588.1000, -73.298
1588.1200, -74.112
1588.1400, -74.737
1588.1600, -73.442
1588.1800, -73.704
1588.2000, -73.745
1588.2200, -73.751
1588.2400, -73.719
1588.2600, -73.387
1588.2800, -74.168
1588.3000, -73.794
1588.3200, -73.572
1588.3400, -73.972
1588.3600, -73.680
1588.3800, -73.918
1588.4000, -73.581
1588.4200, -73.642
1588.4400, -74.161
1588.4600, -73.634
1588.4800, -73.662
1588.5000, -73.411
1588.5200, -73.318
1588.5400, -73.744
1588.5600, -73.490
1588.5800, -73.884
1588.6000, -73.466
1588.6200, -73.982
1588.6400, -73.252
1588.6600, -74.114
1588.6800, -72.733
1588.7000, -73.687
1588.7200, -73.579
1588.7400, -73.743
1588.7600, -73.627
1588.7800, -74.642
1588.8000, -73.098
1588.8200, -73.437
1588.8400, -73.429
1588.8600, -73.698
1588.8800, -73.676
1588.9000, -73.766
1588.9200, -74.147
1588.9400, -73.349
1588.9600, -73.645
1588.9800, -73.680
1589.0000, -73.717
1589.0200, -74.536
1589.0400, -73.747
1589.0600, -73.629
1589.0800, -73.706
1589.1000, -73.355
1589.1200, -74.317
1589.1400, -73.701
1589.1600, -73.729
1589.1800, -73.539
1589.2000, -73.643
1589.2200, -73.414
1589.2400, -73.441
1589.2600, -73.045
1589.2800, -74.337
1589.3000, -73.611
1589.3200, -73.203
1589.3400, -74.274
1589.3600, -73.580
1589.3800, -73.522
1589.4000, -73.898
1589.4200, -73.314
1589.4400, -73.564
1589.4600, -73.856
1589.4800, -73.432
1589.5000, -74.250
1589.5200, -73.477
1589.5400, -73.726
1589.5600, -73.519
1589.5800, -73.422
1589.6000, -73.998
1589.6200, -74.316
1589.6400, -73.296
1589.6600, -73.123
1589.6800, -74.681
1589.7000, -73.286
1589.7200, -73.746
1589.7400, -73.828
1589.7600, -73.427
1589.7800, -73.907
1589.8000, -73.602
1589.8200, -73.999
1589.8400, -73.897
1589.8600, -74.102
1589.8800, -73.497
1589.9000, -73.512
1589.9200, -73.407
1589.9400, -74.198
1589.9600, -73.931
1589.9800, -73.506
1590.0000, -73.601
1590.0200, -73.597
1590.0400, -73.486
1590.0600, -73.959
1590.0800, -73.530
1590.1000, -73.688
1590.1200, -73.810
1590.1400, -73.837
1590.1600, -73.785
1590.1800, -73.347
1590.2000, -73.380
1590.2200, -73.017
1590.2400, -73.931
1590.2600, -74.098
1590.2800, -73.613
1590.3000, -74.067
1590.3200, -73.607
1590.3400, -73.602
1590.3600, -73.857
1590.3800, -73.742
1590.4000, -73.416
1590.4200, -73.122
1590.4400, -73.479
1590.4600, -73.692
1590.4800, -73.532
1590.5000, -74.138
1590.5200, -73.515
1590.5400, -74.751
1590.5600, -73.400
1590.5800, -73.649
1590.6000, -73.211
1590.6200, -73.835
1590.6400, -73.705
1590.6600, -73.563
1590.6800, -73.824
1590.7000, -73.294
1590.7200, -73.858
1590.7400, -73.916
1590.7600, -74.166
1590.7800, -73.748
1590.8000, -73.415
1590.8200, -73.825
1590.8400, -74.527
1590.8600, -73.420
1590.8800, -73.922
1590.9000, -73.921
1590.9200, -73.918
1590.9400, -73.885
1590.9600, -73.514
1590.9800, -73.821
1591.0000, -73.096
1591.0200, -73.586
1591.0400, -73.944
1591.0600, -73.699
1591.0800, -74.225
1591.1000, -73.521
1591.1200, -73.727
1591.1400, -74.099
1591.1600, -73.335
1591.1800, -73.380
1591.2000, -74.011
1591.2200, -73.937
1591.2400, -73.553
1591.2600, -73.219
1591.2800, -74.715
1591.3000, -73.347
1591.3200, -73.637
1591.3400, -73.904
1591.3600, -73.650
1591.3800, -74.342
1591.4000, -74.270
1591.4200, -73.735
1591.4400, -73.757
1591.4600, -73.784
1591.4800, -73.747
1591.5000, -74.150
1591.5200, -73.825
1591.5400, -74.069
1591.5600, -73.761
1591.5800, -73.368
1591.6000, -73.674
1591.6200, -74.433
1591.6400, -73.413
1591.6600, -74.194
1591.6800, -74.127
1591.7000, -73.469
1591.7200, -73.789
1591.7400, -74.185
1591.7600, -73.141
1591.7800, -73.401
1591.8000, -73.897
1591.8200, -73.817
1591.8400, -74.196
1591.8600, -73.899
1591.8800, -73.157
1591.9000, -73.378
1591.9200, -73.742
1591.9400, -73.316
1591.9600, -74.326
1591.9800, -73.518
1592.0000, -73.579
1592.0200, -74.197
1592.0400, -73.699
1592.0600, -74.066
1592.0800, -73.533
1592.1000, -73.813
1592.1200, -73.775
1592.1400, -73.622
1592.1600, -73.949
1592.1800, -74.582
1592.2000, -73.791
1592.2200, -73.673
1592.2400, -73.045
1592.2600, -74.028
1592.2800, -74.412
1592.3000, -73.558
1592.3200, -74.229
1592.3400, -73.501
1592.3600, -74.122
1592.3800, -73.688
1592.4000, -74.024
1592.4200, -73.351
1592.4400, -73.801
1592.4600, -73.832
1592.4800, -73.828
1592.5000, -73.671
1592.5200, -73.593
1592.5400, -73.692
1592.5600, -73.695
1592.5800, -73.736
1592.6000, -73.703
1592.6200, -73.711
1592.6400, -73.980
1592.6600, -73.458
1592.6800, -74.016
1592.7000, -73.784
1592.7200, -73.383
1592.7400, -73.467
1592.7600, -73.599
1592.7800, -73.977
1592.8000, -73.363
1592.8200, -73.961
1592.8400, -73.749
1592.8600, -73.967
1592.8800, -73.251
1592.9000, -73.837
1592.9200, -73.765
1592.9400, -73.978
1592.9600, -74.440
1592.9800, -73.983
1593.0000, -73.663
1593.0200, -73.973
1593.0400, -74.308
1593.0600, -73.577
1593.0800, -73.493
1593.1000, -73.633
1593.1200, -73.793
1593.1400, -73.659
1593.1600, -73.520
1593.1800, -74.015
1593.2000, -74.121
1593.2200, -74.659
1593.2400, -73.189
1593.2600, -74.421
1593.2800, -73.444
1593.3000, -73.524
1593.3200, -74.039
1593.3400, -73.429
1593.3600, -74.706
1593.3800, -73.357
1593.4000, -73.767
1593.4200, -74.499
1593.4400, -74.168
1593.4600, -74.010
1593.4800, -73.055
1593.5000, -74.642
1593.5200, -73.082
1593.5400, -75.104
1593.5600, -73.412
1593.5800, -74.043
1593.6000, -73.604
1593.6200, -73.934
1593.6400, -73.557
1593.6600, -73.632
1593.6800, -74.130
1593.7000, -73.744
1593.7200, -73.698
1593.7400, -73.429
1593.7600, -73.962
1593.7800, -73.654
1593.8000, -74.478
1593.8200, -73.348
1593.8400, -74.506
1593.8600, -73.393
1593.8800, -74.703
1593.9000, -73.667
1593.9200, -73.963
1593.9400, -73.793
1593.9600, -73.593
1593.9800, -74.740
1594.0000, -74.068
1594.0200, -74.335
1594.0400, -73.296
1594.0600, -73.855
1594.0800, -73.896
1594.1000, -74.485
1594.1200, -73.771
1594.1400, -73.851
1594.1600, -73.354
1594.1800, -73.908
1594.2000, -74.174
1594.2200, -73.882
1594.2400, -74.030
1594.2600, -73.602
1594.2800, -73.460
1594.3000, -73.424
1594.3200, -73.595
1594.3400, -73.806
1594.3600, -73.676
1594.3800, -73.870
1594.4000, -73.593
1594.4200, -73.887
1594.4400, -73.546
1594.4600, -73.851
1594.4800, -73.792
1594.5000, -73.989
1594.5200, -74.563
1594.5400, -73.587
1594.5600, -73.395
1594.5800, -74.519
1594.6000, -73.528
1594.6200, -73.988
1594.6400, -73.956
1594.6600, -73.643
1594.6800, -74.928
1594.7000, -73.753
1594.7200, -73.774
1594.7400, -74.069
1594.7600, -74.167
1594.7800, -73.652
1594.8000, -73.558
1594.8200, -73.845
1594.8400, -73.571
1594.8600, -73.841
1594.8800, -73.982
1594.9000, -73.723
1594.9200, -73.845
1594.9400, -73.821
1594.9600, -74.285
1594.9800, -73.468
1595.0000, -73.892
1595.0200, -73.807
1595.0400, -74.045
1595.0600, -73.770
1595.0800, -73.969
1595.1000, -73.483
1595.1200, -73.848
1595.1400, -73.744
1595.1600, -73.789
1595.1800, -73.653
1595.2000, -73.396
1595.2200, -74.421
1595.2400, -73.568
1595.2600, -74.026
1595.2800, -73.790
1595.3000, -73.534
1595.3200, -74.064
1595.3400, -74.664
1595.3600, -73.950
1595.3800, -73.768
1595.4000, -73.806
1595.4200, -74.080
1595.4400, -73.684
1595.4600, -73.873
1595.4800, -74.106
1595.5000, -72.950
1595.5200, -74.965
1595.5400, -74.105
1595.5600, -73.870
1595.5800, -73.642
1595.6000, -73.440
1595.6200, -73.954
1595.6400, -74.622
1595.6600, -73.712
1595.6800, -73.683
1595.7000, -74.236
1595.7200, -74.107
1595.7400, -73.730
1595.7600, -73.928
1595.7800, -73.735
1595.8000, -74.219
1595.8200, -74.161
1595.8400, -74.116
1595.8600, -73.600
1595.8800, -73.805
1595.9000, -74.611
1595.9200, -73.761
1595.9400, -73.545
1595.9600, -74.127
1595.9800, -73.591
1596.0000, -73.774
1596.0200, -74.622
1596.0400, -73.240
1596.0600, -73.714
1596.0800, -73.639
1596.1000, -74.556
1596.1200, -73.715
1596.1400, -73.999
1596.1600, -73.725
1596.1800, -73.865
1596.2000, -74.106
1596.2200, -74.799
1596.2400, -74.002
1596.2600, -73.084
1596.2800, -73.981
1596.3000, -73.751
1596.3200, -73.949
1596.3400, -74.358
1596.3600, -73.598
1596.3800, -74.582
1596.4000, -73.974
1596.4200, -74.182
1596.4400, -73.235
1596.4600, -73.826
1596.4800, -74.938
1596.5000, -73.718
1596.5200, -73.805
1596.5400, -73.646
1596.5600, -74.088
1596.5800, -74.266
1596.6000, -74.246
1596.6200, -74.070
1596.6400, -73.910
1596.6600, -74.177
1596.6800, -73.488
1596.7000, -73.678
1596.7200, -73.975
1596.7400, -73.815
1596.7600, -73.925
1596.7800, -74.231
1596.8000, -73.280
1596.8200, -73.955
1596.8400, -74.984
1596.8600, -73.107
1596.8800, -74.215
1596.9000, -73.438
1596.9200, -73.658
1596.9400, -73.756
1596.9600, -74.330
1596.9800, -73.646
1597.0000, -73.645
1597.0200, -73.806
1597.0400, -73.926
1597.0600, -74.327
1597.0800, -73.421
1597.1000, -73.625
1597.1200, -74.582
1597.1400, -73.544
1597.1600, -74.452
1597.1800, -73.427
1597.2000, -74.274
1597.2200, -73.519
1597.2400, -74.379
1597.2600, -73.489
1597.2800, -73.644
1597.3000, -74.974
1597.3200, -73.602
1597.3400, -74.810
1597.3600, -73.951
1597.3800, -74.253
1597.4000, -73.723
1597.4200, -74.033
1597.4400, -73.522
1597.4600, -74.425
1597.4800, -74.517
1597.5000, -73.003
1597.5200, -73.855
1597.5400, -73.859
1597.5600, -74.113
1597.5800, -73.481
1597.6000, -73.929
1597.6200, -74.447
1597.6400, -74.044
1597.6600, -73.484
1597.6800, -74.164
1597.7000, -73.636
1597.7200, -74.276
1597.7400, -73.856
1597.7600, -73.786
1597.7800, -73.817
1597.8000, -74.264
1597.8200, -74.302
1597.8400, -73.608
1597.8600, -73.661
1597.8800, -73.592
1597.9000, -74.025
1597.9200, -74.030
1597.9400, -74.490
1597.9600, -73.661
1597.9800, -74.079
1598.0000, -73.981
1598.0200, -73.994
1598.0400, -74.168
1598.0600, -73.974
1598.0800, -73.997
1598.1000, -74.331
1598.1200, -73.502
1598.1400, -74.144
1598.1600, -74.405
1598.1800, -73.681
1598.2000, -74.383
1598.2200, -73.782
1598.2400, -74.365
1598.2600, -74.009
1598.2800, -74.429
1598.3000, -74.031
1598.3200, -73.676
1598.3400, -74.808
1598.3600, -73.813
1598.3800, -73.774
1598.4000, -73.671
1598.4200, -73.779
1598.4400, -73.840
1598.4600, -74.499
1598.4800, -74.155
1598.5000, -74.337
1598.5200, -74.079
1598.5400, -73.847
1598.5600, -74.857
1598.5800, -73.899
1598.6000, -73.949
1598.6200, -73.903
1598.6400, -73.812
1598.6600, -74.142
1598.6800, -73.838
1598.7000, -74.308
1598.7200, -73.569
1598.7400, -73.948
1598.7600, -74.439
1598.7800, -74.138
1598.8000, -74.380
1598.8200, -73.796
1598.8400, -74.895
1598.8600, -73.684
1598.8800, -73.939
1598.9000, -74.370
1598.9200, -73.670
1598.9400, -74.294
1598.9600, -74.276
1598.9800, -74.133
1599.0000, -73.359
1599.0200, -73.866
1599.0400, -74.483
1599.0600, -74.814
1599.0800, -74.269
1599.1000, -73.381
1599.1200, -74.023
1599.1400, -73.717
1599.1600, -74.220
1599.1800, -73.480
1599.2000, -74.178
1599.2200, -74.284
1599.2400, -73.769
1599.2600, -74.022
1599.2800, -74.308
1599.3000, -73.470
1599.3200, -74.305
1599.3400, -74.160
1599.3600, -74.089
1599.3800, -74.050
1599.4000, -73.781
1599.4200, -73.586
1599.4400, -73.711
1599.4600, -74.209
1599.4800, -74.522
1599.5000, -74.026
1599.5200, -74.005
1599.5400, -73.736
1599.5600, -74.236
1599.5800, -74.156
1599.6000, -74.157
1599.6200, -74.556
1599.6400, -73.907
1599.6600, -74.278
1599.6800, -74.421
1599.7000, -73.733
1599.7200, -74.255
1599.7400, -73.956
1599.7600, -74.055
1599.7800, -74.623
1599.8000, -74.067
1599.8200, -74.656
1599.8400, -74.001
1599.8600, -74.190
1599.8800, -73.539
1599.9000, -74.103
1599.9200, -74.618
1599.9400, -73.576
1599.9600, -73.993
1599.9800, -74.406
1600.0000, -73.730
