70BCSV 	
// AQ6370B OPTICAL SPECTRUM ANALYZER //                 
25
"CTRWL",1550.000000
"SPAN", 100.000000
"START WL",1500.000000
"STOP WL",1600.000000
"WLFREQ", 0
"REFL",-62.8
"LSCL", 5.0
"RESLN",0.100
"AVG",   1
"SMPLAUTO",      0
"SMPL",       5001
"SMPLINTVL",0.0200
"HIGH1"
"MEAS"
"LSUNT",0
"NMSKH","OFF"
"RESCOR",0
"RESPARM", 9050
"FREQPARM", 9050






"[TRACE DATA]"
1500.0000, -77.570
1500.0200, -78.024
1500.0400, -77.389
1500.0600, -78.007
1500.0800, -76.233
1500.1000, -78.497
1500.1200, -76.737
1500.1400, -78.420
1500.1600, -76.058
1500.1800, -76.726
1500.2000, -79.759
1500.2200, -75.921
1500.2400, -78.454
1500.2600, -77.612
1500.2800, -76.485
1500.3000, -77.618
1500.3200, -76.741
1500.3400, -78.143
1500.3600, -76.768
1500.3800, -77.385
1500.4000, -78.428
1500.4200, -76.634
1500.4400, -76.823
1500.4600, -77.710
1500.4800, -78.204
1500.5000, -77.624
1500.5200, -77.077
1500.5400, -79.150
1500.5600, -75.777
1500.5800, -77.744
1500.6000, -78.355
1500.6200, -77.476
1500.6400, -77.327
1500.6600, -78.821
1500.6800, -77.229
1500.7000, -77.369
1500.7200, -79.212
1500.7400, -76.779
1500.7600, -77.975
1500.7800, -77.496
1500.8000, -77.113
1500.8200, -77.101
1500.8400, -77.973
1500.8600, -77.592
1500.8800, -77.704
1500.9000, -76.833
1500.9200, -78.371
1500.9400, -76.957
1500.9600, -77.596
1500.9800, -77.566
1501.0000, -77.341
1501.0200, -76.675
1501.0400, -77.903
1501.0600, -78.389
1501.0800, -77.692
1501.1000, -76.761
1501.1200, -77.519
1501.1400, -78.700
1501.1600, -76.000
1501.1800, -79.229
1501.2000, -76.719
1501.2200, -77.629
1501.2400, -77.469
1501.2600, -77.290
1501.2800, -77.072
1501.3000, -77.168
1501.3200, -77.931
1501.3400, -77.599
1501.3600, -76.941
1501.3800, -78.075
1501.4000, -76.816
1501.4200, -76.543
1501.4400, -77.534
1501.4600, -77.526
1501.4800, -77.452
1501.5000, -78.578
1501.5200, -77.197
1501.5400, -77.265
1501.5600, -76.218
1501.5800, -77.021
1501.6000, -77.992
1501.6200, -78.195
1501.6400, -77.316
1501.6600, -76.741
1501.6800, -77.497
1501.7000, -77.208
1501.7200, -77.760
1501.7400, -77.926
1501.7600, -77.967
1501.7800, -77.724
1501.8000, -77.527
1501.8200, -77.587
1501.8400, -76.519
1501.8600, -77.189
1501.8800, -76.828
1501.9000, -77.941
1501.9200, -77.356
1501.9400, -77.346
1501.9600, -77.110
1501.9800, -77.589
1502.0000, -77.486
1502.0200, -76.714
1502.0400, -76.788
1502.0600, -77.301
1502.0800, -78.379
1502.1000, -77.200
1502.1200, -77.590
1502.1400, -77.272
1502.1600, -77.658
1502.1800, -75.994
1502.2000, -77.200
1502.2200, -78.416
1502.2400, -77.600
1502.2600, -77.570
1502.2800, -76.846
1502.3000, -76.763
1502.3200, -78.128
1502.3400, -76.542
1502.3600, -78.317
1502.3800, -76.588
1502.4000, -76.931
1502.4200, -76.739
1502.4400, -77.165
1502.4600, -77.232
1502.4800, -76.943
1502.5000, -77.099
1502.5200, -78.233
1502.5400, -77.104
1502.5600, -77.614
1502.5800, -77.824
1502.6000, -77.382
1502.6200, -77.689
1502.6400, -78.346
1502.6600, -76.749
1502.6800, -76.920
1502.7000, -76.501
1502.7200, -77.549
1502.7400, -76.867
1502.7600, -76.471
1502.7800, -76.850
1502.8000, -76.952
1502.8200, -77.793
1502.8400, -77.769
1502.8600, -76.894
1502.8800, -77.603
1502.9000, -78.117
1502.9200, -77.383
1502.9400, -77.143
1502.9600, -76.600
1502.9800, -76.984
1503.0000, -76.911
1503.0200, -76.620
1503.0400, -77.637
1503.0600, -77.206
1503.0800, -77.263
1503.1000, -79.609
1503.1200, -76.547
1503.1400, -77.423
1503.1600, -76.513
1503.1800, -76.690
1503.2000, -77.869
1503.2200, -77.124
1503.2400, -76.055
1503.2600, -77.240
1503.2800, -77.165
1503.3000, -76.741
1503.3200, -77.243
1503.3400, -77.394
1503.3600, -77.758
1503.3800, -76.277
1503.4000, -78.582
1503.4200, -77.363
1503.4400, -76.396
1503.4600, -76.803
1503.4800, -77.479
1503.5000, -77.530
1503.5200, -76.586
1503.5400, -77.576
1503.5600, -77.704
1503.5800, -76.803
1503.6000, -77.485
1503.6200, -77.790
1503.6400, -76.382
1503.6600, -77.362
1503.6800, -79.200
1503.7000, -78.015
1503.7200, -77.090
1503.7400, -76.611
1503.7600, -77.214
1503.7800, -77.352
1503.8000, -76.397
1503.8200, -77.502
1503.8400, -76.951
1503.8600, -77.894
1503.8800, -77.369
1503.9000, -76.944
1503.9200, -77.893
1503.9400, -76.396
1503.9600, -78.073
1503.9800, -77.221
1504.0000, -76.988
1504.0200, -76.895
1504.0400, -77.932
1504.0600, -77.127
1504.0800, -77.112
1504.1000, -76.267
1504.1200, -78.323
1504.1400, -77.197
1504.1600, -78.004
1504.1800, -76.618
1504.2000, -76.584
1504.2200, -76.534
1504.2400, -76.937
1504.2600, -77.150
1504.2800, -76.183
1504.3000, -76.918
1504.3200, -77.193
1504.3400, -77.121
1504.3600, -77.646
1504.3800, -76.692
1504.4000, -77.037
1504.4200, -77.095
1504.4400, -77.034
1504.4600, -76.137
1504.4800, -77.581
1504.5000, -77.008
1504.5200, -77.613
1504.5400, -76.293
1504.5600, -77.319
1504.5800, -76.769
1504.6000, -76.949
1504.6200, -78.445
1504.6400, -77.147
1504.6600, -78.215
1504.6800, -76.192
1504.7000, -77.359
1504.7200, -77.093
1504.7400, -76.637
1504.7600, -77.215
1504.7800, -77.144
1504.8000, -76.757
1504.8200, -79.009
1504.8400, -78.194
1504.8600, -75.440
1504.8800, -77.134
1504.9000, -76.805
1504.9200, -77.789
1504.9400, -76.524
1504.9600, -77.231
1504.9800, -76.706
1505.0000, -77.994
1505.0200, -77.165
1505.0400, -77.186
1505.0600, -76.732
1505.0800, -76.993
1505.1000, -77.020
1505.1200, -77.094
1505.1400, -76.988
1505.1600, -76.988
1505.1800, -77.448
1505.2000, -76.631
1505.2200, -77.542
1505.2400, -77.120
1505.2600, -77.125
1505.2800, -77.117
1505.3000, -76.711
1505.3200, -76.802
1505.3400, -77.084
1505.3600, -77.346
1505.3800, -77.565
1505.4000, -77.108
1505.4200, -77.410
1505.4400, -77.327
1505.4600, -77.147
1505.4800, -77.523
1505.5000, -77.430
1505.5200, -76.639
1505.5400, -76.774
1505.5600, -77.235
1505.5800, -77.903
1505.6000, -77.163
1505.6200, -76.719
1505.6400, -76.924
1505.6600, -77.250
1505.6800, -77.883
1505.7000, -76.508
1505.7200, -76.702
1505.7400, -77.440
1505.7600, -77.683
1505.7800, -76.798
1505.8000, -76.704
1505.8200, -78.325
1505.8400, -77.470
1505.8600, -77.339
1505.8800, -75.707
1505.9000, -76.739
1505.9200, -77.414
1505.9400, -77.563
1505.9600, -77.443
1505.9800, -76.145
1506.0000, -79.680
1506.0200, -75.843
1506.0400, -77.551
1506.0600, -76.308
1506.0800, -77.865
1506.1000, -76.315
1506.1200, -77.590
1506.1400, -76.061
1506.1600, -78.020
1506.1800, -76.498
1506.2000, -75.712
1506.2200, -77.057
1506.2400, -79.757
1506.2600, -76.597
1506.2800, -75.492
1506.3000, -79.199
1506.3200, -76.865
1506.3400, -76.463
1506.3600, -76.874
1506.3800, -78.317
1506.4000, -76.818
1506.4200, -76.730
1506.4400, -76.326
1506.4600, -77.679
1506.4800, -77.948
1506.5000, -76.054
1506.5200, -77.871
1506.5400, -77.225
1506.5600, -77.606
1506.5800, -76.551
1506.6000, -76.633
1506.6200, -76.959
1506.6400, -76.659
1506.6600, -76.688
1506.6800, -76.996
1506.7000, -77.555
1506.7200, -76.281
1506.7400, -77.243
1506.7600, -76.792
1506.7800, -77.764
1506.8000, -77.826
1506.8200, -77.138
1506.8400, -76.872
1506.8600, -76.630
1506.8800, -77.352
1506.9000, -76.627
1506.9200, -76.984
1506.9400, -77.186
1506.9600, -76.901
1506.9800, -76.218
1507.0000, -77.182
1507.0200, -76.997
1507.0400, -76.727
1507.0600, -77.066
1507.0800, -76.239
1507.1000, -77.306
1507.1200, -76.845
1507.1400, -77.007
1507.1600, -76.931
1507.1800, -76.879
1507.2000, -76.313
1507.2200, -77.632
1507.2400, -77.629
1507.2600, -76.109
1507.2800, -76.176
1507.3000, -77.521
1507.3200, -77.123
1507.3400, -76.591
1507.3600, -78.063
1507.3800, -75.840
1507.4000, -76.447
1507.4200, -77.097
1507.4400, -78.106
1507.4600, -76.836
1507.4800, -77.006
1507.5000, -77.324
1507.5200, -78.230
1507.5400, -77.560
1507.5600, -78.680
1507.5800, -76.452
1507.6000, -76.422
1507.6200, -76.680
1507.6400, -76.432
1507.6600, -76.189
1507.6800, -77.647
1507.7000, -76.539
1507.7200, -78.538
1507.7400, -76.136
1507.7600, -77.303
1507.7800, -76.432
1507.8000, -77.900
1507.8200, -77.491
1507.8400, -77.224
1507.8600, -76.654
1507.8800, -76.610
1507.9000, -77.490
1507.9200, -76.905
1507.9400, -76.983
1507.9600, -77.164
1507.9800, -76.839
1508.0000, -76.651
1508.0200, -76.488
1508.0400, -76.473
1508.0600, -76.260
1508.0800, -77.846
1508.1000, -76.522
1508.1200, -76.939
1508.1400, -76.968
1508.1600, -76.449
1508.1800, -77.090
1508.2000, -77.553
1508.2200, -78.262
1508.2400, -76.776
1508.2600, -77.588
1508.2800, -76.270
1508.3000, -77.050
1508.3200, -77.302
1508.3400, -77.120
1508.3600, -77.233
1508.3800, -76.509
1508.4000, -76.598
1508.4200, -77.234
1508.4400, -76.975
1508.4600, -77.587
1508.4800, -77.044
1508.5000, -77.308
1508.5200, -77.319
1508.5400, -77.010
1508.5600, -76.607
1508.5800, -75.597
1508.6000, -77.690
1508.6200, -79.275
1508.6400, -76.677
1508.6600, -76.899
1508.6800, -77.570
1508.7000, -76.827
1508.7200, -77.050
1508.7400, -76.996
1508.7600, -78.526
1508.7800, -76.557
1508.8000, -76.670
1508.8200, -76.764
1508.8400, -77.056
1508.8600, -77.529
1508.8800, -77.949
1508.9000, -76.688
1508.9200, -76.024
1508.9400, -77.480
1508.9600, -76.178
1508.9800, -76.505
1509.0000, -76.827
1509.0200, -77.329
1509.0400, -76.544
1509.0600, -77.166
1509.0800, -76.393
1509.1000, -76.526
1509.1200, -77.590
1509.1400, -76.529
1509.1600, -77.900
1509.1800, -75.908
1509.2000, -76.823
1509.2200, -76.787
1509.2400, -76.312
1509.2600, -77.590
1509.2800, -76.496
1509.3000, -77.361
1509.3200, -76.930
1509.3400, -76.781
1509.3600, -77.290
1509.3800, -76.216
1509.4000, -77.407
1509.4200, -77.229
1509.4400, -76.963
1509.4600, -76.954
1509.4800, -76.765
1509.5000, -78.173
1509.5200, -76.311
1509.5400, -76.452
1509.5600, -76.734
1509.5800, -77.529
1509.6000, -76.563
1509.6200, -75.680
1509.6400, -77.179
1509.6600, -77.189
1509.6800, -76.953
1509.7000, -76.959
1509.7200, -77.188
1509.7400, -76.486
1509.7600, -76.671
1509.7800, -76.831
1509.8000, -76.969
1509.8200, -77.032
1509.8400, -77.565
1509.8600, -76.681
1509.8800, -77.189
1509.9000, -75.816
1509.9200, -77.344
1509.9400, -76.905
1509.9600, -78.141
1509.9800, -76.371
1510.0000, -77.025
1510.0200, -76.568
1510.0400, -77.434
1510.0600, -77.627
1510.0800, -76.465
1510.1000, -76.904
1510.1200, -76.713
1510.1400, -77.077
1510.1600, -77.039
1510.1800, -77.793
1510.2000, -76.822
1510.2200, -77.332
1510.2400, -76.799
1510.2600, -77.382
1510.2800, -77.191
1510.3000, -76.929
1510.3200, -77.423
1510.3400, -76.481
1510.3600, -76.943
1510.3800, -76.330
1510.4000, -77.317
1510.4200, -76.968
1510.4400, -76.884
1510.4600, -76.995
1510.4800, -77.673
1510.5000, -78.681
1510.5200, -76.144
1510.5400, -77.222
1510.5600, -76.904
1510.5800, -76.972
1510.6000, -76.106
1510.6200, -77.881
1510.6400, -76.956
1510.6600, -76.927
1510.6800, -76.082
1510.7000, -77.573
1510.7200, -77.832
1510.7400, -77.482
1510.7600, -77.576
1510.7800, -76.645
1510.8000, -77.036
1510.8200, -76.416
1510.8400, -76.877
1510.8600, -76.796
1510.8800, -76.810
1510.9000, -76.344
1510.9200, -77.024
1510.9400, -77.158
1510.9600, -76.867
1510.9800, -76.417
1511.0000, -77.366
1511.0200, -76.359
1511.0400, -77.093
1511.0600, -76.278
1511.0800, -76.953
1511.1000, -76.525
1511.1200, -77.970
1511.1400, -76.195
1511.1600, -77.416
1511.1800, -76.468
1511.2000, -77.911
1511.2200, -76.428
1511.2400, -77.535
1511.2600, -76.804
1511.2800, -76.873
1511.3000, -76.368
1511.3200, -77.414
1511.3400, -77.288
1511.3600, -76.533
1511.3800, -76.943
1511.4000, -77.006
1511.4200, -77.084
1511.4400, -76.153
1511.4600, -77.089
1511.4800, -77.937
1511.5000, -76.887
1511.5200, -77.033
1511.5400, -76.327
1511.5600, -77.559
1511.5800, -77.455
1511.6000, -76.894
1511.6200, -77.197
1511.6400, -76.228
1511.6600, -76.841
1511.6800, -76.754
1511.7000, -76.655
1511.7200, -77.063
1511.7400, -76.569
1511.7600, -77.450
1511.7800, -76.617
1511.8000, -77.395
1511.8200, -76.504
1511.8400, -76.525
1511.8600, -76.472
1511.8800, -77.550
1511.9000, -77.637
1511.9200, -76.796
1511.9400, -76.814
1511.9600, -77.506
1511.9800, -76.370
1512.0000, -76.404
1512.0200, -77.279
1512.0400, -77.360
1512.0600, -76.840
1512.0800, -76.431
1512.1000, -77.300
1512.1200, -76.937
1512.1400, -77.444
1512.1600, -76.888
1512.1800, -76.479
1512.2000, -76.576
1512.2200, -77.645
1512.2400, -76.691
1512.2600, -77.061
1512.2800, -76.132
1512.3000, -76.919
1512.3200, -77.367
1512.3400, -76.302
1512.3600, -76.854
1512.3800, -76.844
1512.4000, -76.829
1512.4200, -76.845
1512.4400, -78.343
1512.4600, -76.156
1512.4800, -76.720
1512.5000, -75.633
1512.5200, -76.935
1512.5400, -77.999
1512.5600, -77.088
1512.5800, -76.785
1512.6000, -77.027
1512.6200, -76.456
1512.6400, -76.531
1512.6600, -76.594
1512.6800, -77.237
1512.7000, -76.238
1512.7200, -76.126
1512.7400, -76.750
1512.7600, -76.435
1512.7800, -76.890
1512.8000, -77.216
1512.8200, -76.578
1512.8400, -76.569
1512.8600, -76.670
1512.8800, -77.289
1512.9000, -76.681
1512.9200, -76.712
1512.9400, -76.700
1512.9600, -77.282
1512.9800, -77.110
1513.0000, -77.094
1513.0200, -76.629
1513.0400, -77.611
1513.0600, -76.241
1513.0800, -76.955
1513.1000, -76.041
1513.1200, -77.775
1513.1400, -76.697
1513.1600, -77.497
1513.1800, -77.426
1513.2000, -76.756
1513.2200, -76.873
1513.2400, -77.718
1513.2600, -76.557
1513.2800, -77.042
1513.3000, -76.501
1513.3200, -76.932
1513.3400, -77.316
1513.3600, -76.648
1513.3800, -77.205
1513.4000, -75.839
1513.4200, -78.048
1513.4400, -76.645
1513.4600, -76.535
1513.4800, -76.566
1513.5000, -76.858
1513.5200, -76.935
1513.5400, -77.100
1513.5600, -76.847
1513.5800, -76.763
1513.6000, -76.777
1513.6200, -77.484
1513.6400, -77.307
1513.6600, -76.665
1513.6800, -77.072
1513.7000, -75.949
1513.7200, -76.392
1513.7400, -76.616
1513.7600, -77.345
1513.7800, -77.224
1513.8000, -76.461
1513.8200, -77.010
1513.8400, -76.763
1513.8600, -76.453
1513.8800, -77.798
1513.9000, -76.278
1513.9200, -77.298
1513.9400, -77.210
1513.9600, -76.651
1513.9800, -76.653
1514.0000, -77.137
1514.0200, -77.088
1514.0400, -76.648
1514.0600, -76.334
1514.0800, -78.506
1514.1000, -76.758
1514.1200, -76.571
1514.1400, -77.284
1514.1600, -76.049
1514.1800, -77.215
1514.2000, -77.080
1514.2200, -76.363
1514.2400, -76.624
1514.2600, -78.694
1514.2800, -76.261
1514.3000, -78.421
1514.3200, -76.997
1514.3400, -76.453
1514.3600, -76.657
1514.3800, -76.248
1514.4000, -76.868
1514.4200, -77.739
1514.4400, -75.023
1514.4600, -77.128
1514.4800, -77.153
1514.5000, -75.282
1514.5200, -77.387
1514.5400, -76.328
1514.5600, -76.865
1514.5800, -76.657
1514.6000, -77.819
1514.6200, -76.419
1514.6400, -76.351
1514.6600, -76.403
1514.6800, -77.856
1514.7000, -77.034
1514.7200, -76.694
1514.7400, -78.173
1514.7600, -77.192
1514.7800, -75.786
1514.8000, -76.546
1514.8200, -77.900
1514.8400, -76.962
1514.8600, -75.907
1514.8800, -77.492
1514.9000, -76.459
1514.9200, -76.541
1514.9400, -77.362
1514.9600, -78.021
1514.9800, -77.115
1515.0000, -76.375
1515.0200, -76.146
1515.0400, -77.245
1515.0600, -77.139
1515.0800, -77.508
1515.1000, -78.408
1515.1200, -76.298
1515.1400, -77.415
1515.1600, -76.287
1515.1800, -78.117
1515.2000, -76.472
1515.2200, -76.447
1515.2400, -77.564
1515.2600, -76.324
1515.2800, -76.763
1515.3000, -78.600
1515.3200, -75.224
1515.3400, -76.372
1515.3600, -76.583
1515.3800, -77.787
1515.4000, -77.390
1515.4200, -76.098
1515.4400, -76.240
1515.4600, -77.202
1515.4800, -77.414
1515.5000, -76.129
1515.5200, -77.559
1515.5400, -76.982
1515.5600, -76.772
1515.5800, -76.614
1515.6000, -76.715
1515.6200, -77.002
1515.6400, -76.360
1515.6600, -75.988
1515.6800, -76.671
1515.7000, -77.002
1515.7200, -77.042
1515.7400, -78.772
1515.7600, -76.916
1515.7800, -76.390
1515.8000, -77.025
1515.8200, -76.120
1515.8400, -77.114
1515.8600, -77.746
1515.8800, -76.454
1515.9000, -75.846
1515.9200, -77.893
1515.9400, -77.303
1515.9600, -75.797
1515.9800, -76.566
1516.0000, -76.411
1516.0200, -77.288
1516.0400, -78.166
1516.0600, -76.524
1516.0800, -77.391
1516.1000, -77.345
1516.1200, -76.530
1516.1400, -76.117
1516.1600, -77.403
1516.1800, -76.520
1516.2000, -77.938
1516.2200, -76.496
1516.2400, -76.560
1516.2600, -76.860
1516.2800, -76.303
1516.3000, -77.235
1516.3200, -76.998
1516.3400, -76.468
1516.3600, -77.361
1516.3800, -76.505
1516.4000, -76.224
1516.4200, -76.558
1516.4400, -76.269
1516.4600, -77.448
1516.4800, -76.982
1516.5000, -76.543
1516.5200, -78.162
1516.5400, -75.897
1516.5600, -76.215
1516.5800, -76.966
1516.6000, -75.690
1516.6200, -77.073
1516.6400, -76.138
1516.6600, -76.268
1516.6800, -76.783
1516.7000, -76.982
1516.7200, -76.830
1516.7400, -77.299
1516.7600, -78.369
1516.7800, -77.248
1516.8000, -77.237
1516.8200, -76.959
1516.8400, -77.119
1516.8600, -75.908
1516.8800, -76.224
1516.9000, -77.157
1516.9200, -76.285
1516.9400, -76.551
1516.9600, -77.027
1516.9800, -77.507
1517.0000, -77.868
1517.0200, -77.193
1517.0400, -77.113
1517.0600, -76.953
1517.0800, -76.737
1517.1000, -76.548
1517.1200, -76.655
1517.1400, -76.740
1517.1600, -76.752
1517.1800, -77.055
1517.2000, -76.827
1517.2200, -77.287
1517.2400, -77.085
1517.2600, -76.690
1517.2800, -76.999
1517.3000, -75.901
1517.3200, -77.113
1517.3400, -76.032
1517.3600, -76.626
1517.3800, -76.431
1517.4000, -76.479
1517.4200, -76.798
1517.4400, -76.410
1517.4600, -76.411
1517.4800, -77.260
1517.5000, -76.366
1517.5200, -76.385
1517.5400, -77.112
1517.5600, -77.544
1517.5800, -75.869
1517.6000, -75.857
1517.6200, -77.045
1517.6400, -77.300
1517.6600, -77.440
1517.6800, -76.721
1517.7000, -77.283
1517.7200, -76.921
1517.7400, -78.069
1517.7600, -76.478
1517.7800, -76.156
1517.8000, -77.562
1517.8200, -77.165
1517.8400, -76.280
1517.8600, -76.918
1517.8800, -76.989
1517.9000, -77.417
1517.9200, -76.417
1517.9400, -77.386
1517.9600, -76.828
1517.9800, -77.225
1518.0000, -78.366
1518.0200, -76.467
1518.0400, -76.166
1518.0600, -77.860
1518.0800, -76.245
1518.1000, -77.785
1518.1200, -77.056
1518.1400, -76.014
1518.1600, -76.586
1518.1800, -77.321
1518.2000, -76.202
1518.2200, -76.506
1518.2400, -77.615
1518.2600, -76.849
1518.2800, -76.948
1518.3000, -76.942
1518.3200, -77.306
1518.3400, -75.596
1518.3600, -76.235
1518.3800, -77.491
1518.4000, -77.570
1518.4200, -76.338
1518.4400, -76.322
1518.4600, -77.695
1518.4800, -76.523
1518.5000, -76.781
1518.5200, -77.140
1518.5400, -76.391
1518.5600, -77.603
1518.5800, -76.250
1518.6000, -76.990
1518.6200, -76.789
1518.6400, -77.644
1518.6600, -76.526
1518.6800, -76.337
1518.7000, -76.854
1518.7200, -77.032
1518.7400, -76.922
1518.7600, -77.374
1518.7800, -77.231
1518.8000, -77.677
1518.8200, -76.987
1518.8400, -76.809
1518.8600, -77.118
1518.8800, -77.193
1518.9000, -77.020
1518.9200, -76.428
1518.9400, -77.617
1518.9600, -77.305
1518.9800, -76.823
1519.0000, -76.442
1519.0200, -76.179
1519.0400, -77.090
1519.0600, -76.912
1519.0800, -77.491
1519.1000, -76.911
1519.1200, -76.890
1519.1400, -76.514
1519.1600, -76.607
1519.1800, -76.340
1519.2000, -77.020
1519.2200, -76.863
1519.2400, -76.974
1519.2600, -76.795
1519.2800, -76.788
1519.3000, -76.121
1519.3200, -76.855
1519.3400, -77.137
1519.3600, -77.351
1519.3800, -76.500
1519.4000, -76.252
1519.4200, -76.442
1519.4400, -76.488
1519.4600, -76.500
1519.4800, -77.030
1519.5000, -76.729
1519.5200, -77.085
1519.5400, -76.289
1519.5600, -76.933
1519.5800, -77.465
1519.6000, -76.987
1519.6200, -76.692
1519.6400, -77.873
1519.6600, -76.945
1519.6800, -77.200
1519.7000, -76.684
1519.7200, -77.711
1519.7400, -76.288
1519.7600, -77.103
1519.7800, -76.653
1519.8000, -76.421
1519.8200, -76.281
1519.8400, -79.081
1519.8600, -76.909
1519.8800, -77.374
1519.9000, -76.602
1519.9200, -76.775
1519.9400, -76.516
1519.9600, -76.143
1519.9800, -77.703
1520.0000, -76.201
1520.0200, -77.530
1520.0400, -76.586
1520.0600, -77.652
1520.0800, -76.292
1520.1000, -77.255
1520.1200, -76.236
1520.1400, -76.701
1520.1600, -76.697
1520.1800, -76.764
1520.2000, -77.142
1520.2200, -75.987
1520.2400, -77.255
1520.2600, -77.511
1520.2800, -76.690
1520.3000, -76.781
1520.3200, -76.390
1520.3400, -76.209
1520.3600, -76.948
1520.3800, -76.990
1520.4000, -76.690
1520.4200, -76.895
1520.4400, -76.873
1520.4600, -76.731
1520.4800, -77.668
1520.5000, -76.842
1520.5200, -76.904
1520.5400, -77.098
1520.5600, -77.204
1520.5800, -77.159
1520.6000, -76.688
1520.6200, -76.801
1520.6400, -77.461
1520.6600, -76.434
1520.6800, -77.027
1520.7000, -78.676
1520.7200, -76.072
1520.7400, -77.933
1520.7600, -76.539
1520.7800, -76.986
1520.8000, -77.858
1520.8200, -77.131
1520.8400, -76.443
1520.8600, -76.350
1520.8800, -76.927
1520.9000, -78.581
1520.9200, -76.295
1520.9400, -76.842
1520.9600, -76.599
1520.9800, -76.315
1521.0000, -78.043
1521.0200, -77.029
1521.0400, -76.857
1521.0600, -76.396
1521.0800, -78.213
1521.1000, -76.255
1521.1200, -76.648
1521.1400, -77.048
1521.1600, -77.961
1521.1800, -76.485
1521.2000, -76.262
1521.2200, -76.657
1521.2400, -76.852
1521.2600, -78.195
1521.2800, -76.524
1521.3000, -76.221
1521.3200, -76.613
1521.3400, -76.747
1521.3600, -76.660
1521.3800, -76.828
1521.4000, -76.553
1521.4200, -76.991
1521.4400, -76.778
1521.4600, -77.627
1521.4800, -76.473
1521.5000, -75.956
1521.5200, -77.614
1521.5400, -76.938
1521.5600, -76.980
1521.5800, -76.162
1521.6000, -77.157
1521.6200, -77.685
1521.6400, -76.852
1521.6600, -77.751
1521.6800, -76.831
1521.7000, -78.025
1521.7200, -76.968
1521.7400, -76.825
1521.7600, -76.872
1521.7800, -76.674
1521.8000, -77.225
1521.8200, -76.793
1521.8400, -77.174
1521.8600, -77.898
1521.8800, -77.555
1521.9000, -76.640
1521.9200, -75.733
1521.9400, -77.358
1521.9600, -77.471
1521.9800, -77.415
1522.0000, -76.494
1522.0200, -76.639
1522.0400, -78.179
1522.0600, -76.759
1522.0800, -76.428
1522.1000, -76.580
1522.1200, -76.693
1522.1400, -77.708
1522.1600, -76.735
1522.1800, -77.278
1522.2000, -76.869
1522.2200, -77.184
1522.2400, -75.930
1522.2600, -76.659
1522.2800, -76.880
1522.3000, -77.407
1522.3200, -78.043
1522.3400, -75.971
1522.3600, -76.581
1522.3800, -78.634
1522.4000, -76.486
1522.4200, -78.041
1522.4400, -76.211
1522.4600, -76.947
1522.4800, -77.096
1522.5000, -76.141
1522.5200, -77.898
1522.5400, -78.568
1522.5600, -76.898
1522.5800, -76.132
1522.6000, -78.241
1522.6200, -76.776
1522.6400, -77.182
1522.6600, -77.727
1522.6800, -76.796
1522.7000, -76.756
1522.7200, -79.411
1522.7400, -77.455
1522.7600, -77.106
1522.7800, -77.210
1522.8000, -76.792
1522.8200, -77.759
1522.8400, -77.696
1522.8600, -76.161
1522.8800, -77.597
1522.9000, -76.425
1522.9200, -78.208
1522.9400, -76.385
1522.9600, -78.200
1522.9800, -76.966
1523.0000, -76.357
1523.0200, -76.950
1523.0400, -77.391
1523.0600, -77.594
1523.0800, -76.528
1523.1000, -77.329
1523.1200, -78.605
1523.1400, -77.570
1523.1600, -76.550
1523.1800, -78.213
1523.2000, -77.123
1523.2200, -76.258
1523.2400, -78.302
1523.2600, -76.253
1523.2800, -77.290
1523.3000, -78.268
1523.3200, -77.613
1523.3400, -77.932
1523.3600, -76.554
1523.3800, -78.739
1523.4000, -76.966
1523.4200, -78.046
1523.4400, -77.149
1523.4600, -77.670
1523.4800, -78.229
1523.5000, -76.501
1523.5200, -77.978
1523.5400, -77.285
1523.5600, -77.132
1523.5800, -78.193
1523.6000, -77.124
1523.6200, -77.996
1523.6400, -77.259
1523.6600, -77.321
1523.6800, -77.256
1523.7000, -77.538
1523.7200, -79.227
1523.7400, -77.098
1523.7600, -77.791
1523.7800, -77.679
1523.8000, -76.570
1523.8200, -76.851
1523.8400, -78.065
1523.8600, -77.522
1523.8800, -75.995
1523.9000, -78.106
1523.9200, -78.230
1523.9400, -78.022
1523.9600, -76.858
1523.9800, -77.156
1524.0000, -77.419
1524.0200, -78.716
1524.0400, -78.512
1524.0600, -78.744
1524.0800, -77.022
1524.1000, -77.541
1524.1200, -77.701
1524.1400, -78.936
1524.1600, -76.777
1524.1800, -77.748
1524.2000, -77.436
1524.2200, -77.352
1524.2400, -78.446
1524.2600, -77.082
1524.2800, -79.375
1524.3000, -78.033
1524.3200, -77.093
1524.3400, -77.655
1524.3600, -77.455
1524.3800, -77.359
1524.4000, -79.591
1524.4200, -78.900
1524.4400, -76.706
1524.4600, -78.352
1524.4800, -77.176
1524.5000, -79.411
1524.5200, -77.711
1524.5400, -77.945
1524.5600, -77.822
1524.5800, -77.515
1524.6000, -77.225
1524.6200, -77.212
1524.6400, -77.752
1524.6600, -78.450
1524.6800, -77.099
1524.7000, -78.322
1524.7200, -77.034
1524.7400, -77.922
1524.7600, -78.954
1524.7800, -77.597
1524.8000, -77.016
1524.8200, -77.243
1524.8400, -78.651
1524.8600, -77.927
1524.8800, -78.799
1524.9000, -78.877
1524.9200, -78.110
1524.9400, -77.386
1524.9600, -77.732
1524.9800, -77.421
1525.0000, -78.687
1525.0200, -78.193
1525.0400, -77.710
1525.0600, -77.245
1525.0800, -77.557
1525.1000, -77.564
1525.1200, -78.224
1525.1400, -77.524
1525.1600, -78.268
1525.1800, -78.857
1525.2000, -77.472
1525.2200, -78.288
1525.2400, -79.558
1525.2600, -77.321
1525.2800, -77.566
1525.3000, -79.070
1525.3200, -78.186
1525.3400, -80.299
1525.3600, -78.896
1525.3800, -77.528
1525.4000, -78.785
1525.4200, -78.065
1525.4400, -77.910
1525.4600, -79.891
1525.4800, -78.527
1525.5000, -77.894
1525.5200, -78.827
1525.5400, -78.259
1525.5600, -77.290
1525.5800, -79.009
1525.6000, -78.134
1525.6200, -78.414
1525.6400, -77.578
1525.6600, -78.805
1525.6800, -78.182
1525.7000, -80.090
1525.7200, -77.532
1525.7400, -77.693
1525.7600, -77.440
1525.7800, -78.408
1525.8000, -77.362
1525.8200, -77.763
1525.8400, -80.139
1525.8600, -77.855
1525.8800, -78.889
1525.9000, -77.254
1525.9200, -78.752
1525.9400, -79.936
1525.9600, -77.194
1525.9800, -78.085
1526.0000, -78.123
1526.0200, -78.451
1526.0400, -78.992
1526.0600, -78.749
1526.0800, -77.775
1526.1000, -77.489
1526.1200, -77.176
1526.1400, -79.206
1526.1600, -78.399
1526.1800, -78.023
1526.2000, -78.674
1526.2200, -77.793
1526.2400, -79.265
1526.2600, -78.107
1526.2800, -80.709
1526.3000, -77.744
1526.3200, -77.926
1526.3400, -79.252
1526.3600, -79.515
1526.3800, -77.963
1526.4000, -79.043
1526.4200, -78.205
1526.4400, -78.874
1526.4600, -78.490
1526.4800, -78.101
1526.5000, -79.526
1526.5200, -78.058
1526.5400, -79.387
1526.5600, -80.205
1526.5800, -78.541
1526.6000, -77.554
1526.6200, -79.381
1526.6400, -77.047
1526.6600, -79.308
1526.6800, -78.897
1526.7000, -77.990
1526.7200, -77.723
1526.7400, -78.483
1526.7600, -76.900
1526.7800, -80.329
1526.8000, -79.611
1526.8200, -77.252
1526.8400, -79.055
1526.8600, -77.230
1526.8800, -80.222
1526.9000, -78.360
1526.9200, -78.070
1526.9400, -78.989
1526.9600, -77.883
1526.9800, -79.361
1527.0000, -78.084
1527.0200, -78.907
1527.0400, -77.284
1527.0600, -80.383
1527.0800, -80.212
1527.1000, -78.295
1527.1200, -78.598
1527.1400, -78.025
1527.1600, -78.595
1527.1800, -78.894
1527.2000, -79.927
1527.2200, -80.494
1527.2400, -78.839
1527.2600, -78.137
1527.2800, -77.312
1527.3000, -79.695
1527.3200, -79.025
1527.3400, -79.499
1527.3600, -77.638
1527.3800, -80.183
1527.4000, -78.679
1527.4200, -79.324
1527.4400, -78.067
1527.4600, -79.564
1527.4800, -78.820
1527.5000, -79.371
1527.5200, -77.482
1527.5400, -80.702
1527.5600, -77.817
1527.5800, -78.245
1527.6000, -79.732
1527.6200, -79.673
1527.6400, -79.441
1527.6600, -78.152
1527.6800, -77.631
1527.7000, -78.430
1527.7200, -78.477
1527.7400, -78.363
1527.7600, -79.068
1527.7800, -79.755
1527.8000, -78.069
1527.8200, -78.678
1527.8400, -78.455
1527.8600, -79.447
1527.8800, -78.534
1527.9000, -78.436
1527.9200, -78.826
1527.9400, -79.109
1527.9600, -80.187
1527.9800, -78.372
1528.0000, -77.304
1528.0200, -77.948
1528.0400, -78.956
1528.0600, -79.788
1528.0800, -79.421
1528.1000, -77.438
1528.1200, -79.917
1528.1400, -78.281
1528.1600, -80.552
1528.1800, -78.373
1528.2000, -79.151
1528.2200, -79.719
1528.2400, -78.351
1528.2600, -78.126
1528.2800, -78.558
1528.3000, -78.421
1528.3200, -78.598
1528.3400, -79.892
1528.3600, -78.899
1528.3800, -79.338
1528.4000, -80.134
1528.4200, -78.574
1528.4400, -78.157
1528.4600, -79.065
1528.4800, -79.653
1528.5000, -78.938
1528.5200, -77.291
1528.5400, -79.723
1528.5600, -78.342
1528.5800, -77.451
1528.6000, -80.281
1528.6200, -77.362
1528.6400, -79.300
1528.6600, -78.941
1528.6800, -79.749
1528.7000, -77.824
1528.7200, -78.533
1528.7400, -79.466
1528.7600, -77.413
1528.7800, -79.766
1528.8000, -79.127
1528.8200, -79.492
1528.8400, -79.155
1528.8600, -78.481
1528.8800, -79.276
1528.9000, -78.475
1528.9200, -83.217
1528.9400, -79.980
1528.9600, -77.708
1528.9800, -81.615
1529.0000, -77.878
1529.0200, -80.101
1529.0400, -77.796
1529.0600, -80.450
1529.0800, -79.295
1529.1000, -78.522
1529.1200, -78.111
1529.1400, -79.269
1529.1600, -79.303
1529.1800, -78.602
1529.2000, -79.363
1529.2200, -79.688
1529.2400, -79.897
1529.2600, -78.135
1529.2800, -78.219
1529.3000, -79.102
1529.3200, -78.732
1529.3400, -78.353
1529.3600, -79.922
1529.3800, -80.016
1529.4000, -77.731
1529.4200, -78.946
1529.4400, -79.389
1529.4600, -79.582
1529.4800, -77.716
1529.5000, -78.084
1529.5200, -78.467
1529.5400, -78.829
1529.5600, -79.081
1529.5800, -77.768
1529.6000, -78.120
1529.6200, -79.743
1529.6400, -78.703
1529.6600, -78.674
1529.6800, -78.330
1529.7000, -78.166
1529.7200, -79.597
1529.7400, -78.676
1529.7600, -78.602
1529.7800, -78.177
1529.8000, -80.547
1529.8200, -78.730
1529.8400, -80.878
1529.8600, -77.886
1529.8800, -79.003
1529.9000, -80.070
1529.9200, -78.504
1529.9400, -79.056
1529.9600, -79.598
1529.9800, -79.489
1530.0000, -78.980
1530.0200, -77.819
1530.0400, -80.652
1530.0600, -78.541
1530.0800, -81.482
1530.1000, -79.061
1530.1200, -79.490
1530.1400, -79.902
1530.1600, -78.115
1530.1800, -79.356
1530.2000, -79.960
1530.2200, -79.509
1530.2400, -77.450
1530.2600, -80.326
1530.2800, -79.154
1530.3000, -78.616
1530.3200, -79.298
1530.3400, -78.675
1530.3600, -78.798
1530.3800, -78.109
1530.4000, -79.438
1530.4200, -78.193
1530.4400, -78.569
1530.4600, -79.388
1530.4800, -77.896
1530.5000, -78.905
1530.5200, -79.152
1530.5400, -77.933
1530.5600, -77.776
1530.5800, -79.301
1530.6000, -78.176
1530.6200, -80.230
1530.6400, -78.311
1530.6600, -78.626
1530.6800, -78.656
1530.7000, -78.064
1530.7200, -80.159
1530.7400, -77.909
1530.7600, -79.675
1530.7800, -79.011
1530.8000, -78.473
1530.8200, -78.761
1530.8400, -80.265
1530.8600, -78.213
1530.8800, -79.425
1530.9000, -78.657
1530.9200, -80.688
1530.9400, -79.503
1530.9600, -79.069
1530.9800, -76.790
1531.0000, -79.592
1531.0200, -78.404
1531.0400, -80.412
1531.0600, -79.172
1531.0800, -78.984
1531.1000, -78.682
1531.1200, -78.604
1531.1400, -78.832
1531.1600, -78.308
1531.1800, -78.570
1531.2000, -78.141
1531.2200, -79.007
1531.2400, -80.148
1531.2600, -78.042
1531.2800, -78.406
1531.3000, -78.183
1531.3200, -78.412
1531.3400, -78.906
1531.3600, -79.391
1531.3800, -79.157
1531.4000, -77.483
1531.4200, -78.374
1531.4400, -77.879
1531.4600, -78.724
1531.4800, -78.724
1531.5000, -78.164
1531.5200, -77.731
1531.5400, -77.510
1531.5600, -78.805
1531.5800, -78.451
1531.6000, -77.323
1531.6200, -78.170
1531.6400, -78.871
1531.6600, -78.149
1531.6800, -78.253
1531.7000, -78.464
1531.7200, -78.761
1531.7400, -78.433
1531.7600, -78.280
1531.7800, -78.501
1531.8000, -77.776
1531.8200, -82.447
1531.8400, -78.125
1531.8600, -79.234
1531.8800, -77.343
1531.9000, -80.151
1531.9200, -77.985
1531.9400, -78.037
1531.9600, -77.699
1531.9800, -78.674
1532.0000, -78.053
1532.0200, -78.772
1532.0400, -78.338
1532.0600, -78.153
1532.0800, -78.606
1532.1000, -79.736
1532.1200, -79.280
1532.1400, -78.342
1532.1600, -78.454
1532.1800, -77.171
1532.2000, -79.277
1532.2200, -77.904
1532.2400, -77.534
1532.2600, -78.586
1532.2800, -78.054
1532.3000, -78.521
1532.3200, -78.054
1532.3400, -77.294
1532.3600, -79.064
1532.3800, -76.841
1532.4000, -79.884
1532.4200, -77.936
1532.4400, -77.264
1532.4600, -77.810
1532.4800, -77.332
1532.5000, -78.089
1532.5200, -78.214
1532.5400, -78.411
1532.5600, -78.764
1532.5800, -77.387
1532.6000, -78.214
1532.6200, -78.460
1532.6400, -77.909
1532.6600, -79.909
1532.6800, -76.545
1532.7000, -79.134
1532.7200, -78.603
1532.7400, -78.446
1532.7600, -76.721
1532.7800, -79.868
1532.8000, -77.396
1532.8200, -77.741
1532.8400, -78.607
1532.8600, -77.159
1532.8800, -77.255
1532.9000, -77.943
1532.9200, -77.851
1532.9400, -78.307
1532.9600, -79.001
1532.9800, -77.663
1533.0000, -77.121
1533.0200, -76.981
1533.0400, -77.341
1533.0600, -77.423
1533.0800, -77.474
1533.1000, -77.572
1533.1200, -77.834
1533.1400, -77.094
1533.1600, -79.853
1533.1800, -77.240
1533.2000, -77.320
1533.2200, -76.932
1533.2400, -77.426
1533.2600, -77.815
1533.2800, -79.293
1533.3000, -78.064
1533.3200, -77.099
1533.3400, -78.091
1533.3600, -77.381
1533.3800, -77.431
1533.4000, -77.095
1533.4200, -78.620
1533.4400, -77.051
1533.4600, -78.702
1533.4800, -77.299
1533.5000, -76.861
1533.5200, -77.290
1533.5400, -77.730
1533.5600, -77.591
1533.5800, -77.442
1533.6000, -77.583
1533.6200, -77.375
1533.6400, -77.510
1533.6600, -77.302
1533.6800, -77.936
1533.7000, -78.310
1533.7200, -76.968
1533.7400, -77.721
1533.7600, -77.145
1533.7800, -77.407
1533.8000, -78.021
1533.8200, -77.047
1533.8400, -76.814
1533.8600, -79.095
1533.8800, -76.489
1533.9000, -77.162
1533.9200, -76.569
1533.9400, -77.041
1533.9600, -76.937
1533.9800, -76.442
1534.0000, -76.980
1534.0200, -76.942
1534.0400, -77.539
1534.0600, -76.723
1534.0800, -77.397
1534.1000, -76.482
1534.1200, -77.340
1534.1400, -76.189
1534.1600, -76.268
1534.1800, -76.710
1534.2000, -76.540
1534.2200, -76.330
1534.2400, -76.538
1534.2600, -77.583
1534.2800, -76.236
1534.3000, -76.571
1534.3200, -77.481
1534.3400, -76.924
1534.3600, -75.510
1534.3800, -76.353
1534.4000, -77.297
1534.4200, -76.615
1534.4400, -76.305
1534.4600, -76.039
1534.4800, -76.857
1534.5000, -77.134
1534.5200, -75.853
1534.5400, -76.605
1534.5600, -77.422
1534.5800, -77.153
1534.6000, -76.105
1534.6200, -77.522
1534.6400, -76.098
1534.6600, -76.497
1534.6800, -77.146
1534.7000, -76.361
1534.7200, -76.291
1534.7400, -77.009
1534.7600, -76.537
1534.7800, -76.161
1534.8000, -75.505
1534.8200, -76.745
1534.8400, -76.374
1534.8600, -75.961
1534.8800, -75.856
1534.9000, -75.919
1534.9200, -76.417
1534.9400, -75.768
1534.9600, -76.570
1534.9800, -75.605
1535.0000, -75.639
1535.0200, -75.734
1535.0400, -76.305
1535.0600, -75.798
1535.0800, -75.679
1535.1000, -75.755
1535.1200, -75.184
1535.1400, -75.677
1535.1600, -75.961
1535.1800, -75.799
1535.2000, -75.780
1535.2200, -76.115
1535.2400, -76.130
1535.2600, -75.535
1535.2800, -74.984
1535.3000, -76.194
1535.3200, -76.121
1535.3400, -76.447
1535.3600, -75.464
1535.3800, -75.000
1535.4000, -75.528
1535.4200, -76.530
1535.4400, -75.337
1535.4600, -76.371
1535.4800, -75.275
1535.5000, -75.450
1535.5200, -76.424
1535.5400, -75.234
1535.5600, -75.354
1535.5800, -75.626
1535.6000, -75.284
1535.6200, -75.525
1535.6400, -75.423
1535.6600, -75.318
1535.6800, -74.970
1535.7000, -75.607
1535.7200, -74.968
1535.7400, -74.755
1535.7600, -74.715
1535.7800, -74.760
1535.8000, -75.507
1535.8200, -74.704
1535.8400, -75.209
1535.8600, -74.919
1535.8800, -74.991
1535.9000, -74.797
1535.9200, -74.582
1535.9400, -74.273
1535.9600, -75.136
1535.9800, -74.673
1536.0000, -75.069
1536.0200, -74.970
1536.0400, -74.403
1536.0600, -74.391
1536.0800, -74.516
1536.1000, -75.055
1536.1200, -74.775
1536.1400, -74.614
1536.1600, -74.046
1536.1800, -74.999
1536.2000, -74.236
1536.2200, -74.692
1536.2400, -74.499
1536.2600, -74.486
1536.2800, -75.274
1536.3000, -75.099
1536.3200, -74.222
1536.3400, -74.813
1536.3600, -74.976
1536.3800, -74.429
1536.4000, -74.784
1536.4200, -74.581
1536.4400, -74.434
1536.4600, -74.432
1536.4800, -74.982
1536.5000, -74.396
1536.5200, -74.867
1536.5400, -74.689
1536.5600, -74.483
1536.5800, -74.267
1536.6000, -74.491
1536.6200, -74.443
1536.6400, -74.467
1536.6600, -74.168
1536.6800, -73.600
1536.7000, -74.672
1536.7200, -74.053
1536.7400, -73.613
1536.7600, -74.754
1536.7800, -73.923
1536.8000, -73.892
1536.8200, -73.670
1536.8400, -74.047
1536.8600, -73.851
1536.8800, -73.421
1536.9000, -73.826
1536.9200, -73.382
1536.9400, -74.016
1536.9600, -74.206
1536.9800, -73.489
1537.0000, -73.932
1537.0200, -73.284
1537.0400, -73.854
1537.0600, -73.820
1537.0800, -73.727
1537.1000, -73.701
1537.1200, -73.605
1537.1400, -74.002
1537.1600, -73.658
1537.1800, -73.643
1537.2000, -73.589
1537.2200, -73.735
1537.2400, -73.636
1537.2600, -74.139
1537.2800, -73.289
1537.3000, -73.865
1537.3200, -73.888
1537.3400, -73.810
1537.3600, -73.276
1537.3800, -73.965
1537.4000, -73.601
1537.4200, -73.817
1537.4400, -73.798
1537.4600, -73.463
1537.4800, -73.799
1537.5000, -73.530
1537.5200, -73.818
1537.5400, -73.645
1537.5600, -73.375
1537.5800, -73.265
1537.6000, -73.116
1537.6200, -73.538
1537.6400, -73.562
1537.6600, -73.358
1537.6800, -73.294
1537.7000, -73.260
1537.7200, -73.314
1537.7400, -72.932
1537.7600, -73.016
1537.7800, -73.046
1537.8000, -73.218
1537.8200, -72.490
1537.8400, -72.524
1537.8600, -73.122
1537.8800, -73.442
1537.9000, -72.879
1537.9200, -72.971
1537.9400, -73.539
1537.9600, -72.409
1537.9800, -72.906
1538.0000, -73.233
1538.0200, -73.062
1538.0400, -72.608
1538.0600, -73.128
1538.0800, -73.188
1538.1000, -73.167
1538.1200, -72.941
1538.1400, -73.599
1538.1600, -72.431
1538.1800, -72.965
1538.2000, -73.635
1538.2200, -72.598
1538.2400, -73.241
1538.2600, -73.088
1538.2800, -73.060
1538.3000, -72.854
1538.3200, -72.848
1538.3400, -72.517
1538.3600, -72.664
1538.3800, -72.736
1538.4000, -73.236
1538.4200, -73.105
1538.4400, -72.598
1538.4600, -72.629
1538.4800, -73.011
1538.5000, -72.106
1538.5200, -72.541
1538.5400, -73.310
1538.5600, -72.299
1538.5800, -72.799
1538.6000, -72.614
1538.6200, -72.435
1538.6400, -71.721
1538.6600, -72.621
1538.6800, -72.404
1538.7000, -72.169
1538.7200, -72.538
1538.7400, -72.702
1538.7600, -71.793
1538.7800, -72.264
1538.8000, -72.156
1538.8200, -72.363
1538.8400, -72.757
1538.8600, -71.863
1538.8800, -71.939
1538.9000, -72.471
1538.9200, -72.110
1538.9400, -72.136
1538.9600, -72.546
1538.9800, -72.802
1539.0000, -72.436
1539.0200, -72.013
1539.0400, -72.456
1539.0600, -72.552
1539.0800, -72.084
1539.1000, -71.971
1539.1200, -72.384
1539.1400, -72.613
1539.1600, -72.289
1539.1800, -72.574
1539.2000, -72.344
1539.2200, -72.209
1539.2400, -72.269
1539.2600, -72.354
1539.2800, -72.157
1539.3000, -72.474
1539.3200, -72.405
1539.3400, -72.676
1539.3600, -72.264
1539.3800, -72.177
1539.4000, -71.879
1539.4200, -72.285
1539.4400, -71.875
1539.4600, -71.726
1539.4800, -72.225
1539.5000, -71.847
1539.5200, -72.030
1539.5400, -71.833
1539.5600, -71.812
1539.5800, -71.901
1539.6000, -71.741
1539.6200, -71.991
1539.6400, -71.514
1539.6600, -71.911
1539.6800, -71.903
1539.7000, -71.985
1539.7200, -71.459
1539.7400, -71.721
1539.7600, -71.669
1539.7800, -71.722
1539.8000, -71.920
1539.8200, -71.951
1539.8400, -71.545
1539.8600, -71.858
1539.8800, -71.781
1539.9000, -71.683
1539.9200, -72.470
1539.9400, -71.504
1539.9600, -72.187
1539.9800, -71.824
1540.0000, -71.840
1540.0200, -71.959
1540.0400, -71.603
1540.0600, -71.946
1540.0800, -71.730
1540.1000, -71.697
1540.1200, -71.726
1540.1400, -71.933
1540.1600, -71.812
1540.1800, -71.850
1540.2000, -71.888
1540.2200, -71.736
1540.2400, -71.589
1540.2600, -72.247
1540.2800, -71.672
1540.3000, -71.420
1540.3200, -71.752
1540.3400, -71.323
1540.3600, -71.598
1540.3800, -71.729
1540.4000, -71.363
1540.4200, -71.434
1540.4400, -71.474
1540.4600, -71.450
1540.4800, -71.556
1540.5000, -71.718
1540.5200, -71.290
1540.5400, -71.003
1540.5600, -71.394
1540.5800, -71.204
1540.6000, -71.648
1540.6200, -71.183
1540.6400, -71.410
1540.6600, -71.489
1540.6800, -71.526
1540.7000, -71.168
1540.7200, -71.585
1540.7400, -71.410
1540.7600, -71.116
1540.7800, -71.270
1540.8000, -71.215
1540.8200, -71.742
1540.8400, -71.256
1540.8600, -71.439
1540.8800, -71.594
1540.9000, -71.378
1540.9200, -71.517
1540.9400, -71.616
1540.9600, -71.576
1540.9800, -71.648
1541.0000, -71.548
1541.0200, -71.362
1541.0400, -71.557
1541.0600, -71.380
1541.0800, -71.391
1541.1000, -71.777
1541.1200, -71.229
1541.1400, -71.499
1541.1600, -71.726
1541.1800, -71.207
1541.2000, -71.139
1541.2200, -71.482
1541.2400, -71.087
1541.2600, -71.560
1541.2800, -71.271
1541.3000, -71.007
1541.3200, -71.225
1541.3400, -70.996
1541.3600, -71.133
1541.3800, -71.285
1541.4000, -71.025
1541.4200, -70.977
1541.4400, -71.235
1541.4600, -71.380
1541.4800, -70.801
1541.5000, -70.848
1541.5200, -70.941
1541.5400, -71.117
1541.5600, -71.177
1541.5800, -71.017
1541.6000, -71.077
1541.6200, -70.904
1541.6400, -71.015
1541.6600, -70.859
1541.6800, -71.108
1541.7000, -71.227
1541.7200, -70.878
1541.7400, -71.083
1541.7600, -71.093
1541.7800, -71.232
1541.8000, -71.008
1541.8200, -71.331
1541.8400, -71.061
1541.8600, -71.250
1541.8800, -71.024
1541.9000, -71.179
1541.9200, -71.321
1541.9400, -71.031
1541.9600, -70.904
1541.9800, -71.489
1542.0000, -70.763
1542.0200, -70.897
1542.0400, -71.224
1542.0600, -71.098
1542.0800, -70.980
1542.1000, -70.867
1542.1200, -70.960
1542.1400, -70.925
1542.1600, -71.066
1542.1800, -70.876
1542.2000, -70.956
1542.2200, -70.732
1542.2400, -70.838
1542.2600, -70.963
1542.2800, -70.629
1542.3000, -70.847
1542.3200, -71.034
1542.3400, -70.845
1542.3600, -70.950
1542.3800, -70.701
1542.4000, -70.637
1542.4200, -70.558
1542.4400, -70.711
1542.4600, -70.588
1542.4800, -70.766
1542.5000, -70.733
1542.5200, -70.691
1542.5400, -70.529
1542.5600, -70.665
1542.5800, -70.932
1542.6000, -70.731
1542.6200, -71.176
1542.6400, -70.700
1542.6600, -70.711
1542.6800, -71.108
1542.7000, -70.770
1542.7200, -70.774
1542.7400, -70.710
1542.7600, -71.036
1542.7800, -70.859
1542.8000, -70.924
1542.8200, -71.041
1542.8400, -70.799
1542.8600, -70.859
1542.8800, -70.899
1542.9000, -71.074
1542.9200, -70.748
1542.9400, -70.933
1542.9600, -70.605
1542.9800, -70.786
1543.0000, -70.831
1543.0200, -70.542
1543.0400, -70.791
1543.0600, -70.639
1543.0800, -70.769
1543.1000, -70.498
1543.1200, -70.845
1543.1400, -70.707
1543.1600, -70.184
1543.1800, -70.496
1543.2000, -70.610
1543.2200, -70.592
1543.2400, -70.514
1543.2600, -70.441
1543.2800, -70.243
1543.3000, -70.342
1543.3200, -70.474
1543.3400, -70.479
1543.3600, -70.310
1543.3800, -70.285
1543.4000, -70.451
1543.4200, -70.299
1543.4400, -70.546
1543.4600, -70.567
1543.4800, -70.410
1543.5000, -70.459
1543.5200, -70.417
1543.5400, -70.601
1543.5600, -70.697
1543.5800, -70.454
1543.6000, -70.507
1543.6200, -70.591
1543.6400, -70.694
1543.6600, -70.612
1543.6800, -70.885
1543.7000, -70.780
1543.7200, -70.226
1543.7400, -70.563
1543.7600, -70.661
1543.7800, -70.412
1543.8000, -70.435
1543.8200, -70.583
1543.8400, -70.449
1543.8600, -70.444
1543.8800, -70.423
1543.9000, -70.494
1543.9200, -70.250
1543.9400, -70.641
1543.9600, -70.522
1543.9800, -70.263
1544.0000, -70.379
1544.0200, -70.445
1544.0400, -70.138
1544.0600, -70.077
1544.0800, -70.292
1544.1000, -70.389
1544.1200, -70.148
1544.1400, -70.401
1544.1600, -70.085
1544.1800, -70.055
1544.2000, -70.253
1544.2200, -69.839
1544.2400, -70.090
1544.2600, -70.080
1544.2800, -70.178
1544.3000, -70.071
1544.3200, -70.085
1544.3400, -70.238
1544.3600, -70.120
1544.3800, -70.272
1544.4000, -70.067
1544.4200, -70.042
1544.4400, -70.078
1544.4600, -70.415
1544.4800, -70.171
1544.5000, -70.363
1544.5200, -70.034
1544.5400, -70.382
1544.5600, -70.071
1544.5800, -70.330
1544.6000, -70.434
1544.6200, -70.139
1544.6400, -70.331
1544.6600, -70.287
1544.6800, -70.526
1544.7000, -70.300
1544.7200, -70.205
1544.7400, -70.223
1544.7600, -69.900
1544.7800, -70.070
1544.8000, -70.221
1544.8200, -69.926
1544.8400, -70.208
1544.8600, -70.065
1544.8800, -70.309
1544.9000, -70.097
1544.9200, -69.683
1544.9400, -69.940
1544.9600, -70.100
1544.9800, -69.810
1545.0000, -70.114
1545.0200, -69.911
1545.0400, -69.646
1545.0600, -69.956
1545.0800, -69.909
1545.1000, -69.818
1545.1200, -69.840
1545.1400, -69.876
1545.1600, -69.891
1545.1800, -69.825
1545.2000, -70.135
1545.2200, -69.649
1545.2400, -69.943
1545.2600, -69.918
1545.2800, -69.906
1545.3000, -69.755
1545.3200, -69.991
1545.3400, -69.878
1545.3600, -70.041
1545.3800, -70.101
1545.4000, -69.682
1545.4200, -69.955
1545.4400, -69.969
1545.4600, -70.005
1545.4800, -69.931
1545.5000, -69.981
1545.5200, -69.941
1545.5400, -69.869
1545.5600, -70.079
1545.5800, -69.771
1545.6000, -69.914
1545.6200, -70.021
1545.6400, -69.968
1545.6600, -69.548
1545.6800, -69.883
1545.7000, -69.850
1545.7200, -69.965
1545.7400, -69.798
1545.7600, -69.683
1545.7800, -69.835
1545.8000, -69.701
1545.8200, -69.943
1545.8400, -69.559
1545.8600, -69.678
1545.8800, -69.474
1545.9000, -69.671
1545.9200, -69.735
1545.9400, -69.565
1545.9600, -69.567
1545.9800, -69.536
1546.0000, -69.567
1546.0200, -69.613
1546.0400, -69.413
1546.0600, -69.523
1546.0800, -69.516
1546.1000, -69.656
1546.1200, -69.606
1546.1400, -69.639
1546.1600, -69.492
1546.1800, -69.484
1546.2000, -69.635
1546.2200, -69.594
1546.2400, -69.756
1546.2600, -69.697
1546.2800, -69.585
1546.3000, -69.632
1546.3200, -69.758
1546.3400, -69.616
1546.3600, -69.687
1546.3800, -69.737
1546.4000, -69.579
1546.4200, -69.594
1546.4400, -69.501
1546.4600, -69.707
1546.4800, -69.643
1546.5000, -69.840
1546.5200, -69.619
1546.5400, -69.429
1546.5600, -69.610
1546.5800, -69.429
1546.6000, -69.767
1546.6200, -69.386
1546.6400, -69.627
1546.6600, -69.540
1546.6800, -69.437
1546.7000, -69.458
1546.7200, -69.475
1546.7400, -69.626
1546.7600, -69.328
1546.7800, -69.328
1546.8000, -69.295
1546.8200, -69.304
1546.8400, -69.263
1546.8600, -69.213
1546.8800, -69.445
1546.9000, -69.117
1546.9200, -69.245
1546.9400, -69.214
1546.9600, -69.268
1546.9800, -69.224
1547.0000, -69.146
1547.0200, -69.259
1547.0400, -69.300
1547.0600, -69.322
1547.0800, -69.403
1547.1000, -69.091
1547.1200, -69.359
1547.1400, -69.338
1547.1600, -69.528
1547.1800, -69.147
1547.2000, -69.346
1547.2200, -69.410
1547.2400, -69.464
1547.2600, -69.534
1547.2800, -69.561
1547.3000, -69.288
1547.3200, -69.392
1547.3400, -69.201
1547.3600, -69.445
1547.3800, -69.410
1547.4000, -69.306
1547.4200, -69.410
1547.4400, -69.312
1547.4600, -69.382
1547.4800, -69.282
1547.5000, -69.295
1547.5200, -69.014
1547.5400, -69.132
1547.5600, -69.161
1547.5800, -69.211
1547.6000, -69.202
1547.6200, -69.087
1547.6400, -69.181
1547.6600, -69.107
1547.6800, -69.082
1547.7000, -69.072
1547.7200, -69.047
1547.7400, -69.146
1547.7600, -69.021
1547.7800, -68.785
1547.8000, -68.940
1547.8200, -68.757
1547.8400, -68.937
1547.8600, -68.960
1547.8800, -69.081
1547.9000, -68.874
1547.9200, -69.031
1547.9400, -68.953
1547.9600, -69.019
1547.9800, -68.882
1548.0000, -69.387
1548.0200, -68.925
1548.0400, -68.958
1548.0600, -69.053
1548.0800, -68.942
1548.1000, -69.071
1548.1200, -69.232
1548.1400, -69.126
1548.1600, -69.325
1548.1800, -68.877
1548.2000, -69.172
1548.2200, -69.074
1548.2400, -69.018
1548.2600, -68.925
1548.2800, -68.830
1548.3000, -69.337
1548.3200, -68.954
1548.3400, -68.915
1548.3600, -69.005
1548.3800, -68.929
1548.4000, -68.874
1548.4200, -69.087
1548.4400, -68.902
1548.4600, -69.056
1548.4800, -68.771
1548.5000, -68.875
1548.5200, -68.867
1548.5400, -68.715
1548.5600, -68.779
1548.5800, -68.834
1548.6000, -68.663
1548.6200, -68.779
1548.6400, -68.754
1548.6600, -68.627
1548.6800, -68.727
1548.7000, -68.786
1548.7200, -68.461
1548.7400, -68.600
1548.7600, -68.591
1548.7800, -68.709
1548.8000, -68.607
1548.8200, -68.713
1548.8400, -68.613
1548.8600, -68.648
1548.8800, -68.766
1548.9000, -68.604
1548.9200, -68.631
1548.9400, -68.843
1548.9600, -68.727
1548.9800, -68.741
1549.0000, -68.860
1549.0200, -68.883
1549.0400, -68.861
1549.0600, -68.890
1549.0800, -68.707
1549.1000, -68.877
1549.1200, -68.620
1549.1400, -68.725
1549.1600, -68.729
1549.1800, -68.769
1549.2000, -68.596
1549.2200, -68.787
1549.2400, -68.753
1549.2600, -68.789
1549.2800, -68.627
1549.3000, -68.681
1549.3200, -68.730
1549.3400, -68.633
1549.3600, -68.652
1549.3800, -68.448
1549.4000, -68.574
1549.4200, -68.422
1549.4400, -68.617
1549.4600, -68.392
1549.4800, -68.499
1549.5000, -68.441
1549.5200, -68.424
1549.5400, -68.466
1549.5600, -68.336
1549.5800, -68.506
1549.6000, -68.537
1549.6200, -68.323
1549.6400, -68.204
1549.6600, -68.329
1549.6800, -68.336
1549.7000, -68.366
1549.7200, -68.260
1549.7400, -68.364
1549.7600, -68.353
1549.7800, -68.373
1549.8000, -68.388
1549.8200, -68.464
1549.8400, -68.523
1549.8600, -68.418
1549.8800, -68.479
1549.9000, -68.631
1549.9200, -68.297
1549.9400, -68.475
1549.9600, -68.520
1549.9800, -68.590
1550.0000, -68.469
1550.0200, -68.437
1550.0400, -68.450
1550.0600, -68.464
1550.0800, -68.480
1550.1000, -68.495
1550.1200, -68.324
1550.1400, -68.420
1550.1600, -68.359
1550.1800, -68.304
1550.2000, -68.321
1550.2200, -68.448
1550.2400, -68.302
1550.2600, -68.228
1550.2800, -68.306
1550.3000, -68.150
1550.3200, -68.197
1550.3400, -68.331
1550.3600, -68.260
1550.3800, -68.123
1550.4000, -68.091
1550.4200, -68.030
1550.4400, -68.067
1550.4600, -68.095
1550.4800, -68.194
1550.5000, -68.114
1550.5200, -68.038
1550.5400, -67.956
1550.5600, -68.009
1550.5800, -68.094
1550.6000, -68.105
1550.6200, -68.076
1550.6400, -68.120
1550.6600, -68.216
1550.6800, -68.005
1550.7000, -68.093
1550.7200, -68.031
1550.7400, -68.134
1550.7600, -68.216
1550.7800, -68.132
1550.8000, -68.218
1550.8200, -68.261
1550.8400, -68.176
1550.8600, -68.196
1550.8800, -68.239
1550.9000, -68.201
1550.9200, -68.182
1550.9400, -68.067
1550.9600, -68.398
1550.9800, -68.132
1551.0000, -68.157
1551.0200, -68.266
1551.0400, -68.029
1551.0600, -68.097
1551.0800, -68.126
1551.1000, -68.086
1551.1200, -68.162
1551.1400, -67.892
1551.1600, -67.978
1551.1800, -68.064
1551.2000, -67.866
1551.2200, -68.032
1551.2400, -67.921
1551.2600, -67.791
1551.2800, -67.930
1551.3000, -67.871
1551.3200, -67.952
1551.3400, -67.868
1551.3600, -67.981
1551.3800, -67.682
1551.4000, -67.662
1551.4200, -67.822
1551.4400, -67.692
1551.4600, -68.054
1551.4800, -67.699
1551.5000, -67.825
1551.5200, -67.744
1551.5400, -67.694
1551.5600, -67.743
1551.5800, -67.774
1551.6000, -67.853
1551.6200, -67.904
1551.6400, -67.981
1551.6600, -67.971
1551.6800, -67.869
1551.7000, -67.993
1551.7200, -67.834
1551.7400, -67.767
1551.7600, -67.860
1551.7800, -67.995
1551.8000, -67.768
1551.8200, -68.011
1551.8400, -67.933
1551.8600, -67.903
1551.8800, -67.814
1551.9000, -67.827
1551.9200, -67.934
1551.9400, -67.742
1551.9600, -67.797
1551.9800, -67.930
1552.0000, -67.771
1552.0200, -67.754
1552.0400, -67.717
1552.0600, -67.659
1552.0800, -67.755
1552.1000, -67.579
1552.1200, -67.599
1552.1400, -67.646
1552.1600, -67.608
1552.1800, -67.563
1552.2000, -67.560
1552.2200, -67.504
1552.2400, -67.673
1552.2600, -67.631
1552.2800, -67.481
1552.3000, -67.435
1552.3200, -67.457
1552.3400, -67.321
1552.3600, -67.615
1552.3800, -67.547
1552.4000, -67.390
1552.4200, -67.519
1552.4400, -67.471
1552.4600, -67.562
1552.4800, -67.421
1552.5000, -67.621
1552.5200, -67.605
1552.5400, -67.602
1552.5600, -67.783
1552.5800, -67.477
1552.6000, -67.629
1552.6200, -67.590
1552.6400, -67.607
1552.6600, -67.564
1552.6800, -67.594
1552.7000, -67.621
1552.7200, -67.676
1552.7400, -67.661
1552.7600, -67.558
1552.7800, -67.552
1552.8000, -67.621
1552.8200, -67.773
1552.8400, -67.522
1552.8600, -67.420
1552.8800, -67.571
1552.9000, -67.396
1552.9200, -67.586
1552.9400, -67.403
1552.9600, -67.361
1552.9800, -67.326
1553.0000, -67.380
1553.0200, -67.378
1553.0400, -67.323
1553.0600, -67.256
1553.0800, -67.232
1553.1000, -67.373
1553.1200, -67.182
1553.1400, -67.290
1553.1600, -67.347
1553.1800, -67.136
1553.2000, -67.315
1553.2200, -67.085
1553.2400, -67.233
1553.2600, -67.205
1553.2800, -67.264
1553.3000, -67.321
1553.3200, -67.125
1553.3400, -67.229
1553.3600, -67.333
1553.3800, -67.219
1553.4000, -67.281
1553.4200, -67.298
1553.4400, -67.308
1553.4600, -67.212
1553.4800, -67.309
1553.5000, -67.330
1553.5200, -67.457
1553.5400, -67.342
1553.5600, -67.343
1553.5800, -67.400
1553.6000, -67.374
1553.6200, -67.339
1553.6400, -67.338
1553.6600, -67.294
1553.6800, -67.332
1553.7000, -67.283
1553.7200, -67.209
1553.7400, -67.258
1553.7600, -67.254
1553.7800, -67.229
1553.8000, -67.168
1553.8200, -67.217
1553.8400, -67.061
1553.8600, -67.094
1553.8800, -67.110
1553.9000, -67.123
1553.9200, -67.020
1553.9400, -67.013
1553.9600, -67.138
1553.9800, -66.948
1554.0000, -67.021
1554.0200, -66.897
1554.0400, -66.925
1554.0600, -66.897
1554.0800, -66.984
1554.1000, -66.888
1554.1200, -66.893
1554.1400, -66.850
1554.1600, -66.962
1554.1800, -66.933
1554.2000, -66.907
1554.2200, -66.958
1554.2400, -66.820
1554.2600, -67.082
1554.2800, -67.058
1554.3000, -66.898
1554.3200, -67.024
1554.3400, -66.955
1554.3600, -67.139
1554.3800, -66.910
1554.4000, -67.073
1554.4200, -67.111
1554.4400, -67.130
1554.4600, -67.251
1554.4800, -67.026
1554.5000, -66.901
1554.5200, -66.969
1554.5400, -67.125
1554.5600, -66.954
1554.5800, -67.046
1554.6000, -67.064
1554.6200, -66.857
1554.6400, -66.868
1554.6600, -67.032
1554.6800, -66.831
1554.7000, -66.855
1554.7200, -66.912
1554.7400, -66.881
1554.7600, -66.852
1554.7800, -66.851
1554.8000, -66.751
1554.8200, -66.827
1554.8400, -66.694
1554.8600, -66.764
1554.8800, -66.715
1554.9000, -66.754
1554.9200, -66.684
1554.9400, -66.724
1554.9600, -66.587
1554.9800, -66.673
1555.0000, -66.605
1555.0200, -66.685
1555.0400, -66.697
1555.0600, -66.639
1555.0800, -66.720
1555.1000, -66.687
1555.1200, -66.696
1555.1400, -66.670
1555.1600, -66.748
1555.1800, -66.695
1555.2000, -66.734
1555.2200, -66.761
1555.2400, -66.734
1555.2600, -66.813
1555.2800, -66.766
1555.3000, -66.747
1555.3200, -66.913
1555.3400, -66.862
1555.3600, -66.782
1555.3800, -66.741
1555.4000, -66.775
1555.4200, -66.745
1555.4400, -66.725
1555.4600, -66.702
1555.4800, -66.789
1555.5000, -66.703
1555.5200, -66.776
1555.5400, -66.721
1555.5600, -66.626
1555.5800, -66.625
1555.6000, -66.714
1555.6200, -66.618
1555.6400, -66.548
1555.6600, -66.564
1555.6800, -66.496
1555.7000, -66.573
1555.7200, -66.503
1555.7400, -66.505
1555.7600, -66.439
1555.7800, -66.440
1555.8000, -66.527
1555.8200, -66.516
1555.8400, -66.433
1555.8600, -66.433
1555.8800, -66.478
1555.9000, -66.409
1555.9200, -66.345
1555.9400, -66.357
1555.9600, -66.399
1555.9800, -66.368
1556.0000, -66.424
1556.0200, -66.554
1556.0400, -66.404
1556.0600, -66.504
1556.0800, -66.590
1556.1000, -66.460
1556.1200, -66.533
1556.1400, -66.529
1556.1600, -66.581
1556.1800, -66.493
1556.2000, -66.700
1556.2200, -66.596
1556.2400, -66.558
1556.2600, -66.579
1556.2800, -66.591
1556.3000, -66.489
1556.3200, -66.493
1556.3400, -66.560
1556.3600, -66.542
1556.3800, -66.423
1556.4000, -66.546
1556.4200, -66.409
1556.4400, -66.329
1556.4600, -66.518
1556.4800, -66.320
1556.5000, -66.308
1556.5200, -66.351
1556.5400, -66.372
1556.5600, -66.392
1556.5800, -66.268
1556.6000, -66.295
1556.6200, -66.297
1556.6400, -66.295
1556.6600, -66.216
1556.6800, -66.122
1556.7000, -66.192
1556.7200, -66.286
1556.7400, -66.213
1556.7600, -66.173
1556.7800, -66.135
1556.8000, -66.176
1556.8200, -66.235
1556.8400, -66.164
1556.8600, -66.115
1556.8800, -66.146
1556.9000, -66.223
1556.9200, -66.368
1556.9400, -66.076
1556.9600, -66.248
1556.9800, -66.273
1557.0000, -66.275
1557.0200, -66.377
1557.0400, -66.285
1557.0600, -66.316
1557.0800, -66.363
1557.1000, -66.298
1557.1200, -66.310
1557.1400, -66.356
1557.1600, -66.414
1557.1800, -66.301
1557.2000, -66.201
1557.2200, -66.353
1557.2400, -66.236
1557.2600, -66.290
1557.2800, -66.189
1557.3000, -66.208
1557.3200, -66.265
1557.3400, -66.161
1557.3600, -66.258
1557.3800, -66.109
1557.4000, -66.046
1557.4200, -66.081
1557.4400, -66.092
1557.4600, -66.123
1557.4800, -66.153
1557.5000, -66.022
1557.5200, -65.975
1557.5400, -66.114
1557.5600, -66.034
1557.5800, -65.897
1557.6000, -66.074
1557.6200, -65.886
1557.6400, -65.908
1557.6600, -66.021
1557.6800, -65.944
1557.7000, -65.946
1557.7200, -65.971
1557.7400, -65.978
1557.7600, -65.970
1557.7800, -65.955
1557.8000, -65.958
1557.8200, -66.042
1557.8400, -66.000
1557.8600, -66.008
1557.8800, -66.029
1557.9000, -66.113
1557.9200, -66.128
1557.9400, -66.109
1557.9600, -66.160
1557.9800, -66.071
1558.0000, -66.156
1558.0200, -66.064
1558.0400, -66.120
1558.0600, -66.055
1558.0800, -66.051
1558.1000, -66.086
1558.1200, -66.047
1558.1400, -66.069
1558.1600, -66.034
1558.1800, -65.977
1558.2000, -66.036
1558.2200, -65.951
1558.2400, -66.020
1558.2600, -65.908
1558.2800, -65.899
1558.3000, -65.919
1558.3200, -65.916
1558.3400, -65.851
1558.3600, -65.940
1558.3800, -65.876
1558.4000, -65.757
1558.4200, -65.860
1558.4400, -65.773
1558.4600, -65.819
1558.4800, -65.732
1558.5000, -65.800
1558.5200, -65.753
1558.5400, -65.751
1558.5600, -65.690
1558.5800, -65.776
1558.6000, -65.773
1558.6200, -65.739
1558.6400, -65.789
1558.6600, -65.780
1558.6800, -65.748
1558.7000, -65.767
1558.7200, -65.826
1558.7400, -65.890
1558.7600, -65.824
1558.7800, -65.939
1558.8000, -65.864
1558.8200, -65.875
1558.8400, -65.922
1558.8600, -65.871
1558.8800, -65.936
1558.9000, -65.866
1558.9200, -65.798
1558.9400, -65.907
1558.9600, -65.856
1558.9800, -65.856
1559.0000, -65.860
1559.0200, -65.919
1559.0400, -65.797
1559.0600, -65.825
1559.0800, -65.846
1559.1000, -65.804
1559.1200, -65.768
1559.1400, -65.699
1559.1600, -65.711
1559.1800, -65.781
1559.2000, -65.658
1559.2200, -65.680
1559.2400, -65.631
1559.2600, -65.749
1559.2800, -65.556
1559.3000, -65.669
1559.3200, -65.645
1559.3400, -65.604
1559.3600, -65.584
1559.3800, -65.506
1559.4000, -65.496
1559.4200, -65.534
1559.4400, -65.495
1559.4600, -65.619
1559.4800, -65.573
1559.5000, -65.532
1559.5200, -65.520
1559.5400, -65.567
1559.5600, -65.586
1559.5800, -65.544
1559.6000, -65.566
1559.6200, -65.611
1559.6400, -65.719
1559.6600, -65.669
1559.6800, -65.597
1559.7000, -65.672
1559.7200, -65.690
1559.7400, -65.655
1559.7600, -65.702
1559.7800, -65.751
1559.8000, -65.702
1559.8200, -65.566
1559.8400, -65.777
1559.8600, -65.612
1559.8800, -65.615
1559.9000, -65.655
1559.9200, -65.619
1559.9400, -65.567
1559.9600, -65.669
1559.9800, -65.667
1560.0000, -65.566
1560.0200, -65.495
1560.0400, -65.634
1560.0600, -65.443
1560.0800, -65.533
1560.1000, -65.465
1560.1200, -65.608
1560.1400, -65.490
1560.1600, -65.364
1560.1800, -65.428
1560.2000, -65.402
1560.2200, -65.431
1560.2400, -65.381
1560.2600, -65.451
1560.2800, -65.379
1560.3000, -65.369
1560.3200, -65.354
1560.3400, -65.345
1560.3600, -65.362
1560.3800, -65.374
1560.4000, -65.419
1560.4200, -65.363
1560.4400, -65.434
1560.4600, -65.457
1560.4800, -65.463
1560.5000, -65.429
1560.5200, -65.496
1560.5400, -65.370
1560.5600, -65.520
1560.5800, -65.558
1560.6000, -65.522
1560.6200, -65.571
1560.6400, -65.546
1560.6600, -65.543
1560.6800, -65.564
1560.7000, -65.528
1560.7200, -65.502
1560.7400, -65.561
1560.7600, -65.535
1560.7800, -65.564
1560.8000, -65.501
1560.8200, -65.466
1560.8400, -65.416
1560.8600, -65.478
1560.8800, -65.432
1560.9000, -65.398
1560.9200, -65.443
1560.9400, -65.386
1560.9600, -65.342
1560.9800, -65.314
1561.0000, -65.338
1561.0200, -65.336
1561.0400, -65.356
1561.0600, -65.320
1561.0800, -65.215
1561.1000, -65.216
1561.1200, -65.241
1561.1400, -65.227
1561.1600, -65.280
1561.1800, -65.182
1561.2000, -65.273
1561.2200, -65.261
1561.2400, -65.170
1561.2600, -65.308
1561.2800, -65.219
1561.3000, -65.274
1561.3200, -65.296
1561.3400, -65.279
1561.3600, -65.320
1561.3800, -65.325
1561.4000, -65.334
1561.4200, -65.361
1561.4400, -65.318
1561.4600, -65.377
1561.4800, -65.359
1561.5000, -65.443
1561.5200, -65.316
1561.5400, -65.467
1561.5600, -65.370
1561.5800, -65.419
1561.6000, -65.358
1561.6200, -65.337
1561.6400, -65.349
1561.6600, -65.352
1561.6800, -65.379
1561.7000, -65.343
1561.7200, -65.329
1561.7400, -65.282
1561.7600, -65.297
1561.7800, -65.285
1561.8000, -65.332
1561.8200, -65.181
1561.8400, -65.211
1561.8600, -65.258
1561.8800, -65.209
1561.9000, -65.158
1561.9200, -65.157
1561.9400, -65.193
1561.9600, -65.184
1561.9800, -65.088
1562.0000, -65.166
1562.0200, -65.196
1562.0400, -65.089
1562.0600, -65.149
1562.0800, -65.124
1562.1000, -65.188
1562.1200, -65.116
1562.1400, -65.169
1562.1600, -65.021
1562.1800, -65.159
1562.2000, -65.196
1562.2200, -65.118
1562.2400, -65.228
1562.2600, -65.095
1562.2800, -65.297
1562.3000, -65.185
1562.3200, -65.193
1562.3400, -65.250
1562.3600, -65.274
1562.3800, -65.277
1562.4000, -65.374
1562.4200, -65.253
1562.4400, -65.325
1562.4600, -65.192
1562.4800, -65.245
1562.5000, -65.294
1562.5200, -65.296
1562.5400, -65.236
1562.5600, -65.240
1562.5800, -65.219
1562.6000, -65.156
1562.6200, -65.307
1562.6400, -65.217
1562.6600, -65.136
1562.6800, -65.132
1562.7000, -65.166
1562.7200, -65.134
1562.7400, -65.066
1562.7600, -65.108
1562.7800, -65.073
1562.8000, -65.140
1562.8200, -65.086
1562.8400, -65.060
1562.8600, -65.078
1562.8800, -65.100
1562.9000, -65.018
1562.9200, -65.044
1562.9400, -65.081
1562.9600, -64.949
1562.9800, -65.053
1563.0000, -65.016
1563.0200, -65.000
1563.0400, -65.113
1563.0600, -65.072
1563.0800, -65.123
1563.1000, -65.057
1563.1200, -65.154
1563.1400, -65.097
1563.1600, -65.151
1563.1800, -65.126
1563.2000, -65.167
1563.2200, -65.208
1563.2400, -65.143
1563.2600, -65.190
1563.2800, -65.153
1563.3000, -65.230
1563.3200, -65.180
1563.3400, -65.261
1563.3600, -65.221
1563.3800, -65.187
1563.4000, -65.245
1563.4200, -65.134
1563.4400, -65.210
1563.4600, -65.167
1563.4800, -65.101
1563.5000, -65.140
1563.5200, -65.124
1563.5400, -65.156
1563.5600, -65.087
1563.5800, -65.104
1563.6000, -65.097
1563.6200, -65.057
1563.6400, -65.066
1563.6600, -65.063
1563.6800, -65.071
1563.7000, -64.992
1563.7200, -65.001
1563.7400, -65.090
1563.7600, -65.048
1563.7800, -64.926
1563.8000, -65.008
1563.8200, -64.967
1563.8400, -64.969
1563.8600, -64.952
1563.8800, -64.981
1563.9000, -65.028
1563.9200, -65.066
1563.9400, -65.024
1563.9600, -64.998
1563.9800, -65.022
1564.0000, -65.075
1564.0200, -65.090
1564.0400, -65.128
1564.0600, -65.114
1564.0800, -65.125
1564.1000, -65.170
1564.1200, -65.133
1564.1400, -65.245
1564.1600, -65.114
1564.1800, -65.209
1564.2000, -65.102
1564.2200, -65.236
1564.2400, -65.211
1564.2600, -65.173
1564.2800, -65.117
1564.3000, -65.123
1564.3200, -65.173
1564.3400, -65.144
1564.3600, -65.082
1564.3800, -65.053
1564.4000, -65.182
1564.4200, -65.128
1564.4400, -65.069
1564.4600, -65.062
1564.4800, -65.031
1564.5000, -65.059
1564.5200, -65.097
1564.5400, -65.033
1564.5600, -65.040
1564.5800, -64.989
1564.6000, -64.959
1564.6200, -65.021
1564.6400, -64.946
1564.6600, -65.007
1564.6800, -64.899
1564.7000, -64.907
1564.7200, -65.111
1564.7400, -64.965
1564.7600, -64.928
1564.7800, -65.000
1564.8000, -65.007
1564.8200, -65.040
1564.8400, -65.096
1564.8600, -64.995
1564.8800, -65.089
1564.9000, -65.082
1564.9200, -65.072
1564.9400, -65.123
1564.9600, -65.104
1564.9800, -65.195
1565.0000, -65.124
1565.0200, -65.152
1565.0400, -65.238
1565.0600, -65.153
1565.0800, -65.151
1565.1000, -65.214
1565.1200, -65.205
1565.1400, -65.187
1565.1600, -65.218
1565.1800, -65.091
1565.2000, -65.166
1565.2200, -65.169
1565.2400, -65.121
1565.2600, -65.063
1565.2800, -65.101
1565.3000, -65.223
1565.3200, -65.011
1565.3400, -65.072
1565.3600, -65.138
1565.3800, -65.004
1565.4000, -65.116
1565.4200, -65.091
1565.4400, -65.040
1565.4600, -65.060
1565.4800, -64.938
1565.5000, -65.042
1565.5200, -65.029
1565.5400, -64.969
1565.5600, -65.009
1565.5800, -64.999
1565.6000, -64.952
1565.6200, -65.109
1565.6400, -64.877
1565.6600, -65.134
1565.6800, -64.930
1565.7000, -64.992
1565.7200, -65.036
1565.7400, -65.040
1565.7600, -65.055
1565.7800, -65.211
1565.8000, -65.019
1565.8200, -65.107
1565.8400, -65.183
1565.8600, -65.207
1565.8800, -65.229
1565.9000, -65.133
1565.9200, -65.215
1565.9400, -65.176
1565.9600, -65.221
1565.9800, -65.188
1566.0000, -65.267
1566.0200, -65.157
1566.0400, -65.199
1566.0600, -65.158
1566.0800, -65.197
1566.1000, -65.170
1566.1200, -65.253
1566.1400, -65.150
1566.1600, -65.117
1566.1800, -65.135
1566.2000, -65.179
1566.2200, -64.997
1566.2400, -65.119
1566.2600, -65.157
1566.2800, -65.121
1566.3000, -65.054
1566.3200, -65.077
1566.3400, -65.026
1566.3600, -65.049
1566.3800, -65.053
1566.4000, -65.013
1566.4200, -65.074
1566.4400, -65.030
1566.4600, -65.180
1566.4800, -64.971
1566.5000, -65.116
1566.5200, -64.929
1566.5400, -65.057
1566.5600, -65.108
1566.5800, -65.047
1566.6000, -65.164
1566.6200, -65.094
1566.6400, -65.134
1566.6600, -65.162
1566.6800, -65.178
1566.7000, -65.207
1566.7200, -65.158
1566.7400, -65.215
1566.7600, -65.253
1566.7800, -65.214
1566.8000, -65.255
1566.8200, -65.233
1566.8400, -65.260
1566.8600, -65.352
1566.8800, -65.221
1566.9000, -65.179
1566.9200, -65.242
1566.9400, -65.259
1566.9600, -65.120
1566.9800, -65.218
1567.0000, -65.289
1567.0200, -65.222
1567.0400, -65.171
1567.0600, -65.227
1567.0800, -65.173
1567.1000, -65.143
1567.1200, -65.154
1567.1400, -65.148
1567.1600, -65.134
1567.1800, -65.163
1567.2000, -65.165
1567.2200, -65.104
1567.2400, -65.109
1567.2600, -65.135
1567.2800, -65.046
1567.3000, -65.141
1567.3200, -65.110
1567.3400, -65.112
1567.3600, -65.123
1567.3800, -65.039
1567.4000, -65.130
1567.4200, -65.157
1567.4400, -65.154
1567.4600, -65.182
1567.4800, -65.188
1567.5000, -65.190
1567.5200, -65.157
1567.5400, -65.213
1567.5600, -65.261
1567.5800, -65.272
1567.6000, -65.319
1567.6200, -65.325
1567.6400, -65.290
1567.6600, -65.329
1567.6800, -65.311
1567.7000, -65.290
1567.7200, -65.306
1567.7400, -65.348
1567.7600, -65.348
1567.7800, -65.349
1567.8000, -65.236
1567.8200, -65.362
1567.8400, -65.274
1567.8600, -65.252
1567.8800, -65.284
1567.9000, -65.178
1567.9200, -65.327
1567.9400, -65.279
1567.9600, -65.158
1567.9800, -65.250
1568.0000, -65.270
1568.0200, -65.205
1568.0400, -65.221
1568.0600, -65.222
1568.0800, -65.222
1568.1000, -65.198
1568.1200, -65.141
1568.1400, -65.207
1568.1600, -65.116
1568.1800, -65.272
1568.2000, -65.138
1568.2200, -65.192
1568.2400, -65.172
1568.2600, -65.210
1568.2800, -65.219
1568.3000, -65.209
1568.3200, -65.285
1568.3400, -65.218
1568.3600, -65.297
1568.3800, -65.317
1568.4000, -65.208
1568.4200, -65.308
1568.4400, -65.382
1568.4600, -65.356
1568.4800, -65.241
1568.5000, -65.335
1568.5200, -65.328
1568.5400, -65.390
1568.5600, -65.408
1568.5800, -65.341
1568.6000, -65.434
1568.6200, -65.361
1568.6400, -65.379
1568.6600, -65.389
1568.6800, -65.396
1568.7000, -65.385
1568.7200, -65.424
1568.7400, -65.370
1568.7600, -65.467
1568.7800, -65.436
1568.8000, -65.360
1568.8200, -65.307
1568.8400, -65.362
1568.8600, -65.276
1568.8800, -65.314
1568.9000, -65.361
1568.9200, -65.296
1568.9400, -65.279
1568.9600, -65.330
1568.9800, -65.321
1569.0000, -65.184
1569.0200, -65.285
1569.0400, -65.308
1569.0600, -65.298
1569.0800, -65.365
1569.1000, -65.170
1569.1200, -65.380
1569.1400, -65.345
1569.1600, -65.304
1569.1800, -65.379
1569.2000, -65.367
1569.2200, -65.364
1569.2400, -65.399
1569.2600, -65.351
1569.2800, -65.466
1569.3000, -65.508
1569.3200, -65.401
1569.3400, -65.467
1569.3600, -65.481
1569.3800, -65.428
1569.4000, -65.398
1569.4200, -65.509
1569.4400, -65.444
1569.4600, -65.555
1569.4800, -65.451
1569.5000, -65.542
1569.5200, -65.417
1569.5400, -65.506
1569.5600, -65.571
1569.5800, -65.572
1569.6000, -65.471
1569.6200, -65.485
1569.6400, -65.482
1569.6600, -65.440
1569.6800, -65.470
1569.7000, -65.467
1569.7200, -65.426
1569.7400, -65.432
1569.7600, -65.495
1569.7800, -65.531
1569.8000, -65.448
1569.8200, -65.404
1569.8400, -65.488
1569.8600, -65.357
1569.8800, -65.356
1569.9000, -65.400
1569.9200, -65.363
1569.9400, -65.439
1569.9600, -65.462
1569.9800, -65.391
1570.0000, -65.445
1570.0200, -65.495
1570.0400, -65.450
1570.0600, -65.481
1570.0800, -65.474
1570.1000, -65.519
1570.1200, -65.495
1570.1400, -65.543
1570.1600, -65.592
1570.1800, -65.541
1570.2000, -65.560
1570.2200, -65.506
1570.2400, -65.603
1570.2600, -65.557
1570.2800, -65.569
1570.3000, -65.653
1570.3200, -65.649
1570.3400, -65.606
1570.3600, -65.660
1570.3800, -65.577
1570.4000, -65.623
1570.4200, -65.601
1570.4400, -65.609
1570.4600, -65.633
1570.4800, -65.634
1570.5000, -65.576
1570.5200, -65.647
1570.5400, -65.601
1570.5600, -65.698
1570.5800, -65.466
1570.6000, -65.608
1570.6200, -65.571
1570.6400, -65.597
1570.6600, -65.584
1570.6800, -65.518
1570.7000, -65.591
1570.7200, -65.512
1570.7400, -65.550
1570.7600, -65.588
1570.7800, -65.607
1570.8000, -65.524
1570.8200, -65.508
1570.8400, -65.688
1570.8600, -65.561
1570.8800, -65.582
1570.9000, -65.600
1570.9200, -65.582
1570.9400, -65.649
1570.9600, -65.591
1570.9800, -65.611
1571.0000, -65.673
1571.0200, -65.699
1571.0400, -65.721
1571.0600, -65.691
1571.0800, -65.604
1571.1000, -65.785
1571.1200, -65.732
1571.1400, -65.776
1571.1600, -65.857
1571.1800, -65.680
1571.2000, -65.749
1571.2200, -65.848
1571.2400, -65.711
1571.2600, -65.764
1571.2800, -65.752
1571.3000, -65.772
1571.3200, -65.832
1571.3400, -65.654
1571.3600, -65.765
1571.3800, -65.850
1571.4000, -65.738
1571.4200, -65.644
1571.4400, -65.747
1571.4600, -65.777
1571.4800, -65.815
1571.5000, -65.688
1571.5200, -65.712
1571.5400, -65.784
1571.5600, -65.619
1571.5800, -65.807
1571.6000, -65.764
1571.6200, -65.565
1571.6400, -65.719
1571.6600, -65.765
1571.6800, -65.748
1571.7000, -65.671
1571.7200, -65.735
1571.7400, -65.747
1571.7600, -65.687
1571.7800, -65.743
1571.8000, -65.765
1571.8200, -65.703
1571.8400, -65.835
1571.8600, -65.855
1571.8800, -65.818
1571.9000, -65.860
1571.9200, -65.753
1571.9400, -66.018
1571.9600, -65.836
1571.9800, -65.827
1572.0000, -65.954
1572.0200, -65.928
1572.0400, -66.012
1572.0600, -65.873
1572.0800, -65.897
1572.1000, -65.835
1572.1200, -65.992
1572.1400, -65.919
1572.1600, -65.911
1572.1800, -65.913
1572.2000, -65.889
1572.2200, -65.904
1572.2400, -65.886
1572.2600, -65.889
1572.2800, -65.919
1572.3000, -65.744
1572.3200, -65.925
1572.3400, -65.891
1572.3600, -65.833
1572.3800, -65.885
1572.4000, -65.863
1572.4200, -65.868
1572.4400, -65.840
1572.4600, -65.876
1572.4800, -65.815
1572.5000, -65.846
1572.5200, -65.860
1572.5400, -65.841
1572.5600, -65.869
1572.5800, -65.864
1572.6000, -65.814
1572.6200, -65.937
1572.6400, -65.878
1572.6600, -65.878
1572.6800, -65.949
1572.7000, -65.954
1572.7200, -66.004
1572.7400, -65.938
1572.7600, -65.948
1572.7800, -66.054
1572.8000, -66.055
1572.8200, -66.020
1572.8400, -66.045
1572.8600, -66.015
1572.8800, -66.038
1572.9000, -66.049
1572.9200, -66.033
1572.9400, -66.062
1572.9600, -66.112
1572.9800, -65.924
1573.0000, -66.130
1573.0200, -66.119
1573.0400, -66.095
1573.0600, -66.066
1573.0800, -66.076
1573.1000, -66.015
1573.1200, -66.056
1573.1400, -66.106
1573.1600, -65.986
1573.1800, -65.990
1573.2000, -66.005
1573.2200, -66.038
1573.2400, -66.059
1573.2600, -66.077
1573.2800, -66.036
1573.3000, -65.994
1573.3200, -66.012
1573.3400, -66.051
1573.3600, -65.993
1573.3800, -65.930
1573.4000, -66.012
1573.4200, -66.027
1573.4400, -66.095
1573.4600, -66.016
1573.4800, -66.070
1573.5000, -66.024
1573.5200, -66.047
1573.5400, -66.169
1573.5600, -66.092
1573.5800, -66.085
1573.6000, -66.185
1573.6200, -66.132
1573.6400, -66.287
1573.6600, -66.151
1573.6800, -66.302
1573.7000, -66.101
1573.7200, -66.197
1573.7400, -66.165
1573.7600, -66.285
1573.7800, -66.134
1573.8000, -66.286
1573.8200, -66.237
1573.8400, -66.293
1573.8600, -66.301
1573.8800, -66.180
1573.9000, -66.207
1573.9200, -66.249
1573.9400, -66.218
1573.9600, -66.152
1573.9800, -66.141
1574.0000, -66.268
1574.0200, -66.207
1574.0400, -66.125
1574.0600, -66.198
1574.0800, -66.191
1574.1000, -66.247
1574.1200, -66.134
1574.1400, -66.145
1574.1600, -66.235
1574.1800, -66.172
1574.2000, -66.141
1574.2200, -66.148
1574.2400, -66.233
1574.2600, -66.246
1574.2800, -66.155
1574.3000, -66.238
1574.3200, -66.221
1574.3400, -66.178
1574.3600, -66.243
1574.3800, -66.159
1574.4000, -66.253
1574.4200, -66.247
1574.4400, -66.252
1574.4600, -66.285
1574.4800, -66.179
1574.5000, -66.381
1574.5200, -66.380
1574.5400, -66.269
1574.5600, -66.374
1574.5800, -66.330
1574.6000, -66.401
1574.6200, -66.358
1574.6400, -66.322
1574.6600, -66.384
1574.6800, -66.413
1574.7000, -66.432
1574.7200, -66.407
1574.7400, -66.344
1574.7600, -66.369
1574.7800, -66.284
1574.8000, -66.448
1574.8200, -66.436
1574.8400, -66.315
1574.8600, -66.418
1574.8800, -66.408
1574.9000, -66.309
1574.9200, -66.325
1574.9400, -66.451
1574.9600, -66.321
1574.9800, -66.332
1575.0000, -66.438
1575.0200, -66.324
1575.0400, -66.300
1575.0600, -66.381
1575.0800, -66.310
1575.1000, -66.332
1575.1200, -66.258
1575.1400, -66.308
1575.1600, -66.321
1575.1800, -66.385
1575.2000, -66.372
1575.2200, -66.335
1575.2400, -66.318
1575.2600, -66.464
1575.2800, -66.366
1575.3000, -66.390
1575.3200, -66.504
1575.3400, -66.487
1575.3600, -66.354
1575.3800, -66.627
1575.4000, -66.511
1575.4200, -66.506
1575.4400, -66.543
1575.4600, -66.416
1575.4800, -66.541
1575.5000, -66.554
1575.5200, -66.519
1575.5400, -66.588
1575.5600, -66.530
1575.5800, -66.509
1575.6000, -66.490
1575.6200, -66.566
1575.6400, -66.608
1575.6600, -66.417
1575.6800, -66.621
1575.7000, -66.499
1575.7200, -66.461
1575.7400, -66.491
1575.7600, -66.506
1575.7800, -66.540
1575.8000, -66.547
1575.8200, -66.575
1575.8400, -66.576
1575.8600, -66.574
1575.8800, -66.351
1575.9000, -66.457
1575.9200, -66.545
1575.9400, -66.432
1575.9600, -66.589
1575.9800, -66.399
1576.0000, -66.444
1576.0200, -66.476
1576.0400, -66.590
1576.0600, -66.537
1576.0800, -66.483
1576.1000, -66.549
1576.1200, -66.593
1576.1400, -66.576
1576.1600, -66.520
1576.1800, -66.680
1576.2000, -66.505
1576.2200, -66.647
1576.2400, -66.573
1576.2600, -66.667
1576.2800, -66.612
1576.3000, -66.613
1576.3200, -66.680
1576.3400, -66.761
1576.3600, -66.626
1576.3800, -66.736
1576.4000, -66.809
1576.4200, -66.675
1576.4400, -66.618
1576.4600, -66.622
1576.4800, -66.694
1576.5000, -66.698
1576.5200, -66.615
1576.5400, -66.659
1576.5600, -66.650
1576.5800, -66.619
1576.6000, -66.659
1576.6200, -66.612
1576.6400, -66.632
1576.6600, -66.694
1576.6800, -66.703
1576.7000, -66.561
1576.7200, -66.573
1576.7400, -66.599
1576.7600, -66.559
1576.7800, -66.643
1576.8000, -66.566
1576.8200, -66.647
1576.8400, -66.598
1576.8600, -66.631
1576.8800, -66.588
1576.9000, -66.615
1576.9200, -66.643
1576.9400, -66.666
1576.9600, -66.623
1576.9800, -66.808
1577.0000, -66.621
1577.0200, -66.718
1577.0400, -66.635
1577.0600, -66.686
1577.0800, -66.748
1577.1000, -66.701
1577.1200, -66.797
1577.1400, -66.877
1577.1600, -66.730
1577.1800, -66.841
1577.2000, -66.712
1577.2200, -66.866
1577.2400, -66.863
1577.2600, -66.804
1577.2800, -66.875
1577.3000, -66.876
1577.3200, -66.704
1577.3400, -66.765
1577.3600, -66.766
1577.3800, -66.787
1577.4000, -66.752
1577.4200, -66.882
1577.4400, -66.830
1577.4600, -66.653
1577.4800, -66.761
1577.5000, -66.805
1577.5200, -66.813
1577.5400, -66.778
1577.5600, -66.767
1577.5800, -66.767
1577.6000, -66.697
1577.6200, -66.720
1577.6400, -66.790
1577.6600, -66.769
1577.6800, -66.927
1577.7000, -66.825
1577.7200, -66.915
1577.7400, -66.663
1577.7600, -66.877
1577.7800, -66.731
1577.8000, -66.746
1577.8200, -66.804
1577.8400, -66.898
1577.8600, -66.740
1577.8800, -66.832
1577.9000, -66.857
1577.9200, -66.844
1577.9400, -66.920
1577.9600, -66.916
1577.9800, -66.994
1578.0000, -66.903
1578.0200, -66.917
1578.0400, -66.854
1578.0600, -66.986
1578.0800, -66.949
1578.1000, -67.000
1578.1200, -66.826
1578.1400, -67.079
1578.1600, -66.854
1578.1800, -66.952
1578.2000, -66.898
1578.2200, -66.967
1578.2400, -67.029
1578.2600, -66.805
1578.2800, -66.990
1578.3000, -66.887
1578.3200, -66.814
1578.3400, -66.954
1578.3600, -66.977
1578.3800, -66.820
1578.4000, -66.855
1578.4200, -66.924
1578.4400, -66.882
1578.4600, -66.930
1578.4800, -67.008
1578.5000, -66.760
1578.5200, -67.001
1578.5400, -66.865
1578.5600, -66.918
1578.5800, -66.823
1578.6000, -67.059
1578.6200, -66.930
1578.6400, -66.844
1578.6600, -66.996
1578.6800, -66.881
1578.7000, -67.009
1578.7200, -66.996
1578.7400, -66.931
1578.7600, -66.941
1578.7800, -67.019
1578.8000, -67.057
1578.8200, -67.021
1578.8400, -67.101
1578.8600, -66.996
1578.8800, -66.994
1578.9000, -66.998
1578.9200, -67.152
1578.9400, -66.979
1578.9600, -67.188
1578.9800, -67.059
1579.0000, -66.997
1579.0200, -67.070
1579.0400, -67.107
1579.0600, -67.039
1579.0800, -67.056
1579.1000, -67.069
1579.1200, -67.197
1579.1400, -67.058
1579.1600, -67.103
1579.1800, -66.985
1579.2000, -67.095
1579.2200, -67.046
1579.2400, -67.043
1579.2600, -67.009
1579.2800, -67.093
1579.3000, -66.946
1579.3200, -67.044
1579.3400, -67.078
1579.3600, -66.979
1579.3800, -67.084
1579.4000, -67.066
1579.4200, -66.991
1579.4400, -67.102
1579.4600, -67.063
1579.4800, -67.016
1579.5000, -66.985
1579.5200, -67.150
1579.5400, -67.060
1579.5600, -67.137
1579.5800, -67.087
1579.6000, -66.995
1579.6200, -67.123
1579.6400, -67.124
1579.6600, -67.173
1579.6800, -67.142
1579.7000, -67.154
1579.7200, -67.268
1579.7400, -67.192
1579.7600, -67.198
1579.7800, -67.197
1579.8000, -67.201
1579.8200, -67.188
1579.8400, -67.171
1579.8600, -67.199
1579.8800, -67.119
1579.9000, -67.295
1579.9200, -67.107
1579.9400, -67.132
1579.9600, -67.230
1579.9800, -67.164
1580.0000, -67.198
1580.0200, -67.199
1580.0400, -67.145
1580.0600, -67.117
1580.0800, -67.228
1580.1000, -67.255
1580.1200, -67.107
1580.1400, -67.177
1580.1600, -67.081
1580.1800, -67.109
1580.2000, -67.214
1580.2200, -67.120
1580.2400, -67.217
1580.2600, -67.086
1580.2800, -67.154
1580.3000, -67.210
1580.3200, -67.073
1580.3400, -67.226
1580.3600, -67.253
1580.3800, -67.094
1580.4000, -67.162
1580.4200, -67.234
1580.4400, -67.303
1580.4600, -67.197
1580.4800, -67.164
1580.5000, -67.292
1580.5200, -67.185
1580.5400, -67.271
1580.5600, -67.389
1580.5800, -67.275
1580.6000, -67.343
1580.6200, -67.316
1580.6400, -67.240
1580.6600, -67.329
1580.6800, -67.308
1580.7000, -67.434
1580.7200, -67.235
1580.7400, -67.337
1580.7600, -67.325
1580.7800, -67.313
1580.8000, -67.322
1580.8200, -67.362
1580.8400, -67.352
1580.8600, -67.379
1580.8800, -67.310
1580.9000, -67.218
1580.9200, -67.314
1580.9400, -67.287
1580.9600, -67.230
1580.9800, -67.309
1581.0000, -67.199
1581.0200, -67.314
1581.0400, -67.286
1581.0600, -67.389
1581.0800, -67.264
1581.1000, -67.182
1581.1200, -67.264
1581.1400, -67.271
1581.1600, -67.196
1581.1800, -67.271
1581.2000, -67.271
1581.2200, -67.249
1581.2400, -67.312
1581.2600, -67.472
1581.2800, -67.308
1581.3000, -67.175
1581.3200, -67.407
1581.3400, -67.367
1581.3600, -67.429
1581.3800, -67.317
1581.4000, -67.531
1581.4200, -67.246
1581.4400, -67.428
1581.4600, -67.389
1581.4800, -67.378
1581.5000, -67.513
1581.5200, -67.381
1581.5400, -67.453
1581.5600, -67.431
1581.5800, -67.481
1581.6000, -67.375
1581.6200, -67.387
1581.6400, -67.552
1581.6600, -67.325
1581.6800, -67.323
1581.7000, -67.348
1581.7200, -67.458
1581.7400, -67.237
1581.7600, -67.439
1581.7800, -67.363
1581.8000, -67.442
1581.8200, -67.391
1581.8400, -67.339
1581.8600, -67.468
1581.8800, -67.274
1581.9000, -67.514
1581.9200, -67.250
1581.9400, -67.450
1581.9600, -67.335
1581.9800, -67.342
1582.0000, -67.431
1582.0200, -67.349
1582.0400, -67.490
1582.0600, -67.362
1582.0800, -67.407
1582.1000, -67.563
1582.1200, -67.250
1582.1400, -67.448
1582.1600, -67.402
1582.1800, -67.471
1582.2000, -67.442
1582.2200, -67.460
1582.2400, -67.395
1582.2600, -67.625
1582.2800, -67.593
1582.3000, -67.581
1582.3200, -67.476
1582.3400, -67.630
1582.3600, -67.504
1582.3800, -67.550
1582.4000, -67.496
1582.4200, -67.565
1582.4400, -67.451
1582.4600, -67.430
1582.4800, -67.547
1582.5000, -67.543
1582.5200, -67.594
1582.5400, -67.388
1582.5600, -67.537
1582.5800, -67.475
1582.6000, -67.607
1582.6200, -67.293
1582.6400, -67.514
1582.6600, -67.338
1582.6800, -67.569
1582.7000, -67.385
1582.7200, -67.465
1582.7400, -67.443
1582.7600, -67.463
1582.7800, -67.543
1582.8000, -67.426
1582.8200, -67.453
1582.8400, -67.470
1582.8600, -67.604
1582.8800, -67.424
1582.9000, -67.638
1582.9200, -67.456
1582.9400, -67.479
1582.9600, -67.431
1582.9800, -67.474
1583.0000, -67.493
1583.0200, -67.485
1583.0400, -67.550
1583.0600, -67.583
1583.0800, -67.754
1583.1000, -67.452
1583.1200, -67.663
1583.1400, -67.568
1583.1600, -67.485
1583.1800, -67.590
1583.2000, -67.669
1583.2200, -67.645
1583.2400, -67.714
1583.2600, -67.735
1583.2800, -67.748
1583.3000, -67.358
1583.3200, -67.759
1583.3400, -67.476
1583.3600, -67.617
1583.3800, -67.572
1583.4000, -67.667
1583.4200, -67.759
1583.4400, -67.677
1583.4600, -67.630
1583.4800, -67.369
1583.5000, -67.761
1583.5200, -67.682
1583.5400, -67.634
1583.5600, -67.488
1583.5800, -67.609
1583.6000, -67.461
1583.6200, -67.629
1583.6400, -67.559
1583.6600, -67.561
1583.6800, -67.582
1583.7000, -67.554
1583.7200, -67.628
1583.7400, -67.632
1583.7600, -67.580
1583.7800, -67.619
1583.8000, -67.592
1583.8200, -67.657
1583.8400, -67.713
1583.8600, -67.499
1583.8800, -67.694
1583.9000, -67.565
1583.9200, -67.658
1583.9400, -67.719
1583.9600, -67.733
1583.9800, -67.869
1584.0000, -67.710
1584.0200, -67.834
1584.0400, -67.654
1584.0600, -67.760
1584.0800, -67.507
1584.1000, -67.883
1584.1200, -67.662
1584.1400, -67.706
1584.1600, -67.788
1584.1800, -67.551
1584.2000, -67.676
1584.2200, -67.713
1584.2400, -67.667
1584.2600, -67.747
1584.2800, -67.682
1584.3000, -67.759
1584.3200, -67.657
1584.3400, -67.647
1584.3600, -67.709
1584.3800, -67.743
1584.4000, -67.625
1584.4200, -67.786
1584.4400, -67.685
1584.4600, -67.569
1584.4800, -67.824
1584.5000, -67.685
1584.5200, -67.641
1584.5400, -67.622
1584.5600, -67.680
1584.5800, -67.692
1584.6000, -67.781
1584.6200, -67.647
1584.6400, -67.697
1584.6600, -67.617
1584.6800, -67.613
1584.7000, -67.737
1584.7200, -67.856
1584.7400, -67.637
1584.7600, -67.582
1584.7800, -67.727
1584.8000, -67.756
1584.8200, -67.815
1584.8400, -67.862
1584.8600, -67.686
1584.8800, -67.837
1584.9000, -67.875
1584.9200, -67.732
1584.9400, -67.767
1584.9600, -67.718
1584.9800, -67.758
1585.0000, -67.902
1585.0200, -67.741
1585.0400, -67.746
1585.0600, -67.820
1585.0800, -67.728
1585.1000, -67.825
1585.1200, -67.894
1585.1400, -67.695
1585.1600, -67.833
1585.1800, -67.871
1585.2000, -67.689
1585.2200, -67.748
1585.2400, -67.709
1585.2600, -67.736
1585.2800, -67.696
1585.3000, -67.705
1585.3200, -67.766
1585.3400, -67.742
1585.3600, -67.720
1585.3800, -67.824
1585.4000, -67.695
1585.4200, -67.860
1585.4400, -67.737
1585.4600, -67.804
1585.4800, -67.681
1585.5000, -67.903
1585.5200, -67.883
1585.5400, -67.704
1585.5600, -67.811
1585.5800, -67.856
1585.6000, -67.803
1585.6200, -68.038
1585.6400, -67.898
1585.6600, -67.870
1585.6800, -67.906
1585.7000, -67.904
1585.7200, -67.796
1585.7400, -67.773
1585.7600, -67.832
1585.7800, -67.898
1585.8000, -67.926
1585.8200, -67.866
1585.8400, -67.835
1585.8600, -67.974
1585.8800, -67.801
1585.9000, -67.795
1585.9200, -67.852
1585.9400, -67.724
1585.9600, -67.878
1585.9800, -67.773
1586.0000, -67.820
1586.0200, -67.963
1586.0400, -67.862
1586.0600, -67.867
1586.0800, -67.850
1586.1000, -67.737
1586.1200, -67.649
1586.1400, -67.821
1586.1600, -67.779
1586.1800, -68.103
1586.2000, -67.780
1586.2200, -67.830
1586.2400, -67.684
1586.2600, -67.865
1586.2800, -67.772
1586.3000, -67.784
1586.3200, -67.848
1586.3400, -67.820
1586.3600, -67.778
1586.3800, -67.935
1586.4000, -67.841
1586.4200, -67.839
1586.4400, -67.939
1586.4600, -67.992
1586.4800, -67.923
1586.5000, -67.878
1586.5200, -67.893
1586.5400, -67.966
1586.5600, -67.912
1586.5800, -67.933
1586.6000, -68.049
1586.6200, -67.906
1586.6400, -67.837
1586.6600, -67.946
1586.6800, -67.936
1586.7000, -67.976
1586.7200, -67.923
1586.7400, -68.033
1586.7600, -67.778
1586.7800, -67.908
1586.8000, -68.054
1586.8200, -67.946
1586.8400, -67.887
1586.8600, -68.056
1586.8800, -68.052
1586.9000, -67.848
1586.9200, -67.935
1586.9400, -67.764
1586.9600, -67.908
1586.9800, -67.944
1587.0000, -67.772
1587.0200, -67.902
1587.0400, -67.965
1587.0600, -68.037
1587.0800, -67.861
1587.1000, -67.889
1587.1200, -68.033
1587.1400, -67.915
1587.1600, -67.930
1587.1800, -68.019
1587.2000, -67.985
1587.2200, -67.980
1587.2400, -67.788
1587.2600, -68.113
1587.2800, -67.963
1587.3000, -67.953
1587.3200, -68.058
1587.3400, -68.024
1587.3600, -68.125
1587.3800, -67.961
1587.4000, -68.031
1587.4200, -67.771
1587.4400, -68.160
1587.4600, -67.845
1587.4800, -68.270
1587.5000, -67.821
1587.5200, -68.068
1587.5400, -68.001
1587.5600, -68.016
1587.5800, -67.976
1587.6000, -68.041
1587.6200, -68.240
1587.6400, -67.881
1587.6600, -67.915
1587.6800, -67.999
1587.7000, -68.056
1587.7200, -67.950
1587.7400, -68.046
1587.7600, -67.938
1587.7800, -67.984
1587.8000, -67.971
1587.8200, -68.069
1587.8400, -68.085
1587.8600, -67.882
1587.8800, -67.999
1587.9000, -67.996
1587.9200, -68.071
1587.9400, -68.026
1587.9600, -67.966
1587.9800, -68.012
1588.0000, -68.038
1588.0200, -67.984
1588.0400, -68.147
1588.0600, -68.027
1588.0800, -68.005
1588.1000, -68.097
1588.1200, -67.984
1588.1400, -68.074
1588.1600, -68.039
1588.1800, -68.031
1588.2000, -68.254
1588.2200, -68.068
1588.2400, -68.084
1588.2600, -68.097
1588.2800, -68.061
1588.3000, -68.085
1588.3200, -68.186
1588.3400, -68.131
1588.3600, -67.995
1588.3800, -68.121
1588.4000, -68.252
1588.4200, -67.946
1588.4400, -68.089
1588.4600, -68.317
1588.4800, -67.863
1588.5000, -68.194
1588.5200, -67.958
1588.5400, -68.211
1588.5600, -68.111
1588.5800, -68.099
1588.6000, -68.032
1588.6200, -68.114
1588.6400, -67.977
1588.6600, -68.046
1588.6800, -68.172
1588.7000, -68.119
1588.7200, -67.907
1588.7400, -68.103
1588.7600, -68.097
1588.7800, -68.127
1588.8000, -68.167
1588.8200, -68.107
1588.8400, -67.906
1588.8600, -68.179
1588.8800, -68.063
1588.9000, -68.113
1588.9200, -68.166
1588.9400, -68.017
1588.9600, -68.019
1588.9800, -68.320
1589.0000, -68.137
1589.0200, -67.957
1589.0400, -68.272
1589.0600, -68.029
1589.0800, -68.222
1589.1000, -68.107
1589.1200, -68.239
1589.1400, -68.196
1589.1600, -68.058
1589.1800, -68.262
1589.2000, -68.265
1589.2200, -68.138
1589.2400, -68.161
1589.2600, -68.223
1589.2800, -68.148
1589.3000, -68.024
1589.3200, -68.237
1589.3400, -68.112
1589.3600, -68.078
1589.3800, -68.141
1589.4000, -68.084
1589.4200, -68.160
1589.4400, -68.149
1589.4600, -68.152
1589.4800, -68.017
1589.5000, -68.188
1589.5200, -68.016
1589.5400, -68.125
1589.5600, -68.113
1589.5800, -68.077
1589.6000, -68.130
1589.6200, -68.068
1589.6400, -68.175
1589.6600, -68.106
1589.6800, -68.248
1589.7000, -68.068
1589.7200, -68.393
1589.7400, -67.985
1589.7600, -68.178
1589.7800, -68.176
1589.8000, -68.074
1589.8200, -68.496
1589.8400, -67.997
1589.8600, -68.232
1589.8800, -68.138
1589.9000, -68.445
1589.9200, -68.252
1589.9400, -68.048
1589.9600, -68.312
1589.9800, -68.400
1590.0000, -68.033
1590.0200, -68.299
1590.0400, -68.208
1590.0600, -68.219
1590.0800, -68.272
1590.1000, -68.326
1590.1200, -68.124
1590.1400, -68.159
1590.1600, -68.287
1590.1800, -68.279
1590.2000, -68.206
1590.2200, -68.267
1590.2400, -68.206
1590.2600, -68.331
1590.2800, -68.194
1590.3000, -68.372
1590.3200, -68.109
1590.3400, -68.184
1590.3600, -68.082
1590.3800, -68.156
1590.4000, -68.030
1590.4200, -68.290
1590.4400, -68.174
1590.4600, -68.333
1590.4800, -68.134
1590.5000, -68.394
1590.5200, -68.081
1590.5400, -68.440
1590.5600, -68.252
1590.5800, -68.152
1590.6000, -68.329
1590.6200, -68.383
1590.6400, -68.244
1590.6600, -68.241
1590.6800, -68.358
1590.7000, -68.299
1590.7200, -68.256
1590.7400, -68.381
1590.7600, -68.285
1590.7800, -68.282
1590.8000, -68.311
1590.8200, -68.383
1590.8400, -68.426
1590.8600, -68.270
1590.8800, -68.236
1590.9000, -68.375
1590.9200, -68.397
1590.9400, -68.216
1590.9600, -68.328
1590.9800, -68.467
1591.0000, -68.186
1591.0200, -68.535
1591.0400, -68.133
1591.0600, -68.398
1591.0800, -68.214
1591.1000, -68.247
1591.1200, -68.388
1591.1400, -68.255
1591.1600, -68.294
1591.1800, -68.319
1591.2000, -68.342
1591.2200, -68.523
1591.2400, -68.179
1591.2600, -68.270
1591.2800, -68.363
1591.3000, -68.387
1591.3200, -68.285
1591.3400, -68.326
1591.3600, -68.323
1591.3800, -68.238
1591.4000, -68.381
1591.4200, -68.246
1591.4400, -68.469
1591.4600, -68.454
1591.4800, -68.401
1591.5000, -68.413
1591.5200, -68.375
1591.5400, -68.382
1591.5600, -68.312
1591.5800, -68.391
1591.6000, -68.360
1591.6200, -68.436
1591.6400, -68.261
1591.6600, -68.527
1591.6800, -68.339
1591.7000, -68.487
1591.7200, -68.452
1591.7400, -68.478
1591.7600, -68.429
1591.7800, -68.400
1591.8000, -68.441
1591.8200, -68.265
1591.8400, -68.236
1591.8600, -68.467
1591.8800, -68.339
1591.9000, -68.694
1591.9200, -68.212
1591.9400, -68.372
1591.9600, -68.330
1591.9800, -68.401
1592.0000, -68.465
1592.0200, -68.218
1592.0400, -68.422
1592.0600, -68.178
1592.0800, -68.484
1592.1000, -68.199
1592.1200, -68.497
1592.1400, -68.336
1592.1600, -68.277
1592.1800, -68.466
1592.2000, -68.318
1592.2200, -68.363
1592.2400, -68.364
1592.2600, -68.463
1592.2800, -68.465
1592.3000, -68.381
1592.3200, -68.339
1592.3400, -68.558
1592.3600, -68.354
1592.3800, -68.548
1592.4000, -68.613
1592.4200, -68.241
1592.4400, -68.662
1592.4600, -68.523
1592.4800, -68.478
1592.5000, -68.550
1592.5200, -68.539
1592.5400, -68.318
1592.5600, -68.496
1592.5800, -68.289
1592.6000, -68.716
1592.6200, -68.452
1592.6400, -68.394
1592.6600, -68.513
1592.6800, -68.373
1592.7000, -68.381
1592.7200, -68.755
1592.7400, -68.118
1592.7600, -68.743
1592.7800, -68.315
1592.8000, -68.365
1592.8200, -68.378
1592.8400, -68.481
1592.8600, -68.563
1592.8800, -68.319
1592.9000, -68.352
1592.9200, -68.585
1592.9400, -68.473
1592.9600, -68.231
1592.9800, -68.416
1593.0000, -68.427
1593.0200, -68.384
1593.0400, -68.347
1593.0600, -68.423
1593.0800, -68.503
1593.1000, -68.408
1593.1200, -68.454
1593.1400, -68.536
1593.1600, -68.536
1593.1800, -68.434
1593.2000, -68.842
1593.2200, -68.308
1593.2400, -68.496
1593.2600, -68.507
1593.2800, -68.396
1593.3000, -68.557
1593.3200, -68.682
1593.3400, -68.591
1593.3600, -68.411
1593.3800, -68.629
1593.4000, -68.526
1593.4200, -68.441
1593.4400, -68.684
1593.4600, -68.600
1593.4800, -68.424
1593.5000, -68.333
1593.5200, -68.567
1593.5400, -68.467
1593.5600, -68.601
1593.5800, -68.548
1593.6000, -68.545
1593.6200, -68.338
1593.6400, -68.409
1593.6600, -68.523
1593.6800, -68.382
1593.7000, -68.676
1593.7200, -68.261
1593.7400, -68.613
1593.7600, -68.637
1593.7800, -68.511
1593.8000, -68.440
1593.8200, -68.521
1593.8400, -68.506
1593.8600, -68.722
1593.8800, -68.416
1593.9000, -68.570
1593.9200, -68.562
1593.9400, -68.595
1593.9600, -68.340
1593.9800, -68.581
1594.0000, -68.632
1594.0200, -68.472
1594.0400, -68.771
1594.0600, -68.566
1594.0800, -68.583
1594.1000, -68.524
1594.1200, -68.543
1594.1400, -68.586
1594.1600, -68.613
1594.1800, -68.738
1594.2000, -68.791
1594.2200, -68.650
1594.2400, -68.554
1594.2600, -68.603
1594.2800, -68.853
1594.3000, -68.571
1594.3200, -68.697
1594.3400, -68.643
1594.3600, -68.614
1594.3800, -68.660
1594.4000, -68.511
1594.4200, -68.840
1594.4400, -68.687
1594.4600, -68.549
1594.4800, -68.692
1594.5000, -68.382
1594.5200, -68.608
1594.5400, -68.698
1594.5600, -68.686
1594.5800, -68.491
1594.6000, -68.754
1594.6200, -68.360
1594.6400, -68.657
1594.6600, -68.580
1594.6800, -68.468
1594.7000, -68.635
1594.7200, -68.543
1594.7400, -68.643
1594.7600, -68.767
1594.7800, -68.684
1594.8000, -68.643
1594.8200, -68.633
1594.8400, -68.592
1594.8600, -68.652
1594.8800, -68.590
1594.9000, -68.750
1594.9200, -68.405
1594.9400, -68.771
1594.9600, -68.677
1594.9800, -68.827
1595.0000, -68.679
1595.0200, -68.660
1595.0400, -69.109
1595.0600, -68.609
1595.0800, -68.567
1595.1000, -68.676
1595.1200, -68.663
1595.1400, -68.912
1595.1600, -68.582
1595.1800, -68.635
1595.2000, -68.706
1595.2200, -68.704
1595.2400, -68.765
1595.2600, -68.477
1595.2800, -68.847
1595.3000, -68.716
1595.3200, -68.745
1595.3400, -68.597
1595.3600, -68.829
1595.3800, -68.494
1595.4000, -68.744
1595.4200, -68.790
1595.4400, -68.617
1595.4600, -68.928
1595.4800, -68.624
1595.5000, -68.593
1595.5200, -69.077
1595.5400, -68.716
1595.5600, -68.672
1595.5800, -68.686
1595.6000, -68.666
1595.6200, -68.796
1595.6400, -68.520
1595.6600, -68.598
1595.6800, -69.037
1595.7000, -68.639
1595.7200, -68.856
1595.7400, -68.864
1595.7600, -68.809
1595.7800, -68.813
1595.8000, -68.722
1595.8200, -68.974
1595.8400, -68.630
1595.8600, -68.988
1595.8800, -68.782
1595.9000, -68.772
1595.9200, -68.871
1595.9400, -68.591
1595.9600, -68.787
1595.9800, -68.901
1596.0000, -68.688
1596.0200, -68.882
1596.0400, -68.629
1596.0600, -68.729
1596.0800, -68.697
1596.1000, -68.998
1596.1200, -68.633
1596.1400, -68.715
1596.1600, -68.694
1596.1800, -68.936
1596.2000, -68.759
1596.2200, -68.818
1596.2400, -68.584
1596.2600, -68.762
1596.2800, -68.948
1596.3000, -68.767
1596.3200, -68.753
1596.3400, -68.592
1596.3600, -68.708
1596.3800, -68.787
1596.4000, -68.679
1596.4200, -68.942
1596.4400, -68.991
1596.4600, -68.700
1596.4800, -68.843
1596.5000, -68.985
1596.5200, -68.854
1596.5400, -68.746
1596.5600, -68.853
1596.5800, -69.055
1596.6000, -68.922
1596.6200, -68.913
1596.6400, -68.780
1596.6600, -69.010
1596.6800, -68.962
1596.7000, -68.716
1596.7200, -68.979
1596.7400, -68.764
1596.7600, -68.881
1596.7800, -68.869
1596.8000, -68.886
1596.8200, -68.847
1596.8400, -68.905
1596.8600, -68.831
1596.8800, -68.811
1596.9000, -68.869
1596.9200, -68.746
1596.9400, -68.955
1596.9600, -68.857
1596.9800, -68.825
1597.0000, -69.001
1597.0200, -68.976
1597.0400, -68.739
1597.0600, -68.926
1597.0800, -68.867
1597.1000, -68.935
1597.1200, -68.786
1597.1400, -68.752
1597.1600, -68.951
1597.1800, -68.774
1597.2000, -68.836
1597.2200, -68.799
1597.2400, -68.789
1597.2600, -68.998
1597.2800, -68.809
1597.3000, -68.831
1597.3200, -68.777
1597.3400, -68.913
1597.3600, -68.929
1597.3800, -68.938
1597.4000, -69.009
1597.4200, -68.987
1597.4400, -68.777
1597.4600, -68.881
1597.4800, -68.837
1597.5000, -68.902
1597.5200, -68.825
1597.5400, -69.023
1597.5600, -68.894
1597.5800, -68.884
1597.6000, -68.931
1597.6200, -69.001
1597.6400, -68.813
1597.6600, -68.998
1597.6800, -68.978
1597.7000, -68.811
1597.7200, -68.973
1597.7400, -68.818
1597.7600, -69.036
1597.7800, -68.939
1597.8000, -68.851
1597.8200, -68.983
1597.8400, -68.920
1597.8600, -69.069
1597.8800, -68.876
1597.9000, -68.875
1597.9200, -68.911
1597.9400, -68.888
1597.9600, -69.034
1597.9800, -69.018
1598.0000, -68.964
1598.0200, -69.111
1598.0400, -68.873
1598.0600, -68.912
1598.0800, -68.987
1598.1000, -69.070
1598.1200, -68.857
1598.1400, -68.831
1598.1600, -69.013
1598.1800, -69.031
1598.2000, -68.999
1598.2200, -69.080
1598.2400, -68.916
1598.2600, -69.065
1598.2800, -68.943
1598.3000, -69.084
1598.3200, -68.923
1598.3400, -69.178
1598.3600, -69.031
1598.3800, -69.143
1598.4000, -68.969
1598.4200, -69.066
1598.4400, -69.183
1598.4600, -69.163
1598.4800, -68.857
1598.5000, -69.035
1598.5200, -69.001
1598.5400, -69.047
1598.5600, -69.030
1598.5800, -69.009
1598.6000, -69.084
1598.6200, -69.017
1598.6400, -68.931
1598.6600, -69.000
1598.6800, -68.953
1598.7000, -68.945
1598.7200, -68.849
1598.7400, -68.960
1598.7600, -69.001
1598.7800, -69.082
1598.8000, -68.999
1598.8200, -69.093
1598.8400, -69.074
1598.8600, -69.051
1598.8800, -68.924
1598.9000, -69.190
1598.9200, -69.226
1598.9400, -69.094
1598.9600, -68.865
1598.9800, -69.124
1599.0000, -69.015
1599.0200, -69.218
1599.0400, -69.009
1599.0600, -69.283
1599.0800, -68.980
1599.1000, -69.173
1599.1200, -68.941
1599.1400, -69.140
1599.1600, -69.064
1599.1800, -69.128
1599.2000, -69.226
1599.2200, -68.937
1599.2400, -69.227
1599.2600, -69.230
1599.2800, -69.168
1599.3000, -69.038
1599.3200, -69.046
1599.3400, -69.115
1599.3600, -69.112
1599.3800, -69.169
1599.4000, -69.158
1599.4200, -68.980
1599.4400, -69.055
1599.4600, -68.959
1599.4800, -69.266
1599.5000, -69.321
1599.5200, -68.932
1599.5400, -69.249
1599.5600, -68.716
1599.5800, -69.156
1599.6000, -69.265
1599.6200, -69.028
1599.6400, -69.213
1599.6600, -69.215
1599.6800, -68.967
1599.7000, -69.202
1599.7200, -69.188
1599.7400, -69.293
1599.7600, -69.270
1599.7800, -68.954
1599.8000, -69.344
1599.8200, -69.251
1599.8400, -69.054
1599.8600, -69.259
1599.8800, -69.187
1599.9000, -68.945
1599.9200, -69.320
1599.9400, -69.196
1599.9600, -69.384
1599.9800, -69.081
1600.0000, -69.277
