70BCSV 	
// AQ6370B OPTICAL SPECTRUM ANALYZER //                 
25
"CTRWL",1550.000000
"SPAN", 100.000000
"START WL",1500.000000
"STOP WL",1600.000000
"WLFREQ", 0
"REFL",-28.8
"LSCL", 5.0
"RESLN",0.100
"AVG",   1
"SMPLAUTO",      0
"SMPL",       5001
"SMPLINTVL",0.0200
"HIGH1"
"MEAS"
"LSUNT",0
"NMSKH","OFF"
"RESCOR",0
"RESPARM", 9050
"FREQPARM", 9050






"[TRACE DATA]"
1500.0000, -62.401
1500.0200, -62.410
1500.0400, -62.400
1500.0600, -62.326
1500.0800, -62.437
1500.1000, -62.331
1500.1200, -62.397
1500.1400, -62.394
1500.1600, -62.333
1500.1800, -62.367
1500.2000, -62.356
1500.2200, -62.365
1500.2400, -62.319
1500.2600, -62.350
1500.2800, -62.322
1500.3000, -62.363
1500.3200, -62.369
1500.3400, -62.253
1500.3600, -62.376
1500.3800, -62.288
1500.4000, -62.306
1500.4200, -62.292
1500.4400, -62.261
1500.4600, -62.296
1500.4800, -62.263
1500.5000, -62.319
1500.5200, -62.252
1500.5400, -62.272
1500.5600, -62.285
1500.5800, -62.193
1500.6000, -62.232
1500.6200, -62.260
1500.6400, -62.218
1500.6600, -62.264
1500.6800, -62.171
1500.7000, -62.217
1500.7200, -62.198
1500.7400, -62.202
1500.7600, -62.159
1500.7800, -62.170
1500.8000, -62.193
1500.8200, -62.220
1500.8400, -62.168
1500.8600, -62.147
1500.8800, -62.180
1500.9000, -62.103
1500.9200, -62.153
1500.9400, -62.144
1500.9600, -62.178
1500.9800, -62.147
1501.0000, -62.152
1501.0200, -62.124
1501.0400, -62.090
1501.0600, -62.144
1501.0800, -62.129
1501.1000, -62.087
1501.1200, -62.100
1501.1400, -62.144
1501.1600, -62.120
1501.1800, -62.078
1501.2000, -62.052
1501.2200, -62.131
1501.2400, -62.055
1501.2600, -62.047
1501.2800, -62.071
1501.3000, -62.030
1501.3200, -62.050
1501.3400, -62.043
1501.3600, -62.031
1501.3800, -62.006
1501.4000, -62.041
1501.4200, -62.062
1501.4400, -61.992
1501.4600, -62.025
1501.4800, -62.024
1501.5000, -61.984
1501.5200, -61.991
1501.5400, -61.998
1501.5600, -61.950
1501.5800, -61.986
1501.6000, -61.958
1501.6200, -61.948
1501.6400, -61.955
1501.6600, -61.940
1501.6800, -61.964
1501.7000, -61.937
1501.7200, -61.938
1501.7400, -61.924
1501.7600, -61.916
1501.7800, -61.916
1501.8000, -61.932
1501.8200, -61.897
1501.8400, -61.975
1501.8600, -61.899
1501.8800, -61.901
1501.9000, -61.907
1501.9200, -61.882
1501.9400, -61.843
1501.9600, -61.859
1501.9800, -61.888
1502.0000, -61.860
1502.0200, -61.836
1502.0400, -61.861
1502.0600, -61.846
1502.0800, -61.834
1502.1000, -61.845
1502.1200, -61.822
1502.1400, -61.835
1502.1600, -61.815
1502.1800, -61.790
1502.2000, -61.796
1502.2200, -61.792
1502.2400, -61.760
1502.2600, -61.760
1502.2800, -61.760
1502.3000, -61.743
1502.3200, -61.787
1502.3400, -61.719
1502.3600, -61.730
1502.3800, -61.799
1502.4000, -61.723
1502.4200, -61.706
1502.4400, -61.682
1502.4600, -61.765
1502.4800, -61.680
1502.5000, -61.688
1502.5200, -61.723
1502.5400, -61.641
1502.5600, -61.637
1502.5800, -61.669
1502.6000, -61.666
1502.6200, -61.649
1502.6400, -61.667
1502.6600, -61.661
1502.6800, -61.655
1502.7000, -61.592
1502.7200, -61.606
1502.7400, -61.651
1502.7600, -61.638
1502.7800, -61.605
1502.8000, -61.623
1502.8200, -61.580
1502.8400, -61.557
1502.8600, -61.590
1502.8800, -61.596
1502.9000, -61.575
1502.9200, -61.568
1502.9400, -61.526
1502.9600, -61.534
1502.9800, -61.534
1503.0000, -61.558
1503.0200, -61.552
1503.0400, -61.545
1503.0600, -61.544
1503.0800, -61.543
1503.1000, -61.499
1503.1200, -61.506
1503.1400, -61.538
1503.1600, -61.476
1503.1800, -61.500
1503.2000, -61.474
1503.2200, -61.500
1503.2400, -61.453
1503.2600, -61.495
1503.2800, -61.434
1503.3000, -61.401
1503.3200, -61.465
1503.3400, -61.436
1503.3600, -61.473
1503.3800, -61.417
1503.4000, -61.423
1503.4200, -61.399
1503.4400, -61.345
1503.4600, -61.413
1503.4800, -61.377
1503.5000, -61.363
1503.5200, -61.364
1503.5400, -61.365
1503.5600, -61.360
1503.5800, -61.325
1503.6000, -61.348
1503.6200, -61.346
1503.6400, -61.343
1503.6600, -61.333
1503.6800, -61.322
1503.7000, -61.301
1503.7200, -61.270
1503.7400, -61.337
1503.7600, -61.290
1503.7800, -61.235
1503.8000, -61.276
1503.8200, -61.285
1503.8400, -61.252
1503.8600, -61.308
1503.8800, -61.269
1503.9000, -61.244
1503.9200, -61.221
1503.9400, -61.243
1503.9600, -61.238
1503.9800, -61.234
1504.0000, -61.221
1504.0200, -61.276
1504.0400, -61.220
1504.0600, -61.239
1504.0800, -61.202
1504.1000, -61.160
1504.1200, -61.210
1504.1400, -61.197
1504.1600, -61.099
1504.1800, -61.166
1504.2000, -61.147
1504.2200, -61.170
1504.2400, -61.118
1504.2600, -61.131
1504.2800, -61.116
1504.3000, -61.108
1504.3200, -61.102
1504.3400, -61.108
1504.3600, -61.110
1504.3800, -61.084
1504.4000, -61.085
1504.4200, -61.076
1504.4400, -61.039
1504.4600, -61.045
1504.4800, -61.015
1504.5000, -61.054
1504.5200, -61.046
1504.5400, -61.012
1504.5600, -60.995
1504.5800, -61.001
1504.6000, -61.037
1504.6200, -60.981
1504.6400, -60.964
1504.6600, -60.975
1504.6800, -60.958
1504.7000, -60.976
1504.7200, -60.975
1504.7400, -60.921
1504.7600, -60.955
1504.7800, -60.966
1504.8000, -60.926
1504.8200, -60.923
1504.8400, -60.953
1504.8600, -60.916
1504.8800, -60.896
1504.9000, -60.893
1504.9200, -60.896
1504.9400, -60.900
1504.9600, -60.853
1504.9800, -60.920
1505.0000, -60.843
1505.0200, -60.847
1505.0400, -60.863
1505.0600, -60.856
1505.0800, -60.821
1505.1000, -60.830
1505.1200, -60.823
1505.1400, -60.798
1505.1600, -60.806
1505.1800, -60.815
1505.2000, -60.768
1505.2200, -60.799
1505.2400, -60.765
1505.2600, -60.768
1505.2800, -60.757
1505.3000, -60.765
1505.3200, -60.725
1505.3400, -60.728
1505.3600, -60.713
1505.3800, -60.697
1505.4000, -60.707
1505.4200, -60.699
1505.4400, -60.680
1505.4600, -60.683
1505.4800, -60.664
1505.5000, -60.669
1505.5200, -60.651
1505.5400, -60.646
1505.5600, -60.650
1505.5800, -60.620
1505.6000, -60.662
1505.6200, -60.645
1505.6400, -60.610
1505.6600, -60.609
1505.6800, -60.600
1505.7000, -60.586
1505.7200, -60.593
1505.7400, -60.575
1505.7600, -60.591
1505.7800, -60.574
1505.8000, -60.555
1505.8200, -60.558
1505.8400, -60.570
1505.8600, -60.517
1505.8800, -60.568
1505.9000, -60.509
1505.9200, -60.539
1505.9400, -60.539
1505.9600, -60.510
1505.9800, -60.489
1506.0000, -60.517
1506.0200, -60.477
1506.0400, -60.475
1506.0600, -60.492
1506.0800, -60.445
1506.1000, -60.446
1506.1200, -60.441
1506.1400, -60.444
1506.1600, -60.428
1506.1800, -60.416
1506.2000, -60.413
1506.2200, -60.401
1506.2400, -60.399
1506.2600, -60.396
1506.2800, -60.395
1506.3000, -60.384
1506.3200, -60.355
1506.3400, -60.357
1506.3600, -60.347
1506.3800, -60.341
1506.4000, -60.300
1506.4200, -60.312
1506.4400, -60.338
1506.4600, -60.297
1506.4800, -60.302
1506.5000, -60.307
1506.5200, -60.279
1506.5400, -60.275
1506.5600, -60.282
1506.5800, -60.249
1506.6000, -60.275
1506.6200, -60.216
1506.6400, -60.257
1506.6600, -60.221
1506.6800, -60.222
1506.7000, -60.241
1506.7200, -60.203
1506.7400, -60.206
1506.7600, -60.198
1506.7800, -60.190
1506.8000, -60.224
1506.8200, -60.149
1506.8400, -60.181
1506.8600, -60.154
1506.8800, -60.158
1506.9000, -60.182
1506.9200, -60.145
1506.9400, -60.137
1506.9600, -60.113
1506.9800, -60.143
1507.0000, -60.100
1507.0200, -60.095
1507.0400, -60.087
1507.0600, -60.110
1507.0800, -60.037
1507.1000, -60.082
1507.1200, -60.079
1507.1400, -60.074
1507.1600, -60.042
1507.1800, -60.022
1507.2000, -60.038
1507.2200, -60.042
1507.2400, -60.026
1507.2600, -60.020
1507.2800, -59.987
1507.3000, -59.995
1507.3200, -59.993
1507.3400, -59.969
1507.3600, -59.969
1507.3800, -59.959
1507.4000, -59.936
1507.4200, -59.960
1507.4400, -59.931
1507.4600, -59.922
1507.4800, -59.916
1507.5000, -59.911
1507.5200, -59.907
1507.5400, -59.905
1507.5600, -59.871
1507.5800, -59.860
1507.6000, -59.851
1507.6200, -59.872
1507.6400, -59.818
1507.6600, -59.865
1507.6800, -59.845
1507.7000, -59.808
1507.7200, -59.817
1507.7400, -59.816
1507.7600, -59.789
1507.7800, -59.786
1507.8000, -59.817
1507.8200, -59.776
1507.8400, -59.777
1507.8600, -59.791
1507.8800, -59.776
1507.9000, -59.764
1507.9200, -59.739
1507.9400, -59.742
1507.9600, -59.743
1507.9800, -59.720
1508.0000, -59.718
1508.0200, -59.714
1508.0400, -59.699
1508.0600, -59.666
1508.0800, -59.679
1508.1000, -59.696
1508.1200, -59.657
1508.1400, -59.656
1508.1600, -59.648
1508.1800, -59.620
1508.2000, -59.646
1508.2200, -59.619
1508.2400, -59.603
1508.2600, -59.607
1508.2800, -59.586
1508.3000, -59.608
1508.3200, -59.579
1508.3400, -59.558
1508.3600, -59.559
1508.3800, -59.560
1508.4000, -59.542
1508.4200, -59.555
1508.4400, -59.515
1508.4600, -59.534
1508.4800, -59.503
1508.5000, -59.530
1508.5200, -59.496
1508.5400, -59.469
1508.5600, -59.504
1508.5800, -59.474
1508.6000, -59.448
1508.6200, -59.463
1508.6400, -59.463
1508.6600, -59.480
1508.6800, -59.428
1508.7000, -59.421
1508.7200, -59.432
1508.7400, -59.415
1508.7600, -59.406
1508.7800, -59.415
1508.8000, -59.433
1508.8200, -59.420
1508.8400, -59.388
1508.8600, -59.398
1508.8800, -59.377
1508.9000, -59.352
1508.9200, -59.347
1508.9400, -59.339
1508.9600, -59.315
1508.9800, -59.317
1509.0000, -59.330
1509.0200, -59.282
1509.0400, -59.288
1509.0600, -59.283
1509.0800, -59.272
1509.1000, -59.265
1509.1200, -59.278
1509.1400, -59.246
1509.1600, -59.243
1509.1800, -59.260
1509.2000, -59.183
1509.2200, -59.207
1509.2400, -59.203
1509.2600, -59.189
1509.2800, -59.176
1509.3000, -59.167
1509.3200, -59.172
1509.3400, -59.166
1509.3600, -59.157
1509.3800, -59.129
1509.4000, -59.126
1509.4200, -59.127
1509.4400, -59.098
1509.4600, -59.096
1509.4800, -59.108
1509.5000, -59.096
1509.5200, -59.063
1509.5400, -59.055
1509.5600, -59.057
1509.5800, -59.061
1509.6000, -59.047
1509.6200, -59.050
1509.6400, -59.002
1509.6600, -59.030
1509.6800, -59.007
1509.7000, -59.022
1509.7200, -59.023
1509.7400, -58.982
1509.7600, -59.023
1509.7800, -59.000
1509.8000, -58.965
1509.8200, -58.961
1509.8400, -58.946
1509.8600, -58.940
1509.8800, -58.925
1509.9000, -58.939
1509.9200, -58.908
1509.9400, -58.907
1509.9600, -58.892
1509.9800, -58.868
1510.0000, -58.889
1510.0200, -58.858
1510.0400, -58.855
1510.0600, -58.847
1510.0800, -58.866
1510.1000, -58.829
1510.1200, -58.817
1510.1400, -58.802
1510.1600, -58.797
1510.1800, -58.790
1510.2000, -58.791
1510.2200, -58.753
1510.2400, -58.757
1510.2600, -58.721
1510.2800, -58.716
1510.3000, -58.726
1510.3200, -58.727
1510.3400, -58.706
1510.3600, -58.687
1510.3800, -58.676
1510.4000, -58.658
1510.4200, -58.661
1510.4400, -58.640
1510.4600, -58.638
1510.4800, -58.618
1510.5000, -58.617
1510.5200, -58.609
1510.5400, -58.602
1510.5600, -58.605
1510.5800, -58.577
1510.6000, -58.566
1510.6200, -58.564
1510.6400, -58.566
1510.6600, -58.550
1510.6800, -58.563
1510.7000, -58.523
1510.7200, -58.516
1510.7400, -58.508
1510.7600, -58.537
1510.7800, -58.470
1510.8000, -58.498
1510.8200, -58.463
1510.8400, -58.447
1510.8600, -58.443
1510.8800, -58.405
1510.9000, -58.434
1510.9200, -58.425
1510.9400, -58.391
1510.9600, -58.373
1510.9800, -58.395
1511.0000, -58.380
1511.0200, -58.361
1511.0400, -58.344
1511.0600, -58.345
1511.0800, -58.342
1511.1000, -58.312
1511.1200, -58.296
1511.1400, -58.283
1511.1600, -58.275
1511.1800, -58.256
1511.2000, -58.261
1511.2200, -58.244
1511.2400, -58.237
1511.2600, -58.221
1511.2800, -58.199
1511.3000, -58.229
1511.3200, -58.190
1511.3400, -58.190
1511.3600, -58.170
1511.3800, -58.154
1511.4000, -58.140
1511.4200, -58.123
1511.4400, -58.130
1511.4600, -58.112
1511.4800, -58.109
1511.5000, -58.091
1511.5200, -58.096
1511.5400, -58.079
1511.5600, -58.050
1511.5800, -58.055
1511.6000, -58.067
1511.6200, -58.027
1511.6400, -58.054
1511.6600, -58.038
1511.6800, -57.999
1511.7000, -57.994
1511.7200, -58.001
1511.7400, -57.985
1511.7600, -57.963
1511.7800, -57.947
1511.8000, -57.944
1511.8200, -57.920
1511.8400, -57.907
1511.8600, -57.892
1511.8800, -57.894
1511.9000, -57.873
1511.9200, -57.863
1511.9400, -57.863
1511.9600, -57.856
1511.9800, -57.839
1512.0000, -57.834
1512.0200, -57.830
1512.0400, -57.805
1512.0600, -57.782
1512.0800, -57.765
1512.1000, -57.764
1512.1200, -57.748
1512.1400, -57.717
1512.1600, -57.747
1512.1800, -57.719
1512.2000, -57.703
1512.2200, -57.699
1512.2400, -57.702
1512.2600, -57.690
1512.2800, -57.671
1512.3000, -57.654
1512.3200, -57.633
1512.3400, -57.641
1512.3600, -57.614
1512.3800, -57.599
1512.4000, -57.608
1512.4200, -57.610
1512.4400, -57.607
1512.4600, -57.572
1512.4800, -57.561
1512.5000, -57.557
1512.5200, -57.540
1512.5400, -57.542
1512.5600, -57.527
1512.5800, -57.512
1512.6000, -57.502
1512.6200, -57.496
1512.6400, -57.483
1512.6600, -57.468
1512.6800, -57.456
1512.7000, -57.448
1512.7200, -57.447
1512.7400, -57.400
1512.7600, -57.407
1512.7800, -57.405
1512.8000, -57.386
1512.8200, -57.358
1512.8400, -57.370
1512.8600, -57.332
1512.8800, -57.354
1512.9000, -57.339
1512.9200, -57.322
1512.9400, -57.325
1512.9600, -57.306
1512.9800, -57.266
1513.0000, -57.270
1513.0200, -57.250
1513.0400, -57.225
1513.0600, -57.244
1513.0800, -57.208
1513.1000, -57.214
1513.1200, -57.184
1513.1400, -57.175
1513.1600, -57.195
1513.1800, -57.170
1513.2000, -57.164
1513.2200, -57.139
1513.2400, -57.118
1513.2600, -57.116
1513.2800, -57.106
1513.3000, -57.096
1513.3200, -57.078
1513.3400, -57.063
1513.3600, -57.073
1513.3800, -57.053
1513.4000, -57.033
1513.4200, -57.025
1513.4400, -57.022
1513.4600, -57.000
1513.4800, -56.987
1513.5000, -56.992
1513.5200, -56.985
1513.5400, -56.968
1513.5600, -56.960
1513.5800, -56.956
1513.6000, -56.939
1513.6200, -56.910
1513.6400, -56.911
1513.6600, -56.897
1513.6800, -56.865
1513.7000, -56.849
1513.7200, -56.838
1513.7400, -56.831
1513.7600, -56.829
1513.7800, -56.808
1513.8000, -56.790
1513.8200, -56.797
1513.8400, -56.772
1513.8600, -56.770
1513.8800, -56.753
1513.9000, -56.746
1513.9200, -56.725
1513.9400, -56.710
1513.9600, -56.683
1513.9800, -56.685
1514.0000, -56.665
1514.0200, -56.647
1514.0400, -56.646
1514.0600, -56.638
1514.0800, -56.613
1514.1000, -56.611
1514.1200, -56.585
1514.1400, -56.577
1514.1600, -56.585
1514.1800, -56.571
1514.2000, -56.542
1514.2200, -56.518
1514.2400, -56.514
1514.2600, -56.503
1514.2800, -56.494
1514.3000, -56.477
1514.3200, -56.476
1514.3400, -56.463
1514.3600, -56.442
1514.3800, -56.432
1514.4000, -56.418
1514.4200, -56.411
1514.4400, -56.407
1514.4600, -56.401
1514.4800, -56.378
1514.5000, -56.392
1514.5200, -56.373
1514.5400, -56.343
1514.5600, -56.333
1514.5800, -56.309
1514.6000, -56.292
1514.6200, -56.304
1514.6400, -56.268
1514.6600, -56.259
1514.6800, -56.253
1514.7000, -56.223
1514.7200, -56.216
1514.7400, -56.202
1514.7600, -56.177
1514.7800, -56.185
1514.8000, -56.161
1514.8200, -56.165
1514.8400, -56.154
1514.8600, -56.134
1514.8800, -56.117
1514.9000, -56.103
1514.9200, -56.082
1514.9400, -56.063
1514.9600, -56.053
1514.9800, -56.027
1515.0000, -56.019
1515.0200, -56.008
1515.0400, -56.004
1515.0600, -56.011
1515.0800, -55.963
1515.1000, -55.973
1515.1200, -55.960
1515.1400, -55.922
1515.1600, -55.922
1515.1800, -55.905
1515.2000, -55.865
1515.2200, -55.889
1515.2400, -55.852
1515.2600, -55.861
1515.2800, -55.834
1515.3000, -55.814
1515.3200, -55.803
1515.3400, -55.804
1515.3600, -55.787
1515.3800, -55.770
1515.4000, -55.769
1515.4200, -55.773
1515.4400, -55.740
1515.4600, -55.729
1515.4800, -55.722
1515.5000, -55.691
1515.5200, -55.678
1515.5400, -55.662
1515.5600, -55.633
1515.5800, -55.635
1515.6000, -55.616
1515.6200, -55.600
1515.6400, -55.583
1515.6600, -55.571
1515.6800, -55.552
1515.7000, -55.539
1515.7200, -55.537
1515.7400, -55.509
1515.7600, -55.515
1515.7800, -55.490
1515.8000, -55.478
1515.8200, -55.458
1515.8400, -55.436
1515.8600, -55.430
1515.8800, -55.408
1515.9000, -55.384
1515.9200, -55.369
1515.9400, -55.350
1515.9600, -55.347
1515.9800, -55.331
1516.0000, -55.318
1516.0200, -55.311
1516.0400, -55.280
1516.0600, -55.283
1516.0800, -55.253
1516.1000, -55.240
1516.1200, -55.220
1516.1400, -55.200
1516.1600, -55.179
1516.1800, -55.176
1516.2000, -55.167
1516.2200, -55.155
1516.2400, -55.139
1516.2600, -55.118
1516.2800, -55.112
1516.3000, -55.094
1516.3200, -55.087
1516.3400, -55.086
1516.3600, -55.048
1516.3800, -55.040
1516.4000, -55.038
1516.4200, -55.018
1516.4400, -55.000
1516.4600, -54.974
1516.4800, -54.969
1516.5000, -54.943
1516.5200, -54.893
1516.5400, -54.897
1516.5600, -54.883
1516.5800, -54.870
1516.6000, -54.845
1516.6200, -54.834
1516.6400, -54.813
1516.6600, -54.795
1516.6800, -54.781
1516.7000, -54.777
1516.7200, -54.763
1516.7400, -54.748
1516.7600, -54.698
1516.7800, -54.685
1516.8000, -54.677
1516.8200, -54.671
1516.8400, -54.644
1516.8600, -54.631
1516.8800, -54.602
1516.9000, -54.594
1516.9200, -54.574
1516.9400, -54.565
1516.9600, -54.544
1516.9800, -54.528
1517.0000, -54.514
1517.0200, -54.501
1517.0400, -54.471
1517.0600, -54.442
1517.0800, -54.436
1517.1000, -54.424
1517.1200, -54.385
1517.1400, -54.386
1517.1600, -54.383
1517.1800, -54.356
1517.2000, -54.335
1517.2200, -54.307
1517.2400, -54.302
1517.2600, -54.288
1517.2800, -54.277
1517.3000, -54.260
1517.3200, -54.258
1517.3400, -54.238
1517.3600, -54.206
1517.3800, -54.200
1517.4000, -54.176
1517.4200, -54.166
1517.4400, -54.138
1517.4600, -54.101
1517.4800, -54.073
1517.5000, -54.067
1517.5200, -54.051
1517.5400, -54.043
1517.5600, -54.016
1517.5800, -53.991
1517.6000, -53.982
1517.6200, -53.959
1517.6400, -53.946
1517.6600, -53.930
1517.6800, -53.906
1517.7000, -53.886
1517.7200, -53.844
1517.7400, -53.833
1517.7600, -53.825
1517.7800, -53.796
1517.8000, -53.762
1517.8200, -53.756
1517.8400, -53.736
1517.8600, -53.722
1517.8800, -53.704
1517.9000, -53.684
1517.9200, -53.655
1517.9400, -53.642
1517.9600, -53.634
1517.9800, -53.594
1518.0000, -53.567
1518.0200, -53.556
1518.0400, -53.543
1518.0600, -53.507
1518.0800, -53.506
1518.1000, -53.489
1518.1200, -53.467
1518.1400, -53.440
1518.1600, -53.427
1518.1800, -53.404
1518.2000, -53.385
1518.2200, -53.373
1518.2400, -53.365
1518.2600, -53.347
1518.2800, -53.318
1518.3000, -53.314
1518.3200, -53.275
1518.3400, -53.267
1518.3600, -53.227
1518.3800, -53.218
1518.4000, -53.173
1518.4200, -53.158
1518.4400, -53.138
1518.4600, -53.112
1518.4800, -53.081
1518.5000, -53.072
1518.5200, -53.043
1518.5400, -53.024
1518.5600, -53.009
1518.5800, -52.986
1518.6000, -52.973
1518.6200, -52.934
1518.6400, -52.913
1518.6600, -52.880
1518.6800, -52.865
1518.7000, -52.839
1518.7200, -52.818
1518.7400, -52.797
1518.7600, -52.768
1518.7800, -52.753
1518.8000, -52.727
1518.8200, -52.719
1518.8400, -52.678
1518.8600, -52.644
1518.8800, -52.641
1518.9000, -52.623
1518.9200, -52.595
1518.9400, -52.566
1518.9600, -52.547
1518.9800, -52.521
1519.0000, -52.505
1519.0200, -52.475
1519.0400, -52.462
1519.0600, -52.448
1519.0800, -52.414
1519.1000, -52.384
1519.1200, -52.373
1519.1400, -52.349
1519.1600, -52.331
1519.1800, -52.301
1519.2000, -52.279
1519.2200, -52.262
1519.2400, -52.239
1519.2600, -52.199
1519.2800, -52.186
1519.3000, -52.156
1519.3200, -52.135
1519.3400, -52.107
1519.3600, -52.072
1519.3800, -52.043
1519.4000, -52.023
1519.4200, -51.984
1519.4400, -51.971
1519.4600, -51.945
1519.4800, -51.912
1519.5000, -51.896
1519.5200, -51.868
1519.5400, -51.841
1519.5600, -51.814
1519.5800, -51.793
1519.6000, -51.753
1519.6200, -51.734
1519.6400, -51.703
1519.6600, -51.676
1519.6800, -51.648
1519.7000, -51.616
1519.7200, -51.598
1519.7400, -51.570
1519.7600, -51.541
1519.7800, -51.508
1519.8000, -51.478
1519.8200, -51.459
1519.8400, -51.432
1519.8600, -51.411
1519.8800, -51.375
1519.9000, -51.351
1519.9200, -51.313
1519.9400, -51.300
1519.9600, -51.279
1519.9800, -51.251
1520.0000, -51.222
1520.0200, -51.188
1520.0400, -51.156
1520.0600, -51.133
1520.0800, -51.113
1520.1000, -51.092
1520.1200, -51.059
1520.1400, -51.057
1520.1600, -51.015
1520.1800, -50.997
1520.2000, -50.947
1520.2200, -50.924
1520.2400, -50.889
1520.2600, -50.868
1520.2800, -50.822
1520.3000, -50.787
1520.3200, -50.754
1520.3400, -50.717
1520.3600, -50.685
1520.3800, -50.660
1520.4000, -50.627
1520.4200, -50.601
1520.4400, -50.577
1520.4600, -50.556
1520.4800, -50.506
1520.5000, -50.484
1520.5200, -50.452
1520.5400, -50.412
1520.5600, -50.381
1520.5800, -50.338
1520.6000, -50.315
1520.6200, -50.277
1520.6400, -50.245
1520.6600, -50.219
1520.6800, -50.192
1520.7000, -50.175
1520.7200, -50.118
1520.7400, -50.079
1520.7600, -50.075
1520.7800, -50.031
1520.8000, -49.992
1520.8200, -49.946
1520.8400, -49.922
1520.8600, -49.874
1520.8800, -49.848
1520.9000, -49.834
1520.9200, -49.801
1520.9400, -49.764
1520.9600, -49.724
1520.9800, -49.685
1521.0000, -49.664
1521.0200, -49.639
1521.0400, -49.611
1521.0600, -49.579
1521.0800, -49.554
1521.1000, -49.506
1521.1200, -49.495
1521.1400, -49.428
1521.1600, -49.410
1521.1800, -49.375
1521.2000, -49.337
1521.2200, -49.291
1521.2400, -49.259
1521.2600, -49.215
1521.2800, -49.171
1521.3000, -49.139
1521.3200, -49.111
1521.3400, -49.065
1521.3600, -49.040
1521.3800, -49.013
1521.4000, -48.985
1521.4200, -48.935
1521.4400, -48.912
1521.4600, -48.862
1521.4800, -48.820
1521.5000, -48.773
1521.5200, -48.728
1521.5400, -48.703
1521.5600, -48.663
1521.5800, -48.632
1521.6000, -48.605
1521.6200, -48.571
1521.6400, -48.543
1521.6600, -48.483
1521.6800, -48.448
1521.7000, -48.434
1521.7200, -48.381
1521.7400, -48.343
1521.7600, -48.292
1521.7800, -48.256
1521.8000, -48.210
1521.8200, -48.186
1521.8400, -48.164
1521.8600, -48.130
1521.8800, -48.087
1521.9000, -48.044
1521.9200, -47.999
1521.9400, -47.973
1521.9600, -47.939
1521.9800, -47.906
1522.0000, -47.879
1522.0200, -47.837
1522.0400, -47.796
1522.0600, -47.778
1522.0800, -47.711
1522.1000, -47.690
1522.1200, -47.655
1522.1400, -47.611
1522.1600, -47.560
1522.1800, -47.528
1522.2000, -47.480
1522.2200, -47.435
1522.2400, -47.396
1522.2600, -47.364
1522.2800, -47.316
1522.3000, -47.288
1522.3200, -47.255
1522.3400, -47.222
1522.3600, -47.177
1522.3800, -47.141
1522.4000, -47.092
1522.4200, -47.049
1522.4400, -46.998
1522.4600, -46.959
1522.4800, -46.925
1522.5000, -46.882
1522.5200, -46.850
1522.5400, -46.816
1522.5600, -46.780
1522.5800, -46.735
1522.6000, -46.674
1522.6200, -46.648
1522.6400, -46.619
1522.6600, -46.578
1522.6800, -46.532
1522.7000, -46.490
1522.7200, -46.448
1522.7400, -46.405
1522.7600, -46.377
1522.7800, -46.345
1522.8000, -46.311
1522.8200, -46.266
1522.8400, -46.227
1522.8600, -46.191
1522.8800, -46.157
1522.9000, -46.127
1522.9200, -46.090
1522.9400, -46.054
1522.9600, -46.008
1522.9800, -45.974
1523.0000, -45.940
1523.0200, -45.891
1523.0400, -45.864
1523.0600, -45.823
1523.0800, -45.776
1523.1000, -45.724
1523.1200, -45.688
1523.1400, -45.649
1523.1600, -45.600
1523.1800, -45.568
1523.2000, -45.531
1523.2200, -45.487
1523.2400, -45.455
1523.2600, -45.413
1523.2800, -45.365
1523.3000, -45.325
1523.3200, -45.294
1523.3400, -45.244
1523.3600, -45.209
1523.3800, -45.161
1523.4000, -45.121
1523.4200, -45.089
1523.4400, -45.043
1523.4600, -45.013
1523.4800, -44.974
1523.5000, -44.933
1523.5200, -44.885
1523.5400, -44.847
1523.5600, -44.809
1523.5800, -44.777
1523.6000, -44.738
1523.6200, -44.694
1523.6400, -44.658
1523.6600, -44.618
1523.6800, -44.588
1523.7000, -44.551
1523.7200, -44.511
1523.7400, -44.474
1523.7600, -44.436
1523.7800, -44.396
1523.8000, -44.365
1523.8200, -44.336
1523.8400, -44.300
1523.8600, -44.258
1523.8800, -44.217
1523.9000, -44.179
1523.9200, -44.141
1523.9400, -44.101
1523.9600, -44.067
1523.9800, -44.025
1524.0000, -43.997
1524.0200, -43.953
1524.0400, -43.913
1524.0600, -43.867
1524.0800, -43.830
1524.1000, -43.785
1524.1200, -43.757
1524.1400, -43.715
1524.1600, -43.682
1524.1800, -43.645
1524.2000, -43.608
1524.2200, -43.569
1524.2400, -43.522
1524.2600, -43.483
1524.2800, -43.441
1524.3000, -43.413
1524.3200, -43.367
1524.3400, -43.331
1524.3600, -43.290
1524.3800, -43.252
1524.4000, -43.219
1524.4200, -43.189
1524.4400, -43.144
1524.4600, -43.105
1524.4800, -43.076
1524.5000, -43.038
1524.5200, -43.002
1524.5400, -42.961
1524.5600, -42.919
1524.5800, -42.888
1524.6000, -42.854
1524.6200, -42.816
1524.6400, -42.782
1524.6600, -42.755
1524.6800, -42.712
1524.7000, -42.676
1524.7200, -42.642
1524.7400, -42.610
1524.7600, -42.572
1524.7800, -42.547
1524.8000, -42.504
1524.8200, -42.470
1524.8400, -42.433
1524.8600, -42.391
1524.8800, -42.361
1524.9000, -42.327
1524.9200, -42.279
1524.9400, -42.246
1524.9600, -42.206
1524.9800, -42.173
1525.0000, -42.142
1525.0200, -42.093
1525.0400, -42.054
1525.0600, -42.023
1525.0800, -41.976
1525.1000, -41.947
1525.1200, -41.914
1525.1400, -41.877
1525.1600, -41.840
1525.1800, -41.799
1525.2000, -41.750
1525.2200, -41.722
1525.2400, -41.694
1525.2600, -41.649
1525.2800, -41.622
1525.3000, -41.577
1525.3200, -41.547
1525.3400, -41.513
1525.3600, -41.483
1525.3800, -41.437
1525.4000, -41.397
1525.4200, -41.365
1525.4400, -41.334
1525.4600, -41.293
1525.4800, -41.252
1525.5000, -41.214
1525.5200, -41.174
1525.5400, -41.149
1525.5600, -41.111
1525.5800, -41.077
1525.6000, -41.054
1525.6200, -41.019
1525.6400, -40.977
1525.6600, -40.949
1525.6800, -40.912
1525.7000, -40.878
1525.7200, -40.848
1525.7400, -40.808
1525.7600, -40.772
1525.7800, -40.736
1525.8000, -40.701
1525.8200, -40.669
1525.8400, -40.621
1525.8600, -40.595
1525.8800, -40.551
1525.9000, -40.517
1525.9200, -40.476
1525.9400, -40.447
1525.9600, -40.399
1525.9800, -40.370
1526.0000, -40.336
1526.0200, -40.298
1526.0400, -40.266
1526.0600, -40.234
1526.0800, -40.197
1526.1000, -40.155
1526.1200, -40.127
1526.1400, -40.080
1526.1600, -40.052
1526.1800, -40.000
1526.2000, -39.965
1526.2200, -39.933
1526.2400, -39.891
1526.2600, -39.860
1526.2800, -39.839
1526.3000, -39.799
1526.3200, -39.755
1526.3400, -39.716
1526.3600, -39.692
1526.3800, -39.668
1526.4000, -39.629
1526.4200, -39.585
1526.4400, -39.558
1526.4600, -39.522
1526.4800, -39.505
1526.5000, -39.465
1526.5200, -39.428
1526.5400, -39.395
1526.5600, -39.360
1526.5800, -39.325
1526.6000, -39.295
1526.6200, -39.267
1526.6400, -39.242
1526.6600, -39.204
1526.6800, -39.172
1526.7000, -39.140
1526.7200, -39.105
1526.7400, -39.069
1526.7600, -39.045
1526.7800, -39.004
1526.8000, -38.972
1526.8200, -38.918
1526.8400, -38.880
1526.8600, -38.858
1526.8800, -38.808
1526.9000, -38.774
1526.9200, -38.754
1526.9400, -38.698
1526.9600, -38.673
1526.9800, -38.640
1527.0000, -38.600
1527.0200, -38.554
1527.0400, -38.533
1527.0600, -38.473
1527.0800, -38.457
1527.1000, -38.423
1527.1200, -38.372
1527.1400, -38.349
1527.1600, -38.295
1527.1800, -38.274
1527.2000, -38.246
1527.2200, -38.212
1527.2400, -38.170
1527.2600, -38.125
1527.2800, -38.105
1527.3000, -38.078
1527.3200, -38.040
1527.3400, -37.996
1527.3600, -37.971
1527.3800, -37.935
1527.4000, -37.919
1527.4200, -37.889
1527.4400, -37.848
1527.4600, -37.814
1527.4800, -37.772
1527.5000, -37.732
1527.5200, -37.703
1527.5400, -37.681
1527.5600, -37.651
1527.5800, -37.592
1527.6000, -37.573
1527.6200, -37.551
1527.6400, -37.510
1527.6600, -37.467
1527.6800, -37.415
1527.7000, -37.381
1527.7200, -37.373
1527.7400, -37.320
1527.7600, -37.280
1527.7800, -37.249
1527.8000, -37.198
1527.8200, -37.160
1527.8400, -37.131
1527.8600, -37.085
1527.8800, -37.051
1527.9000, -37.026
1527.9200, -36.991
1527.9400, -36.924
1527.9600, -36.903
1527.9800, -36.859
1528.0000, -36.812
1528.0200, -36.783
1528.0400, -36.721
1528.0600, -36.697
1528.0800, -36.653
1528.1000, -36.614
1528.1200, -36.595
1528.1400, -36.554
1528.1600, -36.508
1528.1800, -36.456
1528.2000, -36.421
1528.2200, -36.409
1528.2400, -36.380
1528.2600, -36.333
1528.2800, -36.283
1528.3000, -36.256
1528.3200, -36.222
1528.3400, -36.208
1528.3600, -36.169
1528.3800, -36.135
1528.4000, -36.106
1528.4200, -36.069
1528.4400, -36.031
1528.4600, -36.016
1528.4800, -35.990
1528.5000, -35.958
1528.5200, -35.927
1528.5400, -35.912
1528.5600, -35.881
1528.5800, -35.841
1528.6000, -35.791
1528.6200, -35.750
1528.6400, -35.754
1528.6600, -35.708
1528.6800, -35.641
1528.7000, -35.639
1528.7200, -35.591
1528.7400, -35.533
1528.7600, -35.504
1528.7800, -35.476
1528.8000, -35.421
1528.8200, -35.398
1528.8400, -35.368
1528.8600, -35.311
1528.8800, -35.275
1528.9000, -35.261
1528.9200, -35.193
1528.9400, -35.176
1528.9600, -35.114
1528.9800, -35.067
1529.0000, -35.045
1529.0200, -34.993
1529.0400, -34.977
1529.0600, -34.950
1529.0800, -34.914
1529.1000, -34.851
1529.1200, -34.807
1529.1400, -34.784
1529.1600, -34.762
1529.1800, -34.720
1529.2000, -34.660
1529.2200, -34.638
1529.2400, -34.586
1529.2600, -34.573
1529.2800, -34.518
1529.3000, -34.493
1529.3200, -34.451
1529.3400, -34.403
1529.3600, -34.362
1529.3800, -34.345
1529.4000, -34.311
1529.4200, -34.281
1529.4400, -34.232
1529.4600, -34.175
1529.4800, -34.169
1529.5000, -34.136
1529.5200, -34.091
1529.5400, -34.094
1529.5600, -34.030
1529.5800, -34.022
1529.6000, -33.969
1529.6200, -33.917
1529.6400, -33.898
1529.6600, -33.830
1529.6800, -33.806
1529.7000, -33.771
1529.7200, -33.726
1529.7400, -33.701
1529.7600, -33.677
1529.7800, -33.624
1529.8000, -33.547
1529.8200, -33.536
1529.8400, -33.483
1529.8600, -33.445
1529.8800, -33.430
1529.9000, -33.367
1529.9200, -33.330
1529.9400, -33.290
1529.9600, -33.257
1529.9800, -33.216
1530.0000, -33.178
1530.0200, -33.130
1530.0400, -33.084
1530.0600, -33.056
1530.0800, -33.029
1530.1000, -32.982
1530.1200, -32.929
1530.1400, -32.891
1530.1600, -32.823
1530.1800, -32.826
1530.2000, -32.796
1530.2200, -32.765
1530.2400, -32.773
1530.2600, -32.745
1530.2800, -32.717
1530.3000, -32.699
1530.3200, -32.658
1530.3400, -32.620
1530.3600, -32.588
1530.3800, -32.558
1530.4000, -32.523
1530.4200, -32.465
1530.4400, -32.427
1530.4600, -32.331
1530.4800, -32.317
1530.5000, -32.303
1530.5200, -32.232
1530.5400, -32.185
1530.5600, -32.181
1530.5800, -32.123
1530.6000, -32.056
1530.6200, -32.034
1530.6400, -32.009
1530.6600, -31.950
1530.6800, -31.938
1530.7000, -31.942
1530.7200, -31.890
1530.7400, -31.914
1530.7600, -31.845
1530.7800, -31.820
1530.8000, -31.809
1530.8200, -31.762
1530.8400, -31.703
1530.8600, -31.703
1530.8800, -31.634
1530.9000, -31.629
1530.9200, -31.644
1530.9400, -31.581
1530.9600, -31.560
1530.9800, -31.555
1531.0000, -31.572
1531.0200, -31.556
1531.0400, -31.484
1531.0600, -31.481
1531.0800, -31.438
1531.1000, -31.445
1531.1200, -31.411
1531.1400, -31.373
1531.1600, -31.351
1531.1800, -31.297
1531.2000, -31.262
1531.2200, -31.236
1531.2400, -31.181
1531.2600, -31.187
1531.2800, -31.121
1531.3000, -31.071
1531.3200, -31.038
1531.3400, -30.995
1531.3600, -30.961
1531.3800, -30.964
1531.4000, -30.917
1531.4200, -30.943
1531.4400, -30.883
1531.4600, -30.875
1531.4800, -30.820
1531.5000, -30.790
1531.5200, -30.760
1531.5400, -30.735
1531.5600, -30.732
1531.5800, -30.700
1531.6000, -30.692
1531.6200, -30.719
1531.6400, -30.706
1531.6600, -30.675
1531.6800, -30.641
1531.7000, -30.586
1531.7200, -30.561
1531.7400, -30.492
1531.7600, -30.455
1531.7800, -30.455
1531.8000, -30.426
1531.8200, -30.427
1531.8400, -30.440
1531.8600, -30.377
1531.8800, -30.316
1531.9000, -30.315
1531.9200, -30.355
1531.9400, -30.380
1531.9600, -30.334
1531.9800, -30.350
1532.0000, -30.362
1532.0200, -30.368
1532.0400, -30.439
1532.0600, -30.477
1532.0800, -30.509
1532.1000, -30.519
1532.1200, -30.540
1532.1400, -30.560
1532.1600, -30.606
1532.1800, -30.644
1532.2000, -30.620
1532.2200, -30.631
1532.2400, -30.652
1532.2600, -30.659
1532.2800, -30.655
1532.3000, -30.664
1532.3200, -30.705
1532.3400, -30.689
1532.3600, -30.665
1532.3800, -30.620
1532.4000, -30.650
1532.4200, -30.664
1532.4400, -30.650
1532.4600, -30.621
1532.4800, -30.619
1532.5000, -30.622
1532.5200, -30.634
1532.5400, -30.719
1532.5600, -30.740
1532.5800, -30.786
1532.6000, -30.823
1532.6200, -30.769
1532.6400, -30.815
1532.6600, -30.770
1532.6800, -30.775
1532.7000, -30.766
1532.7200, -30.753
1532.7400, -30.781
1532.7600, -30.837
1532.7800, -30.818
1532.8000, -30.801
1532.8200, -30.823
1532.8400, -30.897
1532.8600, -30.946
1532.8800, -30.918
1532.9000, -30.964
1532.9200, -31.007
1532.9400, -31.069
1532.9600, -31.129
1532.9800, -31.201
1533.0000, -31.219
1533.0200, -31.197
1533.0400, -31.247
1533.0600, -31.279
1533.0800, -31.304
1533.1000, -31.386
1533.1200, -31.404
1533.1400, -31.429
1533.1600, -31.468
1533.1800, -31.493
1533.2000, -31.504
1533.2200, -31.550
1533.2400, -31.591
1533.2600, -31.613
1533.2800, -31.639
1533.3000, -31.661
1533.3200, -31.664
1533.3400, -31.681
1533.3600, -31.702
1533.3800, -31.729
1533.4000, -31.770
1533.4200, -31.820
1533.4400, -31.886
1533.4600, -32.005
1533.4800, -32.045
1533.5000, -32.062
1533.5200, -32.122
1533.5400, -32.153
1533.5600, -32.228
1533.5800, -32.258
1533.6000, -32.307
1533.6200, -32.387
1533.6400, -32.433
1533.6600, -32.489
1533.6800, -32.587
1533.7000, -32.599
1533.7200, -32.658
1533.7400, -32.721
1533.7600, -32.799
1533.7800, -32.888
1533.8000, -32.886
1533.8200, -32.960
1533.8400, -33.010
1533.8600, -33.091
1533.8800, -33.166
1533.9000, -33.269
1533.9200, -33.334
1533.9400, -33.349
1533.9600, -33.402
1533.9800, -33.471
1534.0000, -33.522
1534.0200, -33.572
1534.0400, -33.629
1534.0600, -33.669
1534.0800, -33.735
1534.1000, -33.784
1534.1200, -33.830
1534.1400, -33.901
1534.1600, -33.939
1534.1800, -33.999
1534.2000, -34.054
1534.2200, -34.104
1534.2400, -34.135
1534.2600, -34.183
1534.2800, -34.243
1534.3000, -34.288
1534.3200, -34.346
1534.3400, -34.409
1534.3600, -34.474
1534.3800, -34.563
1534.4000, -34.594
1534.4200, -34.634
1534.4400, -34.689
1534.4600, -34.693
1534.4800, -34.785
1534.5000, -34.840
1534.5200, -34.880
1534.5400, -34.946
1534.5600, -34.998
1534.5800, -35.042
1534.6000, -35.134
1534.6200, -35.159
1534.6400, -35.186
1534.6600, -35.234
1534.6800, -35.300
1534.7000, -35.366
1534.7200, -35.399
1534.7400, -35.460
1534.7600, -35.510
1534.7800, -35.575
1534.8000, -35.644
1534.8200, -35.720
1534.8400, -35.778
1534.8600, -35.810
1534.8800, -35.867
1534.9000, -35.921
1534.9200, -35.981
1534.9400, -36.047
1534.9600, -36.097
1534.9800, -36.150
1535.0000, -36.215
1535.0200, -36.263
1535.0400, -36.305
1535.0600, -36.367
1535.0800, -36.416
1535.1000, -36.457
1535.1200, -36.492
1535.1400, -36.535
1535.1600, -36.579
1535.1800, -36.620
1535.2000, -36.666
1535.2200, -36.707
1535.2400, -36.762
1535.2600, -36.810
1535.2800, -36.869
1535.3000, -36.944
1535.3200, -36.982
1535.3400, -37.035
1535.3600, -37.077
1535.3800, -37.102
1535.4000, -37.148
1535.4200, -37.184
1535.4400, -37.221
1535.4600, -37.273
1535.4800, -37.319
1535.5000, -37.377
1535.5200, -37.445
1535.5400, -37.483
1535.5600, -37.510
1535.5800, -37.561
1535.6000, -37.623
1535.6200, -37.673
1535.6400, -37.695
1535.6600, -37.749
1535.6800, -37.798
1535.7000, -37.854
1535.7200, -37.910
1535.7400, -37.967
1535.7600, -38.008
1535.7800, -38.044
1535.8000, -38.093
1535.8200, -38.141
1535.8400, -38.197
1535.8600, -38.250
1535.8800, -38.293
1535.9000, -38.334
1535.9200, -38.382
1535.9400, -38.422
1535.9600, -38.458
1535.9800, -38.516
1536.0000, -38.562
1536.0200, -38.589
1536.0400, -38.628
1536.0600, -38.657
1536.0800, -38.701
1536.1000, -38.741
1536.1200, -38.781
1536.1400, -38.804
1536.1600, -38.849
1536.1800, -38.892
1536.2000, -38.937
1536.2200, -38.984
1536.2400, -39.026
1536.2600, -39.063
1536.2800, -39.090
1536.3000, -39.120
1536.3200, -39.156
1536.3400, -39.184
1536.3600, -39.208
1536.3800, -39.247
1536.4000, -39.284
1536.4200, -39.335
1536.4400, -39.380
1536.4600, -39.405
1536.4800, -39.427
1536.5000, -39.469
1536.5200, -39.519
1536.5400, -39.549
1536.5600, -39.565
1536.5800, -39.595
1536.6000, -39.630
1536.6200, -39.667
1536.6400, -39.708
1536.6600, -39.742
1536.6800, -39.771
1536.7000, -39.788
1536.7200, -39.825
1536.7400, -39.857
1536.7600, -39.890
1536.7800, -39.936
1536.8000, -39.967
1536.8200, -39.992
1536.8400, -40.028
1536.8600, -40.052
1536.8800, -40.082
1536.9000, -40.132
1536.9200, -40.150
1536.9400, -40.184
1536.9600, -40.200
1536.9800, -40.209
1537.0000, -40.246
1537.0200, -40.277
1537.0400, -40.304
1537.0600, -40.322
1537.0800, -40.355
1537.1000, -40.380
1537.1200, -40.419
1537.1400, -40.440
1537.1600, -40.467
1537.1800, -40.491
1537.2000, -40.512
1537.2200, -40.533
1537.2400, -40.551
1537.2600, -40.573
1537.2800, -40.591
1537.3000, -40.620
1537.3200, -40.640
1537.3400, -40.672
1537.3600, -40.701
1537.3800, -40.713
1537.4000, -40.730
1537.4200, -40.764
1537.4400, -40.802
1537.4600, -40.816
1537.4800, -40.834
1537.5000, -40.851
1537.5200, -40.880
1537.5400, -40.904
1537.5600, -40.932
1537.5800, -40.947
1537.6000, -40.977
1537.6200, -40.988
1537.6400, -41.009
1537.6600, -41.033
1537.6800, -41.057
1537.7000, -41.078
1537.7200, -41.095
1537.7400, -41.120
1537.7600, -41.142
1537.7800, -41.152
1537.8000, -41.168
1537.8200, -41.190
1537.8400, -41.215
1537.8600, -41.232
1537.8800, -41.246
1537.9000, -41.248
1537.9200, -41.280
1537.9400, -41.288
1537.9600, -41.302
1537.9800, -41.318
1538.0000, -41.334
1538.0200, -41.352
1538.0400, -41.379
1538.0600, -41.385
1538.0800, -41.401
1538.1000, -41.418
1538.1200, -41.433
1538.1400, -41.443
1538.1600, -41.450
1538.1800, -41.460
1538.2000, -41.472
1538.2200, -41.492
1538.2400, -41.504
1538.2600, -41.525
1538.2800, -41.535
1538.3000, -41.534
1538.3200, -41.546
1538.3400, -41.564
1538.3600, -41.590
1538.3800, -41.590
1538.4000, -41.604
1538.4200, -41.607
1538.4400, -41.630
1538.4600, -41.641
1538.4800, -41.651
1538.5000, -41.674
1538.5200, -41.688
1538.5400, -41.693
1538.5600, -41.710
1538.5800, -41.713
1538.6000, -41.738
1538.6200, -41.742
1538.6400, -41.756
1538.6600, -41.781
1538.6800, -41.791
1538.7000, -41.786
1538.7200, -41.793
1538.7400, -41.803
1538.7600, -41.823
1538.7800, -41.822
1538.8000, -41.819
1538.8200, -41.831
1538.8400, -41.846
1538.8600, -41.844
1538.8800, -41.854
1538.9000, -41.860
1538.9200, -41.872
1538.9400, -41.875
1538.9600, -41.889
1538.9800, -41.882
1539.0000, -41.892
1539.0200, -41.906
1539.0400, -41.897
1539.0600, -41.913
1539.0800, -41.909
1539.1000, -41.908
1539.1200, -41.923
1539.1400, -41.926
1539.1600, -41.937
1539.1800, -41.949
1539.2000, -41.944
1539.2200, -41.942
1539.2400, -41.950
1539.2600, -41.959
1539.2800, -41.970
1539.3000, -41.970
1539.3200, -41.975
1539.3400, -41.970
1539.3600, -41.986
1539.3800, -41.978
1539.4000, -41.989
1539.4200, -42.006
1539.4400, -42.010
1539.4600, -42.003
1539.4800, -42.015
1539.5000, -42.013
1539.5200, -42.034
1539.5400, -42.037
1539.5600, -42.045
1539.5800, -42.055
1539.6000, -42.056
1539.6200, -42.058
1539.6400, -42.054
1539.6600, -42.067
1539.6800, -42.066
1539.7000, -42.067
1539.7200, -42.060
1539.7400, -42.067
1539.7600, -42.068
1539.7800, -42.057
1539.8000, -42.060
1539.8200, -42.073
1539.8400, -42.075
1539.8600, -42.082
1539.8800, -42.082
1539.9000, -42.071
1539.9200, -42.075
1539.9400, -42.074
1539.9600, -42.070
1539.9800, -42.078
1540.0000, -42.068
1540.0200, -42.068
1540.0400, -42.077
1540.0600, -42.083
1540.0800, -42.094
1540.1000, -42.095
1540.1200, -42.089
1540.1400, -42.076
1540.1600, -42.091
1540.1800, -42.100
1540.2000, -42.098
1540.2200, -42.090
1540.2400, -42.084
1540.2600, -42.081
1540.2800, -42.087
1540.3000, -42.074
1540.3200, -42.080
1540.3400, -42.089
1540.3600, -42.081
1540.3800, -42.075
1540.4000, -42.082
1540.4200, -42.074
1540.4400, -42.067
1540.4600, -42.078
1540.4800, -42.086
1540.5000, -42.087
1540.5200, -42.083
1540.5400, -42.074
1540.5600, -42.080
1540.5800, -42.079
1540.6000, -42.073
1540.6200, -42.068
1540.6400, -42.060
1540.6600, -42.065
1540.6800, -42.050
1540.7000, -42.049
1540.7200, -42.052
1540.7400, -42.059
1540.7600, -42.051
1540.7800, -42.038
1540.8000, -42.043
1540.8200, -42.033
1540.8400, -42.035
1540.8600, -42.028
1540.8800, -42.029
1540.9000, -42.023
1540.9200, -42.028
1540.9400, -42.019
1540.9600, -42.027
1540.9800, -42.027
1541.0000, -42.032
1541.0200, -42.023
1541.0400, -42.017
1541.0600, -42.013
1541.0800, -42.015
1541.1000, -42.009
1541.1200, -42.005
1541.1400, -41.997
1541.1600, -41.983
1541.1800, -41.993
1541.2000, -41.994
1541.2200, -41.988
1541.2400, -41.986
1541.2600, -41.993
1541.2800, -41.978
1541.3000, -41.987
1541.3200, -41.984
1541.3400, -41.992
1541.3600, -41.986
1541.3800, -41.988
1541.4000, -41.989
1541.4200, -41.982
1541.4400, -41.977
1541.4600, -41.968
1541.4800, -41.975
1541.5000, -41.967
1541.5200, -41.960
1541.5400, -41.942
1541.5600, -41.946
1541.5800, -41.943
1541.6000, -41.935
1541.6200, -41.932
1541.6400, -41.930
1541.6600, -41.934
1541.6800, -41.920
1541.7000, -41.921
1541.7200, -41.900
1541.7400, -41.904
1541.7600, -41.902
1541.7800, -41.890
1541.8000, -41.897
1541.8200, -41.878
1541.8400, -41.874
1541.8600, -41.885
1541.8800, -41.881
1541.9000, -41.884
1541.9200, -41.879
1541.9400, -41.868
1541.9600, -41.859
1541.9800, -41.859
1542.0000, -41.859
1542.0200, -41.855
1542.0400, -41.847
1542.0600, -41.833
1542.0800, -41.825
1542.1000, -41.836
1542.1200, -41.834
1542.1400, -41.835
1542.1600, -41.827
1542.1800, -41.828
1542.2000, -41.821
1542.2200, -41.826
1542.2400, -41.828
1542.2600, -41.827
1542.2800, -41.817
1542.3000, -41.817
1542.3200, -41.811
1542.3400, -41.805
1542.3600, -41.786
1542.3800, -41.796
1542.4000, -41.795
1542.4200, -41.785
1542.4400, -41.771
1542.4600, -41.766
1542.4800, -41.771
1542.5000, -41.755
1542.5200, -41.758
1542.5400, -41.749
1542.5600, -41.756
1542.5800, -41.745
1542.6000, -41.748
1542.6200, -41.734
1542.6400, -41.727
1542.6600, -41.724
1542.6800, -41.704
1542.7000, -41.717
1542.7200, -41.699
1542.7400, -41.686
1542.7600, -41.694
1542.7800, -41.699
1542.8000, -41.696
1542.8200, -41.701
1542.8400, -41.683
1542.8600, -41.674
1542.8800, -41.662
1542.9000, -41.672
1542.9200, -41.668
1542.9400, -41.659
1542.9600, -41.652
1542.9800, -41.643
1543.0000, -41.648
1543.0200, -41.640
1543.0400, -41.633
1543.0600, -41.634
1543.0800, -41.634
1543.1000, -41.616
1543.1200, -41.628
1543.1400, -41.625
1543.1600, -41.635
1543.1800, -41.615
1543.2000, -41.616
1543.2200, -41.619
1543.2400, -41.613
1543.2600, -41.607
1543.2800, -41.615
1543.3000, -41.620
1543.3200, -41.602
1543.3400, -41.598
1543.3600, -41.592
1543.3800, -41.587
1543.4000, -41.578
1543.4200, -41.574
1543.4400, -41.567
1543.4600, -41.577
1543.4800, -41.573
1543.5000, -41.570
1543.5200, -41.562
1543.5400, -41.558
1543.5600, -41.550
1543.5800, -41.552
1543.6000, -41.551
1543.6200, -41.547
1543.6400, -41.528
1543.6600, -41.533
1543.6800, -41.537
1543.7000, -41.531
1543.7200, -41.530
1543.7400, -41.529
1543.7600, -41.520
1543.7800, -41.514
1543.8000, -41.514
1543.8200, -41.518
1543.8400, -41.506
1543.8600, -41.510
1543.8800, -41.501
1543.9000, -41.501
1543.9200, -41.505
1543.9400, -41.503
1543.9600, -41.504
1543.9800, -41.502
1544.0000, -41.498
1544.0200, -41.498
1544.0400, -41.498
1544.0600, -41.508
1544.0800, -41.497
1544.1000, -41.492
1544.1200, -41.499
1544.1400, -41.494
1544.1600, -41.492
1544.1800, -41.479
1544.2000, -41.507
1544.2200, -41.488
1544.2400, -41.487
1544.2600, -41.481
1544.2800, -41.481
1544.3000, -41.479
1544.3200, -41.469
1544.3400, -41.457
1544.3600, -41.465
1544.3800, -41.469
1544.4000, -41.463
1544.4200, -41.469
1544.4400, -41.452
1544.4600, -41.449
1544.4800, -41.449
1544.5000, -41.443
1544.5200, -41.444
1544.5400, -41.428
1544.5600, -41.424
1544.5800, -41.437
1544.6000, -41.431
1544.6200, -41.430
1544.6400, -41.432
1544.6600, -41.427
1544.6800, -41.414
1544.7000, -41.425
1544.7200, -41.430
1544.7400, -41.422
1544.7600, -41.427
1544.7800, -41.413
1544.8000, -41.405
1544.8200, -41.421
1544.8400, -41.416
1544.8600, -41.415
1544.8800, -41.420
1544.9000, -41.414
1544.9200, -41.403
1544.9400, -41.415
1544.9600, -41.421
1544.9800, -41.427
1545.0000, -41.418
1545.0200, -41.420
1545.0400, -41.420
1545.0600, -41.417
1545.0800, -41.405
1545.1000, -41.422
1545.1200, -41.418
1545.1400, -41.409
1545.1600, -41.399
1545.1800, -41.398
1545.2000, -41.407
1545.2200, -41.392
1545.2400, -41.391
1545.2600, -41.394
1545.2800, -41.408
1545.3000, -41.399
1545.3200, -41.405
1545.3400, -41.389
1545.3600, -41.390
1545.3800, -41.395
1545.4000, -41.378
1545.4200, -41.393
1545.4400, -41.378
1545.4600, -41.383
1545.4800, -41.380
1545.5000, -41.384
1545.5200, -41.379
1545.5400, -41.385
1545.5600, -41.379
1545.5800, -41.369
1545.6000, -41.372
1545.6200, -41.384
1545.6400, -41.382
1545.6600, -41.384
1545.6800, -41.377
1545.7000, -41.379
1545.7200, -41.382
1545.7400, -41.382
1545.7600, -41.380
1545.7800, -41.381
1545.8000, -41.381
1545.8200, -41.376
1545.8400, -41.382
1545.8600, -41.382
1545.8800, -41.391
1545.9000, -41.389
1545.9200, -41.391
1545.9400, -41.393
1545.9600, -41.385
1545.9800, -41.381
1546.0000, -41.384
1546.0200, -41.389
1546.0400, -41.384
1546.0600, -41.375
1546.0800, -41.366
1546.1000, -41.374
1546.1200, -41.370
1546.1400, -41.367
1546.1600, -41.370
1546.1800, -41.384
1546.2000, -41.372
1546.2200, -41.353
1546.2400, -41.373
1546.2600, -41.371
1546.2800, -41.366
1546.3000, -41.373
1546.3200, -41.372
1546.3400, -41.364
1546.3600, -41.359
1546.3800, -41.368
1546.4000, -41.379
1546.4200, -41.348
1546.4400, -41.376
1546.4600, -41.380
1546.4800, -41.379
1546.5000, -41.375
1546.5200, -41.378
1546.5400, -41.375
1546.5600, -41.371
1546.5800, -41.368
1546.6000, -41.370
1546.6200, -41.375
1546.6400, -41.373
1546.6600, -41.374
1546.6800, -41.389
1546.7000, -41.384
1546.7200, -41.378
1546.7400, -41.386
1546.7600, -41.380
1546.7800, -41.388
1546.8000, -41.375
1546.8200, -41.387
1546.8400, -41.394
1546.8600, -41.389
1546.8800, -41.383
1546.9000, -41.374
1546.9200, -41.390
1546.9400, -41.385
1546.9600, -41.378
1546.9800, -41.369
1547.0000, -41.382
1547.0200, -41.374
1547.0400, -41.371
1547.0600, -41.368
1547.0800, -41.378
1547.1000, -41.378
1547.1200, -41.381
1547.1400, -41.376
1547.1600, -41.374
1547.1800, -41.378
1547.2000, -41.369
1547.2200, -41.373
1547.2400, -41.368
1547.2600, -41.365
1547.2800, -41.369
1547.3000, -41.374
1547.3200, -41.376
1547.3400, -41.383
1547.3600, -41.381
1547.3800, -41.375
1547.4000, -41.370
1547.4200, -41.377
1547.4400, -41.382
1547.4600, -41.375
1547.4800, -41.372
1547.5000, -41.369
1547.5200, -41.374
1547.5400, -41.381
1547.5600, -41.383
1547.5800, -41.393
1547.6000, -41.391
1547.6200, -41.388
1547.6400, -41.403
1547.6600, -41.402
1547.6800, -41.411
1547.7000, -41.410
1547.7200, -41.419
1547.7400, -41.436
1547.7600, -41.422
1547.7800, -41.410
1547.8000, -41.409
1547.8200, -41.416
1547.8400, -41.414
1547.8600, -41.410
1547.8800, -41.400
1547.9000, -41.407
1547.9200, -41.402
1547.9400, -41.408
1547.9600, -41.403
1547.9800, -41.409
1548.0000, -41.415
1548.0200, -41.421
1548.0400, -41.415
1548.0600, -41.412
1548.0800, -41.415
1548.1000, -41.409
1548.1200, -41.413
1548.1400, -41.406
1548.1600, -41.408
1548.1800, -41.407
1548.2000, -41.415
1548.2200, -41.418
1548.2400, -41.426
1548.2600, -41.429
1548.2800, -41.415
1548.3000, -41.415
1548.3200, -41.427
1548.3400, -41.428
1548.3600, -41.423
1548.3800, -41.421
1548.4000, -41.420
1548.4200, -41.431
1548.4400, -41.429
1548.4600, -41.433
1548.4800, -41.437
1548.5000, -41.436
1548.5200, -41.432
1548.5400, -41.437
1548.5600, -41.437
1548.5800, -41.447
1548.6000, -41.443
1548.6200, -41.457
1548.6400, -41.463
1548.6600, -41.456
1548.6800, -41.448
1548.7000, -41.449
1548.7200, -41.461
1548.7400, -41.459
1548.7600, -41.459
1548.7800, -41.449
1548.8000, -41.459
1548.8200, -41.458
1548.8400, -41.459
1548.8600, -41.457
1548.8800, -41.456
1548.9000, -41.462
1548.9200, -41.471
1548.9400, -41.466
1548.9600, -41.465
1548.9800, -41.466
1549.0000, -41.462
1549.0200, -41.463
1549.0400, -41.455
1549.0600, -41.460
1549.0800, -41.455
1549.1000, -41.457
1549.1200, -41.456
1549.1400, -41.462
1549.1600, -41.475
1549.1800, -41.466
1549.2000, -41.465
1549.2200, -41.478
1549.2400, -41.478
1549.2600, -41.470
1549.2800, -41.464
1549.3000, -41.467
1549.3200, -41.474
1549.3400, -41.477
1549.3600, -41.479
1549.3800, -41.482
1549.4000, -41.482
1549.4200, -41.488
1549.4400, -41.499
1549.4600, -41.507
1549.4800, -41.510
1549.5000, -41.506
1549.5200, -41.521
1549.5400, -41.530
1549.5600, -41.526
1549.5800, -41.520
1549.6000, -41.515
1549.6200, -41.526
1549.6400, -41.528
1549.6600, -41.529
1549.6800, -41.512
1549.7000, -41.522
1549.7200, -41.521
1549.7400, -41.527
1549.7600, -41.520
1549.7800, -41.520
1549.8000, -41.530
1549.8200, -41.522
1549.8400, -41.537
1549.8600, -41.543
1549.8800, -41.548
1549.9000, -41.540
1549.9200, -41.540
1549.9400, -41.535
1549.9600, -41.537
1549.9800, -41.532
1550.0000, -41.538
1550.0200, -41.541
1550.0400, -41.529
1550.0600, -41.547
1550.0800, -41.538
1550.1000, -41.540
1550.1200, -41.551
1550.1400, -41.545
1550.1600, -41.540
1550.1800, -41.539
1550.2000, -41.541
1550.2200, -41.548
1550.2400, -41.558
1550.2600, -41.561
1550.2800, -41.563
1550.3000, -41.567
1550.3200, -41.570
1550.3400, -41.571
1550.3600, -41.580
1550.3800, -41.594
1550.4000, -41.584
1550.4200, -41.596
1550.4400, -41.600
1550.4600, -41.599
1550.4800, -41.597
1550.5000, -41.605
1550.5200, -41.610
1550.5400, -41.603
1550.5600, -41.599
1550.5800, -41.598
1550.6000, -41.600
1550.6200, -41.597
1550.6400, -41.603
1550.6600, -41.604
1550.6800, -41.605
1550.7000, -41.614
1550.7200, -41.623
1550.7400, -41.630
1550.7600, -41.632
1550.7800, -41.634
1550.8000, -41.633
1550.8200, -41.632
1550.8400, -41.633
1550.8600, -41.629
1550.8800, -41.631
1550.9000, -41.641
1550.9200, -41.641
1550.9400, -41.647
1550.9600, -41.653
1550.9800, -41.645
1551.0000, -41.652
1551.0200, -41.658
1551.0400, -41.662
1551.0600, -41.662
1551.0800, -41.663
1551.1000, -41.669
1551.1200, -41.679
1551.1400, -41.684
1551.1600, -41.688
1551.1800, -41.690
1551.2000, -41.686
1551.2200, -41.692
1551.2400, -41.701
1551.2600, -41.713
1551.2800, -41.709
1551.3000, -41.705
1551.3200, -41.714
1551.3400, -41.716
1551.3600, -41.715
1551.3800, -41.716
1551.4000, -41.719
1551.4200, -41.727
1551.4400, -41.716
1551.4600, -41.717
1551.4800, -41.716
1551.5000, -41.714
1551.5200, -41.713
1551.5400, -41.713
1551.5600, -41.710
1551.5800, -41.716
1551.6000, -41.720
1551.6200, -41.722
1551.6400, -41.722
1551.6600, -41.732
1551.6800, -41.738
1551.7000, -41.738
1551.7200, -41.738
1551.7400, -41.737
1551.7600, -41.733
1551.7800, -41.734
1551.8000, -41.743
1551.8200, -41.748
1551.8400, -41.747
1551.8600, -41.748
1551.8800, -41.745
1551.9000, -41.753
1551.9200, -41.757
1551.9400, -41.751
1551.9600, -41.750
1551.9800, -41.748
1552.0000, -41.752
1552.0200, -41.765
1552.0400, -41.770
1552.0600, -41.767
1552.0800, -41.777
1552.1000, -41.777
1552.1200, -41.785
1552.1400, -41.794
1552.1600, -41.804
1552.1800, -41.799
1552.2000, -41.807
1552.2200, -41.812
1552.2400, -41.813
1552.2600, -41.811
1552.2800, -41.821
1552.3000, -41.818
1552.3200, -41.830
1552.3400, -41.822
1552.3600, -41.818
1552.3800, -41.818
1552.4000, -41.820
1552.4200, -41.823
1552.4400, -41.822
1552.4600, -41.822
1552.4800, -41.828
1552.5000, -41.835
1552.5200, -41.837
1552.5400, -41.834
1552.5600, -41.843
1552.5800, -41.849
1552.6000, -41.850
1552.6200, -41.853
1552.6400, -41.858
1552.6600, -41.851
1552.6800, -41.858
1552.7000, -41.862
1552.7200, -41.869
1552.7400, -41.871
1552.7600, -41.866
1552.7800, -41.867
1552.8000, -41.875
1552.8200, -41.878
1552.8400, -41.873
1552.8600, -41.873
1552.8800, -41.876
1552.9000, -41.884
1552.9200, -41.890
1552.9400, -41.891
1552.9600, -41.893
1552.9800, -41.892
1553.0000, -41.895
1553.0200, -41.899
1553.0400, -41.908
1553.0600, -41.915
1553.0800, -41.908
1553.1000, -41.916
1553.1200, -41.922
1553.1400, -41.924
1553.1600, -41.921
1553.1800, -41.930
1553.2000, -41.938
1553.2200, -41.935
1553.2400, -41.940
1553.2600, -41.936
1553.2800, -41.936
1553.3000, -41.936
1553.3200, -41.942
1553.3400, -41.937
1553.3600, -41.933
1553.3800, -41.941
1553.4000, -41.939
1553.4200, -41.936
1553.4400, -41.941
1553.4600, -41.940
1553.4800, -41.942
1553.5000, -41.937
1553.5200, -41.935
1553.5400, -41.937
1553.5600, -41.933
1553.5800, -41.940
1553.6000, -41.940
1553.6200, -41.949
1553.6400, -41.954
1553.6600, -41.946
1553.6800, -41.949
1553.7000, -41.958
1553.7200, -41.956
1553.7400, -41.953
1553.7600, -41.949
1553.7800, -41.956
1553.8000, -41.964
1553.8200, -41.973
1553.8400, -41.973
1553.8600, -41.977
1553.8800, -41.975
1553.9000, -41.984
1553.9200, -41.985
1553.9400, -41.994
1553.9600, -41.995
1553.9800, -41.996
1554.0000, -42.011
1554.0200, -42.017
1554.0400, -42.014
1554.0600, -42.012
1554.0800, -42.026
1554.1000, -42.034
1554.1200, -42.032
1554.1400, -42.029
1554.1600, -42.030
1554.1800, -42.030
1554.2000, -42.029
1554.2200, -42.039
1554.2400, -42.033
1554.2600, -42.037
1554.2800, -42.034
1554.3000, -42.041
1554.3200, -42.033
1554.3400, -42.041
1554.3600, -42.037
1554.3800, -42.030
1554.4000, -42.031
1554.4200, -42.029
1554.4400, -42.029
1554.4600, -42.034
1554.4800, -42.038
1554.5000, -42.039
1554.5200, -42.051
1554.5400, -42.049
1554.5600, -42.045
1554.5800, -42.051
1554.6000, -42.058
1554.6200, -42.054
1554.6400, -42.056
1554.6600, -42.054
1554.6800, -42.061
1554.7000, -42.062
1554.7200, -42.066
1554.7400, -42.072
1554.7600, -42.073
1554.7800, -42.073
1554.8000, -42.079
1554.8200, -42.074
1554.8400, -42.082
1554.8600, -42.081
1554.8800, -42.088
1554.9000, -42.099
1554.9200, -42.097
1554.9400, -42.091
1554.9600, -42.089
1554.9800, -42.089
1555.0000, -42.089
1555.0200, -42.093
1555.0400, -42.079
1555.0600, -42.090
1555.0800, -42.090
1555.1000, -42.091
1555.1200, -42.094
1555.1400, -42.100
1555.1600, -42.102
1555.1800, -42.108
1555.2000, -42.109
1555.2200, -42.103
1555.2400, -42.105
1555.2600, -42.108
1555.2800, -42.112
1555.3000, -42.108
1555.3200, -42.110
1555.3400, -42.111
1555.3600, -42.115
1555.3800, -42.115
1555.4000, -42.128
1555.4200, -42.122
1555.4400, -42.121
1555.4600, -42.123
1555.4800, -42.130
1555.5000, -42.139
1555.5200, -42.135
1555.5400, -42.139
1555.5600, -42.136
1555.5800, -42.143
1555.6000, -42.145
1555.6200, -42.148
1555.6400, -42.157
1555.6600, -42.158
1555.6800, -42.158
1555.7000, -42.161
1555.7200, -42.155
1555.7400, -42.170
1555.7600, -42.166
1555.7800, -42.176
1555.8000, -42.179
1555.8200, -42.182
1555.8400, -42.187
1555.8600, -42.190
1555.8800, -42.195
1555.9000, -42.191
1555.9200, -42.185
1555.9400, -42.192
1555.9600, -42.206
1555.9800, -42.203
1556.0000, -42.210
1556.0200, -42.211
1556.0400, -42.216
1556.0600, -42.217
1556.0800, -42.228
1556.1000, -42.217
1556.1200, -42.219
1556.1400, -42.221
1556.1600, -42.216
1556.1800, -42.228
1556.2000, -42.213
1556.2200, -42.219
1556.2400, -42.229
1556.2600, -42.229
1556.2800, -42.241
1556.3000, -42.238
1556.3200, -42.238
1556.3400, -42.233
1556.3600, -42.239
1556.3800, -42.247
1556.4000, -42.250
1556.4200, -42.245
1556.4400, -42.242
1556.4600, -42.249
1556.4800, -42.249
1556.5000, -42.254
1556.5200, -42.262
1556.5400, -42.268
1556.5600, -42.261
1556.5800, -42.269
1556.6000, -42.269
1556.6200, -42.279
1556.6400, -42.290
1556.6600, -42.287
1556.6800, -42.294
1556.7000, -42.296
1556.7200, -42.301
1556.7400, -42.309
1556.7600, -42.313
1556.7800, -42.309
1556.8000, -42.308
1556.8200, -42.308
1556.8400, -42.321
1556.8600, -42.308
1556.8800, -42.312
1556.9000, -42.309
1556.9200, -42.319
1556.9400, -42.325
1556.9600, -42.332
1556.9800, -42.327
1557.0000, -42.330
1557.0200, -42.332
1557.0400, -42.331
1557.0600, -42.334
1557.0800, -42.329
1557.1000, -42.330
1557.1200, -42.332
1557.1400, -42.342
1557.1600, -42.352
1557.1800, -42.359
1557.2000, -42.357
1557.2200, -42.359
1557.2400, -42.363
1557.2600, -42.366
1557.2800, -42.380
1557.3000, -42.374
1557.3200, -42.373
1557.3400, -42.377
1557.3600, -42.388
1557.3800, -42.393
1557.4000, -42.405
1557.4200, -42.414
1557.4400, -42.412
1557.4600, -42.415
1557.4800, -42.428
1557.5000, -42.438
1557.5200, -42.447
1557.5400, -42.445
1557.5600, -42.450
1557.5800, -42.451
1557.6000, -42.457
1557.6200, -42.450
1557.6400, -42.466
1557.6600, -42.471
1557.6800, -42.481
1557.7000, -42.484
1557.7200, -42.477
1557.7400, -42.486
1557.7600, -42.475
1557.7800, -42.477
1557.8000, -42.490
1557.8200, -42.499
1557.8400, -42.499
1557.8600, -42.508
1557.8800, -42.502
1557.9000, -42.507
1557.9200, -42.515
1557.9400, -42.506
1557.9600, -42.522
1557.9800, -42.515
1558.0000, -42.525
1558.0200, -42.533
1558.0400, -42.539
1558.0600, -42.556
1558.0800, -42.561
1558.1000, -42.563
1558.1200, -42.561
1558.1400, -42.573
1558.1600, -42.580
1558.1800, -42.578
1558.2000, -42.581
1558.2200, -42.576
1558.2400, -42.586
1558.2600, -42.585
1558.2800, -42.600
1558.3000, -42.613
1558.3200, -42.614
1558.3400, -42.616
1558.3600, -42.629
1558.3800, -42.642
1558.4000, -42.643
1558.4200, -42.646
1558.4400, -42.654
1558.4600, -42.660
1558.4800, -42.665
1558.5000, -42.664
1558.5200, -42.678
1558.5400, -42.672
1558.5600, -42.687
1558.5800, -42.687
1558.6000, -42.694
1558.6200, -42.696
1558.6400, -42.692
1558.6600, -42.694
1558.6800, -42.707
1558.7000, -42.715
1558.7200, -42.719
1558.7400, -42.732
1558.7600, -42.736
1558.7800, -42.732
1558.8000, -42.747
1558.8200, -42.740
1558.8400, -42.753
1558.8600, -42.748
1558.8800, -42.749
1558.9000, -42.764
1558.9200, -42.772
1558.9400, -42.782
1558.9600, -42.794
1558.9800, -42.792
1559.0000, -42.791
1559.0200, -42.805
1559.0400, -42.822
1559.0600, -42.825
1559.0800, -42.827
1559.1000, -42.832
1559.1200, -42.835
1559.1400, -42.853
1559.1600, -42.862
1559.1800, -42.877
1559.2000, -42.884
1559.2200, -42.888
1559.2400, -42.899
1559.2600, -42.903
1559.2800, -42.917
1559.3000, -42.927
1559.3200, -42.938
1559.3400, -42.948
1559.3600, -42.956
1559.3800, -42.957
1559.4000, -42.971
1559.4200, -42.963
1559.4400, -42.978
1559.4600, -42.986
1559.4800, -42.999
1559.5000, -43.007
1559.5200, -43.006
1559.5400, -43.011
1559.5600, -43.030
1559.5800, -43.035
1559.6000, -43.041
1559.6200, -43.055
1559.6400, -43.056
1559.6600, -43.054
1559.6800, -43.070
1559.7000, -43.074
1559.7200, -43.087
1559.7400, -43.092
1559.7600, -43.093
1559.7800, -43.110
1559.8000, -43.120
1559.8200, -43.131
1559.8400, -43.144
1559.8600, -43.146
1559.8800, -43.141
1559.9000, -43.152
1559.9200, -43.175
1559.9400, -43.179
1559.9600, -43.187
1559.9800, -43.196
1560.0000, -43.201
1560.0200, -43.224
1560.0400, -43.233
1560.0600, -43.243
1560.0800, -43.255
1560.1000, -43.260
1560.1200, -43.265
1560.1400, -43.286
1560.1600, -43.292
1560.1800, -43.302
1560.2000, -43.317
1560.2200, -43.331
1560.2400, -43.339
1560.2600, -43.347
1560.2800, -43.363
1560.3000, -43.362
1560.3200, -43.372
1560.3400, -43.378
1560.3600, -43.392
1560.3800, -43.401
1560.4000, -43.400
1560.4200, -43.402
1560.4400, -43.420
1560.4600, -43.426
1560.4800, -43.438
1560.5000, -43.453
1560.5200, -43.462
1560.5400, -43.465
1560.5600, -43.483
1560.5800, -43.488
1560.6000, -43.501
1560.6200, -43.509
1560.6400, -43.516
1560.6600, -43.533
1560.6800, -43.544
1560.7000, -43.556
1560.7200, -43.571
1560.7400, -43.577
1560.7600, -43.580
1560.7800, -43.591
1560.8000, -43.607
1560.8200, -43.620
1560.8400, -43.622
1560.8600, -43.633
1560.8800, -43.641
1560.9000, -43.666
1560.9200, -43.682
1560.9400, -43.685
1560.9600, -43.701
1560.9800, -43.710
1561.0000, -43.716
1561.0200, -43.739
1561.0400, -43.749
1561.0600, -43.760
1561.0800, -43.775
1561.1000, -43.793
1561.1200, -43.805
1561.1400, -43.816
1561.1600, -43.830
1561.1800, -43.836
1561.2000, -43.843
1561.2200, -43.848
1561.2400, -43.873
1561.2600, -43.894
1561.2800, -43.899
1561.3000, -43.903
1561.3200, -43.922
1561.3400, -43.937
1561.3600, -43.954
1561.3800, -43.969
1561.4000, -43.983
1561.4200, -43.991
1561.4400, -44.004
1561.4600, -44.022
1561.4800, -44.035
1561.5000, -44.036
1561.5200, -44.046
1561.5400, -44.066
1561.5600, -44.082
1561.5800, -44.092
1561.6000, -44.112
1561.6200, -44.124
1561.6400, -44.130
1561.6600, -44.145
1561.6800, -44.167
1561.7000, -44.183
1561.7200, -44.189
1561.7400, -44.204
1561.7600, -44.212
1561.7800, -44.232
1561.8000, -44.253
1561.8200, -44.262
1561.8400, -44.280
1561.8600, -44.291
1561.8800, -44.298
1561.9000, -44.312
1561.9200, -44.334
1561.9400, -44.348
1561.9600, -44.361
1561.9800, -44.372
1562.0000, -44.387
1562.0200, -44.402
1562.0400, -44.414
1562.0600, -44.430
1562.0800, -44.446
1562.1000, -44.456
1562.1200, -44.474
1562.1400, -44.496
1562.1600, -44.503
1562.1800, -44.513
1562.2000, -44.526
1562.2200, -44.542
1562.2400, -44.556
1562.2600, -44.577
1562.2800, -44.594
1562.3000, -44.603
1562.3200, -44.620
1562.3400, -44.637
1562.3600, -44.655
1562.3800, -44.660
1562.4000, -44.672
1562.4200, -44.686
1562.4400, -44.702
1562.4600, -44.719
1562.4800, -44.740
1562.5000, -44.751
1562.5200, -44.764
1562.5400, -44.780
1562.5600, -44.797
1562.5800, -44.813
1562.6000, -44.824
1562.6200, -44.837
1562.6400, -44.849
1562.6600, -44.869
1562.6800, -44.888
1562.7000, -44.903
1562.7200, -44.921
1562.7400, -44.935
1562.7600, -44.949
1562.7800, -44.963
1562.8000, -44.990
1562.8200, -45.006
1562.8400, -45.022
1562.8600, -45.039
1562.8800, -45.055
1562.9000, -45.071
1562.9200, -45.087
1562.9400, -45.112
1562.9600, -45.125
1562.9800, -45.134
1563.0000, -45.154
1563.0200, -45.170
1563.0400, -45.179
1563.0600, -45.191
1563.0800, -45.204
1563.1000, -45.229
1563.1200, -45.245
1563.1400, -45.267
1563.1600, -45.283
1563.1800, -45.289
1563.2000, -45.313
1563.2200, -45.332
1563.2400, -45.347
1563.2600, -45.355
1563.2800, -45.368
1563.3000, -45.381
1563.3200, -45.401
1563.3400, -45.421
1563.3600, -45.444
1563.3800, -45.459
1563.4000, -45.474
1563.4200, -45.492
1563.4400, -45.509
1563.4600, -45.528
1563.4800, -45.541
1563.5000, -45.555
1563.5200, -45.574
1563.5400, -45.587
1563.5600, -45.613
1563.5800, -45.626
1563.6000, -45.648
1563.6200, -45.663
1563.6400, -45.681
1563.6600, -45.701
1563.6800, -45.722
1563.7000, -45.749
1563.7200, -45.762
1563.7400, -45.779
1563.7600, -45.797
1563.7800, -45.816
1563.8000, -45.836
1563.8200, -45.857
1563.8400, -45.869
1563.8600, -45.887
1563.8800, -45.908
1563.9000, -45.922
1563.9200, -45.934
1563.9400, -45.948
1563.9600, -45.968
1563.9800, -45.988
1564.0000, -46.007
1564.0200, -46.029
1564.0400, -46.039
1564.0600, -46.057
1564.0800, -46.071
1564.1000, -46.091
1564.1200, -46.106
1564.1400, -46.117
1564.1600, -46.134
1564.1800, -46.150
1564.2000, -46.172
1564.2200, -46.190
1564.2400, -46.210
1564.2600, -46.229
1564.2800, -46.243
1564.3000, -46.264
1564.3200, -46.282
1564.3400, -46.301
1564.3600, -46.314
1564.3800, -46.329
1564.4000, -46.349
1564.4200, -46.373
1564.4400, -46.389
1564.4600, -46.413
1564.4800, -46.437
1564.5000, -46.449
1564.5200, -46.468
1564.5400, -46.490
1564.5600, -46.515
1564.5800, -46.534
1564.6000, -46.552
1564.6200, -46.572
1564.6400, -46.590
1564.6600, -46.608
1564.6800, -46.626
1564.7000, -46.647
1564.7200, -46.660
1564.7400, -46.678
1564.7600, -46.690
1564.7800, -46.716
1564.8000, -46.731
1564.8200, -46.745
1564.8400, -46.763
1564.8600, -46.790
1564.8800, -46.805
1564.9000, -46.830
1564.9200, -46.843
1564.9400, -46.860
1564.9600, -46.881
1564.9800, -46.897
1565.0000, -46.919
1565.0200, -46.928
1565.0400, -46.953
1565.0600, -46.969
1565.0800, -46.989
1565.1000, -47.012
1565.1200, -47.030
1565.1400, -47.049
1565.1600, -47.067
1565.1800, -47.088
1565.2000, -47.108
1565.2200, -47.126
1565.2400, -47.142
1565.2600, -47.158
1565.2800, -47.179
1565.3000, -47.200
1565.3200, -47.220
1565.3400, -47.244
1565.3600, -47.262
1565.3800, -47.280
1565.4000, -47.299
1565.4200, -47.322
1565.4400, -47.349
1565.4600, -47.363
1565.4800, -47.388
1565.5000, -47.404
1565.5200, -47.426
1565.5400, -47.444
1565.5600, -47.462
1565.5800, -47.488
1565.6000, -47.503
1565.6200, -47.519
1565.6400, -47.536
1565.6600, -47.558
1565.6800, -47.565
1565.7000, -47.589
1565.7200, -47.606
1565.7400, -47.633
1565.7600, -47.642
1565.7800, -47.670
1565.8000, -47.688
1565.8200, -47.703
1565.8400, -47.723
1565.8600, -47.739
1565.8800, -47.761
1565.9000, -47.774
1565.9200, -47.794
1565.9400, -47.816
1565.9600, -47.831
1565.9800, -47.856
1566.0000, -47.873
1566.0200, -47.895
1566.0400, -47.913
1566.0600, -47.933
1566.0800, -47.955
1566.1000, -47.970
1566.1200, -47.986
1566.1400, -48.007
1566.1600, -48.026
1566.1800, -48.044
1566.2000, -48.065
1566.2200, -48.091
1566.2400, -48.106
1566.2600, -48.127
1566.2800, -48.144
1566.3000, -48.159
1566.3200, -48.192
1566.3400, -48.208
1566.3600, -48.225
1566.3800, -48.246
1566.4000, -48.265
1566.4200, -48.289
1566.4400, -48.303
1566.4600, -48.324
1566.4800, -48.341
1566.5000, -48.358
1566.5200, -48.377
1566.5400, -48.403
1566.5600, -48.413
1566.5800, -48.440
1566.6000, -48.456
1566.6200, -48.474
1566.6400, -48.493
1566.6600, -48.513
1566.6800, -48.531
1566.7000, -48.548
1566.7200, -48.568
1566.7400, -48.592
1566.7600, -48.602
1566.7800, -48.621
1566.8000, -48.641
1566.8200, -48.663
1566.8400, -48.680
1566.8600, -48.700
1566.8800, -48.722
1566.9000, -48.743
1566.9200, -48.773
1566.9400, -48.778
1566.9600, -48.798
1566.9800, -48.810
1567.0000, -48.833
1567.0200, -48.855
1567.0400, -48.881
1567.0600, -48.901
1567.0800, -48.914
1567.1000, -48.937
1567.1200, -48.955
1567.1400, -48.974
1567.1600, -48.995
1567.1800, -49.016
1567.2000, -49.037
1567.2200, -49.060
1567.2400, -49.080
1567.2600, -49.096
1567.2800, -49.116
1567.3000, -49.144
1567.3200, -49.157
1567.3400, -49.171
1567.3600, -49.191
1567.3800, -49.211
1567.4000, -49.228
1567.4200, -49.253
1567.4400, -49.262
1567.4600, -49.284
1567.4800, -49.310
1567.5000, -49.324
1567.5200, -49.340
1567.5400, -49.369
1567.5600, -49.383
1567.5800, -49.402
1567.6000, -49.422
1567.6200, -49.445
1567.6400, -49.457
1567.6600, -49.477
1567.6800, -49.499
1567.7000, -49.515
1567.7200, -49.545
1567.7400, -49.573
1567.7600, -49.582
1567.7800, -49.595
1567.8000, -49.617
1567.8200, -49.638
1567.8400, -49.654
1567.8600, -49.665
1567.8800, -49.689
1567.9000, -49.709
1567.9200, -49.733
1567.9400, -49.753
1567.9600, -49.769
1567.9800, -49.789
1568.0000, -49.807
1568.0200, -49.825
1568.0400, -49.846
1568.0600, -49.869
1568.0800, -49.891
1568.1000, -49.909
1568.1200, -49.929
1568.1400, -49.947
1568.1600, -49.964
1568.1800, -49.982
1568.2000, -50.002
1568.2200, -50.022
1568.2400, -50.040
1568.2600, -50.058
1568.2800, -50.081
1568.3000, -50.095
1568.3200, -50.119
1568.3400, -50.133
1568.3600, -50.158
1568.3800, -50.169
1568.4000, -50.194
1568.4200, -50.213
1568.4400, -50.228
1568.4600, -50.251
1568.4800, -50.270
1568.5000, -50.288
1568.5200, -50.302
1568.5400, -50.325
1568.5600, -50.341
1568.5800, -50.360
1568.6000, -50.377
1568.6200, -50.398
1568.6400, -50.421
1568.6600, -50.438
1568.6800, -50.459
1568.7000, -50.481
1568.7200, -50.493
1568.7400, -50.514
1568.7600, -50.529
1568.7800, -50.550
1568.8000, -50.572
1568.8200, -50.592
1568.8400, -50.611
1568.8600, -50.628
1568.8800, -50.648
1568.9000, -50.666
1568.9200, -50.691
1568.9400, -50.713
1568.9600, -50.723
1568.9800, -50.750
1569.0000, -50.771
1569.0200, -50.789
1569.0400, -50.807
1569.0600, -50.817
1569.0800, -50.846
1569.1000, -50.863
1569.1200, -50.880
1569.1400, -50.900
1569.1600, -50.918
1569.1800, -50.931
1569.2000, -50.959
1569.2200, -50.972
1569.2400, -50.996
1569.2600, -51.002
1569.2800, -51.027
1569.3000, -51.047
1569.3200, -51.063
1569.3400, -51.083
1569.3600, -51.095
1569.3800, -51.120
1569.4000, -51.139
1569.4200, -51.150
1569.4400, -51.174
1569.4600, -51.186
1569.4800, -51.207
1569.5000, -51.228
1569.5200, -51.243
1569.5400, -51.252
1569.5600, -51.280
1569.5800, -51.294
1569.6000, -51.316
1569.6200, -51.336
1569.6400, -51.354
1569.6600, -51.372
1569.6800, -51.396
1569.7000, -51.415
1569.7200, -51.429
1569.7400, -51.452
1569.7600, -51.473
1569.7800, -51.485
1569.8000, -51.510
1569.8200, -51.524
1569.8400, -51.545
1569.8600, -51.564
1569.8800, -51.586
1569.9000, -51.598
1569.9200, -51.615
1569.9400, -51.640
1569.9600, -51.652
1569.9800, -51.669
1570.0000, -51.691
1570.0200, -51.702
1570.0400, -51.726
1570.0600, -51.747
1570.0800, -51.763
1570.1000, -51.778
1570.1200, -51.795
1570.1400, -51.813
1570.1600, -51.836
1570.1800, -51.851
1570.2000, -51.870
1570.2200, -51.890
1570.2400, -51.909
1570.2600, -51.926
1570.2800, -51.943
1570.3000, -51.951
1570.3200, -51.976
1570.3400, -51.997
1570.3600, -52.011
1570.3800, -52.028
1570.4000, -52.044
1570.4200, -52.066
1570.4400, -52.078
1570.4600, -52.098
1570.4800, -52.120
1570.5000, -52.127
1570.5200, -52.155
1570.5400, -52.174
1570.5600, -52.187
1570.5800, -52.207
1570.6000, -52.225
1570.6200, -52.245
1570.6400, -52.257
1570.6600, -52.279
1570.6800, -52.305
1570.7000, -52.322
1570.7200, -52.346
1570.7400, -52.360
1570.7600, -52.385
1570.7800, -52.396
1570.8000, -52.413
1570.8200, -52.432
1570.8400, -52.449
1570.8600, -52.465
1570.8800, -52.482
1570.9000, -52.497
1570.9200, -52.515
1570.9400, -52.536
1570.9600, -52.548
1570.9800, -52.568
1571.0000, -52.589
1571.0200, -52.602
1571.0400, -52.615
1571.0600, -52.631
1571.0800, -52.661
1571.1000, -52.667
1571.1200, -52.691
1571.1400, -52.698
1571.1600, -52.712
1571.1800, -52.734
1571.2000, -52.754
1571.2200, -52.767
1571.2400, -52.793
1571.2600, -52.806
1571.2800, -52.824
1571.3000, -52.850
1571.3200, -52.859
1571.3400, -52.884
1571.3600, -52.894
1571.3800, -52.908
1571.4000, -52.929
1571.4200, -52.950
1571.4400, -52.971
1571.4600, -52.986
1571.4800, -53.003
1571.5000, -53.024
1571.5200, -53.040
1571.5400, -53.057
1571.5600, -53.082
1571.5800, -53.108
1571.6000, -53.107
1571.6200, -53.135
1571.6400, -53.149
1571.6600, -53.161
1571.6800, -53.180
1571.7000, -53.185
1571.7200, -53.213
1571.7400, -53.231
1571.7600, -53.243
1571.7800, -53.259
1571.8000, -53.273
1571.8200, -53.289
1571.8400, -53.316
1571.8600, -53.328
1571.8800, -53.351
1571.9000, -53.354
1571.9200, -53.379
1571.9400, -53.389
1571.9600, -53.407
1571.9800, -53.426
1572.0000, -53.443
1572.0200, -53.459
1572.0400, -53.484
1572.0600, -53.502
1572.0800, -53.509
1572.1000, -53.530
1572.1200, -53.535
1572.1400, -53.564
1572.1600, -53.576
1572.1800, -53.590
1572.2000, -53.611
1572.2200, -53.628
1572.2400, -53.638
1572.2600, -53.661
1572.2800, -53.681
1572.3000, -53.696
1572.3200, -53.711
1572.3400, -53.726
1572.3600, -53.742
1572.3800, -53.759
1572.4000, -53.784
1572.4200, -53.802
1572.4400, -53.813
1572.4600, -53.831
1572.4800, -53.836
1572.5000, -53.871
1572.5200, -53.875
1572.5400, -53.903
1572.5600, -53.911
1572.5800, -53.923
1572.6000, -53.951
1572.6200, -53.949
1572.6400, -53.970
1572.6600, -53.993
1572.6800, -53.996
1572.7000, -54.016
1572.7200, -54.031
1572.7400, -54.046
1572.7600, -54.055
1572.7800, -54.083
1572.8000, -54.096
1572.8200, -54.108
1572.8400, -54.123
1572.8600, -54.143
1572.8800, -54.145
1572.9000, -54.169
1572.9200, -54.197
1572.9400, -54.199
1572.9600, -54.215
1572.9800, -54.236
1573.0000, -54.249
1573.0200, -54.277
1573.0400, -54.287
1573.0600, -54.303
1573.0800, -54.306
1573.1000, -54.335
1573.1200, -54.342
1573.1400, -54.367
1573.1600, -54.378
1573.1800, -54.395
1573.2000, -54.414
1573.2200, -54.418
1573.2400, -54.443
1573.2600, -54.465
1573.2800, -54.474
1573.3000, -54.496
1573.3200, -54.498
1573.3400, -54.526
1573.3600, -54.536
1573.3800, -54.551
1573.4000, -54.571
1573.4200, -54.585
1573.4400, -54.589
1573.4600, -54.606
1573.4800, -54.620
1573.5000, -54.647
1573.5200, -54.649
1573.5400, -54.661
1573.5600, -54.685
1573.5800, -54.712
1573.6000, -54.715
1573.6200, -54.731
1573.6400, -54.742
1573.6600, -54.763
1573.6800, -54.774
1573.7000, -54.793
1573.7200, -54.810
1573.7400, -54.813
1573.7600, -54.824
1573.7800, -54.847
1573.8000, -54.865
1573.8200, -54.871
1573.8400, -54.885
1573.8600, -54.904
1573.8800, -54.922
1573.9000, -54.928
1573.9200, -54.962
1573.9400, -54.961
1573.9600, -54.969
1573.9800, -54.984
1574.0000, -55.007
1574.0200, -55.027
1574.0400, -55.037
1574.0600, -55.044
1574.0800, -55.068
1574.1000, -55.093
1574.1200, -55.086
1574.1400, -55.114
1574.1600, -55.127
1574.1800, -55.148
1574.2000, -55.146
1574.2200, -55.184
1574.2400, -55.184
1574.2600, -55.195
1574.2800, -55.207
1574.3000, -55.234
1574.3200, -55.240
1574.3400, -55.252
1574.3600, -55.266
1574.3800, -55.273
1574.4000, -55.302
1574.4200, -55.315
1574.4400, -55.318
1574.4600, -55.341
1574.4800, -55.353
1574.5000, -55.363
1574.5200, -55.376
1574.5400, -55.396
1574.5600, -55.402
1574.5800, -55.420
1574.6000, -55.438
1574.6200, -55.451
1574.6400, -55.458
1574.6600, -55.473
1574.6800, -55.486
1574.7000, -55.502
1574.7200, -55.532
1574.7400, -55.541
1574.7600, -55.547
1574.7800, -55.557
1574.8000, -55.573
1574.8200, -55.580
1574.8400, -55.596
1574.8600, -55.619
1574.8800, -55.641
1574.9000, -55.646
1574.9200, -55.664
1574.9400, -55.679
1574.9600, -55.679
1574.9800, -55.698
1575.0000, -55.727
1575.0200, -55.723
1575.0400, -55.765
1575.0600, -55.754
1575.0800, -55.782
1575.1000, -55.789
1575.1200, -55.801
1575.1400, -55.813
1575.1600, -55.818
1575.1800, -55.837
1575.2000, -55.854
1575.2200, -55.878
1575.2400, -55.872
1575.2600, -55.889
1575.2800, -55.905
1575.3000, -55.918
1575.3200, -55.931
1575.3400, -55.946
1575.3600, -55.953
1575.3800, -55.970
1575.4000, -55.982
1575.4200, -55.991
1575.4400, -56.007
1575.4600, -56.021
1575.4800, -56.027
1575.5000, -56.047
1575.5200, -56.058
1575.5400, -56.080
1575.5600, -56.090
1575.5800, -56.091
1575.6000, -56.120
1575.6200, -56.123
1575.6400, -56.135
1575.6600, -56.146
1575.6800, -56.160
1575.7000, -56.168
1575.7200, -56.196
1575.7400, -56.199
1575.7600, -56.217
1575.7800, -56.230
1575.8000, -56.229
1575.8200, -56.246
1575.8400, -56.274
1575.8600, -56.275
1575.8800, -56.305
1575.9000, -56.319
1575.9200, -56.319
1575.9400, -56.339
1575.9600, -56.347
1575.9800, -56.363
1576.0000, -56.375
1576.0200, -56.381
1576.0400, -56.395
1576.0600, -56.392
1576.0800, -56.428
1576.1000, -56.427
1576.1200, -56.441
1576.1400, -56.459
1576.1600, -56.451
1576.1800, -56.488
1576.2000, -56.475
1576.2200, -56.505
1576.2400, -56.529
1576.2600, -56.528
1576.2800, -56.533
1576.3000, -56.536
1576.3200, -56.569
1576.3400, -56.567
1576.3600, -56.582
1576.3800, -56.600
1576.4000, -56.605
1576.4200, -56.609
1576.4400, -56.625
1576.4600, -56.640
1576.4800, -56.644
1576.5000, -56.666
1576.5200, -56.660
1576.5400, -56.699
1576.5600, -56.683
1576.5800, -56.707
1576.6000, -56.724
1576.6200, -56.732
1576.6400, -56.735
1576.6600, -56.755
1576.6800, -56.765
1576.7000, -56.771
1576.7200, -56.797
1576.7400, -56.802
1576.7600, -56.827
1576.7800, -56.840
1576.8000, -56.826
1576.8200, -56.861
1576.8400, -56.855
1576.8600, -56.875
1576.8800, -56.890
1576.9000, -56.898
1576.9200, -56.903
1576.9400, -56.912
1576.9600, -56.924
1576.9800, -56.947
1577.0000, -56.957
1577.0200, -56.954
1577.0400, -56.973
1577.0600, -56.978
1577.0800, -56.989
1577.1000, -57.003
1577.1200, -57.013
1577.1400, -57.030
1577.1600, -57.035
1577.1800, -57.046
1577.2000, -57.060
1577.2200, -57.072
1577.2400, -57.075
1577.2600, -57.084
1577.2800, -57.106
1577.3000, -57.122
1577.3200, -57.112
1577.3400, -57.123
1577.3600, -57.157
1577.3800, -57.166
1577.4000, -57.145
1577.4200, -57.167
1577.4400, -57.194
1577.4600, -57.198
1577.4800, -57.224
1577.5000, -57.225
1577.5200, -57.225
1577.5400, -57.234
1577.5600, -57.257
1577.5800, -57.268
1577.6000, -57.288
1577.6200, -57.280
1577.6400, -57.297
1577.6600, -57.316
1577.6800, -57.326
1577.7000, -57.328
1577.7200, -57.361
1577.7400, -57.353
1577.7600, -57.347
1577.7800, -57.373
1577.8000, -57.382
1577.8200, -57.395
1577.8400, -57.411
1577.8600, -57.406
1577.8800, -57.424
1577.9000, -57.437
1577.9200, -57.432
1577.9400, -57.464
1577.9600, -57.471
1577.9800, -57.463
1578.0000, -57.501
1578.0200, -57.503
1578.0400, -57.505
1578.0600, -57.511
1578.0800, -57.531
1578.1000, -57.535
1578.1200, -57.535
1578.1400, -57.556
1578.1600, -57.555
1578.1800, -57.574
1578.2000, -57.586
1578.2200, -57.599
1578.2400, -57.623
1578.2600, -57.595
1578.2800, -57.618
1578.3000, -57.636
1578.3200, -57.659
1578.3400, -57.649
1578.3600, -57.675
1578.3800, -57.671
1578.4000, -57.685
1578.4200, -57.703
1578.4400, -57.714
1578.4600, -57.725
1578.4800, -57.740
1578.5000, -57.743
1578.5200, -57.752
1578.5400, -57.788
1578.5600, -57.764
1578.5800, -57.769
1578.6000, -57.812
1578.6200, -57.787
1578.6400, -57.800
1578.6600, -57.818
1578.6800, -57.822
1578.7000, -57.828
1578.7200, -57.853
1578.7400, -57.850
1578.7600, -57.859
1578.7800, -57.873
1578.8000, -57.893
1578.8200, -57.888
1578.8400, -57.899
1578.8600, -57.920
1578.8800, -57.912
1578.9000, -57.935
1578.9200, -57.930
1578.9400, -57.950
1578.9600, -57.970
1578.9800, -57.962
1579.0000, -57.963
1579.0200, -57.976
1579.0400, -57.998
1579.0600, -58.003
1579.0800, -58.011
1579.1000, -58.034
1579.1200, -58.033
1579.1400, -58.060
1579.1600, -58.047
1579.1800, -58.066
1579.2000, -58.073
1579.2200, -58.073
1579.2400, -58.107
1579.2600, -58.093
1579.2800, -58.120
1579.3000, -58.120
1579.3200, -58.115
1579.3400, -58.165
1579.3600, -58.157
1579.3800, -58.151
1579.4000, -58.168
1579.4200, -58.191
1579.4400, -58.200
1579.4600, -58.192
1579.4800, -58.199
1579.5000, -58.192
1579.5200, -58.205
1579.5400, -58.231
1579.5600, -58.244
1579.5800, -58.226
1579.6000, -58.244
1579.6200, -58.260
1579.6400, -58.288
1579.6600, -58.290
1579.6800, -58.292
1579.7000, -58.304
1579.7200, -58.305
1579.7400, -58.330
1579.7600, -58.296
1579.7800, -58.323
1579.8000, -58.344
1579.8200, -58.356
1579.8400, -58.372
1579.8600, -58.351
1579.8800, -58.362
1579.9000, -58.397
1579.9200, -58.382
1579.9400, -58.404
1579.9600, -58.404
1579.9800, -58.423
1580.0000, -58.407
1580.0200, -58.450
1580.0400, -58.432
1580.0600, -58.442
1580.0800, -58.453
1580.1000, -58.474
1580.1200, -58.465
1580.1400, -58.492
1580.1600, -58.501
1580.1800, -58.515
1580.2000, -58.508
1580.2200, -58.521
1580.2400, -58.531
1580.2600, -58.548
1580.2800, -58.540
1580.3000, -58.535
1580.3200, -58.573
1580.3400, -58.571
1580.3600, -58.573
1580.3800, -58.592
1580.4000, -58.595
1580.4200, -58.597
1580.4400, -58.611
1580.4600, -58.640
1580.4800, -58.618
1580.5000, -58.605
1580.5200, -58.647
1580.5400, -58.642
1580.5600, -58.664
1580.5800, -58.664
1580.6000, -58.680
1580.6200, -58.694
1580.6400, -58.694
1580.6600, -58.692
1580.6800, -58.710
1580.7000, -58.698
1580.7200, -58.715
1580.7400, -58.701
1580.7600, -58.757
1580.7800, -58.742
1580.8000, -58.753
1580.8200, -58.757
1580.8400, -58.755
1580.8600, -58.762
1580.8800, -58.768
1580.9000, -58.782
1580.9200, -58.794
1580.9400, -58.807
1580.9600, -58.797
1580.9800, -58.845
1581.0000, -58.832
1581.0200, -58.838
1581.0400, -58.849
1581.0600, -58.872
1581.0800, -58.878
1581.1000, -58.870
1581.1200, -58.881
1581.1400, -58.886
1581.1600, -58.903
1581.1800, -58.936
1581.2000, -58.914
1581.2200, -58.906
1581.2400, -58.921
1581.2600, -58.915
1581.2800, -58.936
1581.3000, -58.937
1581.3200, -58.942
1581.3400, -58.976
1581.3600, -58.957
1581.3800, -58.978
1581.4000, -58.986
1581.4200, -58.988
1581.4400, -58.993
1581.4600, -58.994
1581.4800, -58.977
1581.5000, -59.028
1581.5200, -59.028
1581.5400, -59.040
1581.5600, -59.029
1581.5800, -59.052
1581.6000, -59.054
1581.6200, -59.046
1581.6400, -59.066
1581.6600, -59.069
1581.6800, -59.081
1581.7000, -59.079
1581.7200, -59.095
1581.7400, -59.094
1581.7600, -59.096
1581.7800, -59.132
1581.8000, -59.121
1581.8200, -59.119
1581.8400, -59.146
1581.8600, -59.149
1581.8800, -59.164
1581.9000, -59.171
1581.9200, -59.192
1581.9400, -59.182
1581.9600, -59.182
1581.9800, -59.188
1582.0000, -59.221
1582.0200, -59.218
1582.0400, -59.208
1582.0600, -59.229
1582.0800, -59.223
1582.1000, -59.259
1582.1200, -59.245
1582.1400, -59.241
1582.1600, -59.244
1582.1800, -59.267
1582.2000, -59.275
1582.2200, -59.268
1582.2400, -59.287
1582.2600, -59.294
1582.2800, -59.280
1582.3000, -59.310
1582.3200, -59.320
1582.3400, -59.322
1582.3600, -59.311
1582.3800, -59.309
1582.4000, -59.330
1582.4200, -59.332
1582.4400, -59.335
1582.4600, -59.343
1582.4800, -59.364
1582.5000, -59.355
1582.5200, -59.363
1582.5400, -59.392
1582.5600, -59.398
1582.5800, -59.398
1582.6000, -59.394
1582.6200, -59.391
1582.6400, -59.403
1582.6600, -59.413
1582.6800, -59.405
1582.7000, -59.451
1582.7200, -59.445
1582.7400, -59.467
1582.7600, -59.466
1582.7800, -59.471
1582.8000, -59.465
1582.8200, -59.484
1582.8400, -59.474
1582.8600, -59.485
1582.8800, -59.525
1582.9000, -59.515
1582.9200, -59.493
1582.9400, -59.531
1582.9600, -59.514
1582.9800, -59.525
1583.0000, -59.530
1583.0200, -59.531
1583.0400, -59.576
1583.0600, -59.569
1583.0800, -59.545
1583.1000, -59.555
1583.1200, -59.565
1583.1400, -59.601
1583.1600, -59.596
1583.1800, -59.579
1583.2000, -59.594
1583.2200, -59.602
1583.2400, -59.601
1583.2600, -59.604
1583.2800, -59.631
1583.3000, -59.643
1583.3200, -59.648
1583.3400, -59.649
1583.3600, -59.646
1583.3800, -59.657
1583.4000, -59.653
1583.4200, -59.657
1583.4400, -59.689
1583.4600, -59.680
1583.4800, -59.681
1583.5000, -59.676
1583.5200, -59.706
1583.5400, -59.717
1583.5600, -59.721
1583.5800, -59.713
1583.6000, -59.750
1583.6200, -59.724
1583.6400, -59.722
1583.6600, -59.762
1583.6800, -59.763
1583.7000, -59.782
1583.7200, -59.758
1583.7400, -59.784
1583.7600, -59.787
1583.7800, -59.799
1583.8000, -59.780
1583.8200, -59.786
1583.8400, -59.820
1583.8600, -59.815
1583.8800, -59.814
1583.9000, -59.802
1583.9200, -59.826
1583.9400, -59.820
1583.9600, -59.901
1583.9800, -59.810
1584.0000, -59.847
1584.0200, -59.850
1584.0400, -59.886
1584.0600, -59.844
1584.0800, -59.855
1584.1000, -59.878
1584.1200, -59.914
1584.1400, -59.902
1584.1600, -59.885
1584.1800, -59.903
1584.2000, -59.920
1584.2200, -59.903
1584.2400, -59.934
1584.2600, -59.932
1584.2800, -59.921
1584.3000, -59.948
1584.3200, -59.926
1584.3400, -59.936
1584.3600, -59.924
1584.3800, -59.991
1584.4000, -59.964
1584.4200, -59.986
1584.4400, -59.989
1584.4600, -59.997
1584.4800, -59.983
1584.5000, -59.987
1584.5200, -60.023
1584.5400, -60.000
1584.5600, -60.012
1584.5800, -60.029
1584.6000, -60.029
1584.6200, -60.066
1584.6400, -60.020
1584.6600, -60.022
1584.6800, -60.014
1584.7000, -60.058
1584.7200, -60.049
1584.7400, -60.058
1584.7600, -60.087
1584.7800, -60.034
1584.8000, -60.094
1584.8200, -60.086
1584.8400, -60.060
1584.8600, -60.083
1584.8800, -60.093
1584.9000, -60.104
1584.9200, -60.106
1584.9400, -60.133
1584.9600, -60.123
1584.9800, -60.109
1585.0000, -60.147
1585.0200, -60.136
1585.0400, -60.116
1585.0600, -60.131
1585.0800, -60.154
1585.1000, -60.143
1585.1200, -60.150
1585.1400, -60.169
1585.1600, -60.166
1585.1800, -60.197
1585.2000, -60.166
1585.2200, -60.184
1585.2400, -60.212
1585.2600, -60.185
1585.2800, -60.205
1585.3000, -60.214
1585.3200, -60.244
1585.3400, -60.204
1585.3600, -60.250
1585.3800, -60.238
1585.4000, -60.220
1585.4200, -60.242
1585.4400, -60.243
1585.4600, -60.269
1585.4800, -60.237
1585.5000, -60.252
1585.5200, -60.279
1585.5400, -60.274
1585.5600, -60.304
1585.5800, -60.290
1585.6000, -60.300
1585.6200, -60.290
1585.6400, -60.273
1585.6600, -60.300
1585.6800, -60.284
1585.7000, -60.310
1585.7200, -60.314
1585.7400, -60.304
1585.7600, -60.355
1585.7800, -60.325
1585.8000, -60.375
1585.8200, -60.318
1585.8400, -60.344
1585.8600, -60.354
1585.8800, -60.346
1585.9000, -60.373
1585.9200, -60.379
1585.9400, -60.365
1585.9600, -60.387
1585.9800, -60.336
1586.0000, -60.380
1586.0200, -60.369
1586.0400, -60.403
1586.0600, -60.383
1586.0800, -60.398
1586.1000, -60.444
1586.1200, -60.424
1586.1400, -60.415
1586.1600, -60.430
1586.1800, -60.410
1586.2000, -60.428
1586.2200, -60.452
1586.2400, -60.464
1586.2600, -60.464
1586.2800, -60.434
1586.3000, -60.463
1586.3200, -60.464
1586.3400, -60.462
1586.3600, -60.459
1586.3800, -60.485
1586.4000, -60.516
1586.4200, -60.482
1586.4400, -60.521
1586.4600, -60.491
1586.4800, -60.484
1586.5000, -60.534
1586.5200, -60.518
1586.5400, -60.486
1586.5600, -60.537
1586.5800, -60.540
1586.6000, -60.509
1586.6200, -60.545
1586.6400, -60.576
1586.6600, -60.556
1586.6800, -60.543
1586.7000, -60.588
1586.7200, -60.557
1586.7400, -60.597
1586.7600, -60.585
1586.7800, -60.595
1586.8000, -60.577
1586.8200, -60.577
1586.8400, -60.602
1586.8600, -60.603
1586.8800, -60.582
1586.9000, -60.670
1586.9200, -60.606
1586.9400, -60.618
1586.9600, -60.629
1586.9800, -60.634
1587.0000, -60.679
1587.0200, -60.612
1587.0400, -60.681
1587.0600, -60.663
1587.0800, -60.649
1587.1000, -60.649
1587.1200, -60.644
1587.1400, -60.668
1587.1600, -60.660
1587.1800, -60.661
1587.2000, -60.697
1587.2200, -60.686
1587.2400, -60.679
1587.2600, -60.697
1587.2800, -60.704
1587.3000, -60.700
1587.3200, -60.721
1587.3400, -60.705
1587.3600, -60.726
1587.3800, -60.723
1587.4000, -60.721
1587.4200, -60.720
1587.4400, -60.804
1587.4600, -60.725
1587.4800, -60.771
1587.5000, -60.761
1587.5200, -60.713
1587.5400, -60.797
1587.5600, -60.784
1587.5800, -60.773
1587.6000, -60.751
1587.6200, -60.797
1587.6400, -60.790
1587.6600, -60.816
1587.6800, -60.801
1587.7000, -60.811
1587.7200, -60.810
1587.7400, -60.809
1587.7600, -60.804
1587.7800, -60.838
1587.8000, -60.848
1587.8200, -60.839
1587.8400, -60.854
1587.8600, -60.814
1587.8800, -60.879
1587.9000, -60.872
1587.9200, -60.859
1587.9400, -60.843
1587.9600, -60.884
1587.9800, -60.857
1588.0000, -60.860
1588.0200, -60.893
1588.0400, -60.899
1588.0600, -60.905
1588.0800, -60.870
1588.1000, -60.900
1588.1200, -60.911
1588.1400, -60.904
1588.1600, -60.915
1588.1800, -60.927
1588.2000, -60.892
1588.2200, -60.899
1588.2400, -60.940
1588.2600, -60.930
1588.2800, -60.943
1588.3000, -60.940
1588.3200, -60.958
1588.3400, -60.930
1588.3600, -60.933
1588.3800, -60.947
1588.4000, -60.990
1588.4200, -60.973
1588.4400, -60.923
1588.4600, -60.984
1588.4800, -60.977
1588.5000, -60.971
1588.5200, -60.989
1588.5400, -61.007
1588.5600, -60.975
1588.5800, -61.013
1588.6000, -61.002
1588.6200, -60.997
1588.6400, -61.047
1588.6600, -61.003
1588.6800, -61.043
1588.7000, -61.043
1588.7200, -61.056
1588.7400, -61.038
1588.7600, -61.097
1588.7800, -61.032
1588.8000, -61.042
1588.8200, -61.027
1588.8400, -61.069
1588.8600, -61.059
1588.8800, -61.072
1588.9000, -61.111
1588.9200, -61.066
1588.9400, -61.092
1588.9600, -61.114
1588.9800, -61.107
1589.0000, -61.108
1589.0200, -61.094
1589.0400, -61.098
1589.0600, -61.091
1589.0800, -61.116
1589.1000, -61.133
1589.1200, -61.161
1589.1400, -61.083
1589.1600, -61.172
1589.1800, -61.114
1589.2000, -61.155
1589.2200, -61.084
1589.2400, -61.162
1589.2600, -61.171
1589.2800, -61.187
1589.3000, -61.178
1589.3200, -61.131
1589.3400, -61.201
1589.3600, -61.182
1589.3800, -61.156
1589.4000, -61.187
1589.4200, -61.192
1589.4400, -61.192
1589.4600, -61.207
1589.4800, -61.224
1589.5000, -61.183
1589.5200, -61.232
1589.5400, -61.211
1589.5600, -61.255
1589.5800, -61.227
1589.6000, -61.247
1589.6200, -61.247
1589.6400, -61.209
1589.6600, -61.254
1589.6800, -61.257
1589.7000, -61.257
1589.7200, -61.210
1589.7400, -61.239
1589.7600, -61.272
1589.7800, -61.259
1589.8000, -61.299
1589.8200, -61.274
1589.8400, -61.253
1589.8600, -61.273
1589.8800, -61.274
1589.9000, -61.315
1589.9200, -61.276
1589.9400, -61.266
1589.9600, -61.317
1589.9800, -61.335
1590.0000, -61.263
1590.0200, -61.314
1590.0400, -61.326
1590.0600, -61.337
1590.0800, -61.290
1590.1000, -61.330
1590.1200, -61.339
1590.1400, -61.328
1590.1600, -61.351
1590.1800, -61.348
1590.2000, -61.359
1590.2200, -61.369
1590.2400, -61.383
1590.2600, -61.357
1590.2800, -61.357
1590.3000, -61.366
1590.3200, -61.409
1590.3400, -61.387
1590.3600, -61.433
1590.3800, -61.363
1590.4000, -61.414
1590.4200, -61.403
1590.4400, -61.405
1590.4600, -61.404
1590.4800, -61.401
1590.5000, -61.423
1590.5200, -61.436
1590.5400, -61.417
1590.5600, -61.426
1590.5800, -61.489
1590.6000, -61.415
1590.6200, -61.460
1590.6400, -61.439
1590.6600, -61.426
1590.6800, -61.473
1590.7000, -61.459
1590.7200, -61.460
1590.7400, -61.494
1590.7600, -61.462
1590.7800, -61.485
1590.8000, -61.478
1590.8200, -61.492
1590.8400, -61.521
1590.8600, -61.491
1590.8800, -61.496
1590.9000, -61.481
1590.9200, -61.528
1590.9400, -61.524
1590.9600, -61.482
1590.9800, -61.541
1591.0000, -61.521
1591.0200, -61.538
1591.0400, -61.531
1591.0600, -61.518
1591.0800, -61.579
1591.1000, -61.547
1591.1200, -61.544
1591.1400, -61.556
1591.1600, -61.605
1591.1800, -61.547
1591.2000, -61.573
1591.2200, -61.581
1591.2400, -61.584
1591.2600, -61.617
1591.2800, -61.584
1591.3000, -61.592
1591.3200, -61.598
1591.3400, -61.591
1591.3600, -61.615
1591.3800, -61.620
1591.4000, -61.624
1591.4200, -61.618
1591.4400, -61.626
1591.4600, -61.681
1591.4800, -61.625
1591.5000, -61.672
1591.5200, -61.679
1591.5400, -61.629
1591.5600, -61.632
1591.5800, -61.660
1591.6000, -61.642
1591.6200, -61.674
1591.6400, -61.685
1591.6600, -61.654
1591.6800, -61.684
1591.7000, -61.661
1591.7200, -61.699
1591.7400, -61.689
1591.7600, -61.715
1591.7800, -61.670
1591.8000, -61.706
1591.8200, -61.693
1591.8400, -61.730
1591.8600, -61.693
1591.8800, -61.794
1591.9000, -61.686
1591.9200, -61.744
1591.9400, -61.739
1591.9600, -61.771
1591.9800, -61.768
1592.0000, -61.731
1592.0200, -61.767
1592.0400, -61.753
1592.0600, -61.757
1592.0800, -61.773
1592.1000, -61.757
1592.1200, -61.774
1592.1400, -61.768
1592.1600, -61.835
1592.1800, -61.768
1592.2000, -61.749
1592.2200, -61.822
1592.2400, -61.834
1592.2600, -61.812
1592.2800, -61.775
1592.3000, -61.802
1592.3200, -61.792
1592.3400, -61.896
1592.3600, -61.812
1592.3800, -61.774
1592.4000, -61.820
1592.4200, -61.863
1592.4400, -61.860
1592.4600, -61.816
1592.4800, -61.835
1592.5000, -61.837
1592.5200, -61.908
1592.5400, -61.834
1592.5600, -61.872
1592.5800, -61.868
1592.6000, -61.802
1592.6200, -61.902
1592.6400, -61.896
1592.6600, -61.894
1592.6800, -61.863
1592.7000, -61.856
1592.7200, -61.856
1592.7400, -61.898
1592.7600, -61.921
1592.7800, -61.920
1592.8000, -61.894
1592.8200, -61.884
1592.8400, -61.945
1592.8600, -61.935
1592.8800, -61.991
1592.9000, -61.878
1592.9200, -61.967
1592.9400, -61.956
1592.9600, -61.962
1592.9800, -61.947
1593.0000, -61.933
1593.0200, -61.980
1593.0400, -61.966
1593.0600, -61.949
1593.0800, -61.960
1593.1000, -62.001
1593.1200, -61.948
1593.1400, -61.998
1593.1600, -61.997
1593.1800, -61.974
1593.2000, -61.990
1593.2200, -62.044
1593.2400, -62.010
1593.2600, -61.971
1593.2800, -62.045
1593.3000, -61.943
1593.3200, -62.051
1593.3400, -61.983
1593.3600, -62.001
1593.3800, -62.044
1593.4000, -62.041
1593.4200, -62.056
1593.4400, -62.061
1593.4600, -62.008
1593.4800, -62.064
1593.5000, -62.073
1593.5200, -62.038
1593.5400, -62.050
1593.5600, -62.121
1593.5800, -62.049
1593.6000, -62.046
1593.6200, -62.061
1593.6400, -62.138
1593.6600, -62.091
1593.6800, -62.075
1593.7000, -62.069
1593.7200, -62.104
1593.7400, -62.128
1593.7600, -62.133
1593.7800, -62.108
1593.8000, -62.127
1593.8200, -62.101
1593.8400, -62.122
1593.8600, -62.132
1593.8800, -62.127
1593.9000, -62.156
1593.9200, -62.114
1593.9400, -62.140
1593.9600, -62.125
1593.9800, -62.155
1594.0000, -62.136
1594.0200, -62.179
1594.0400, -62.212
1594.0600, -62.198
1594.0800, -62.106
1594.1000, -62.183
1594.1200, -62.189
1594.1400, -62.182
1594.1600, -62.196
1594.1800, -62.205
1594.2000, -62.210
1594.2200, -62.236
1594.2400, -62.201
1594.2600, -62.220
1594.2800, -62.156
1594.3000, -62.265
1594.3200, -62.229
1594.3400, -62.175
1594.3600, -62.210
1594.3800, -62.229
1594.4000, -62.279
1594.4200, -62.219
1594.4400, -62.229
1594.4600, -62.274
1594.4800, -62.249
1594.5000, -62.252
1594.5200, -62.281
1594.5400, -62.263
1594.5600, -62.253
1594.5800, -62.290
1594.6000, -62.252
1594.6200, -62.303
1594.6400, -62.299
1594.6600, -62.289
1594.6800, -62.292
1594.7000, -62.327
1594.7200, -62.344
1594.7400, -62.314
1594.7600, -62.240
1594.7800, -62.345
1594.8000, -62.312
1594.8200, -62.297
1594.8400, -62.368
1594.8600, -62.331
1594.8800, -62.397
1594.9000, -62.331
1594.9200, -62.346
1594.9400, -62.363
1594.9600, -62.356
1594.9800, -62.321
1595.0000, -62.327
1595.0200, -62.410
1595.0400, -62.355
1595.0600, -62.369
1595.0800, -62.366
1595.1000, -62.410
1595.1200, -62.332
1595.1400, -62.388
1595.1600, -62.431
1595.1800, -62.349
1595.2000, -62.395
1595.2200, -62.447
1595.2400, -62.424
1595.2600, -62.382
1595.2800, -62.445
1595.3000, -62.429
1595.3200, -62.421
1595.3400, -62.460
1595.3600, -62.418
1595.3800, -62.487
1595.4000, -62.469
1595.4200, -62.458
1595.4400, -62.409
1595.4600, -62.493
1595.4800, -62.422
1595.5000, -62.522
1595.5200, -62.436
1595.5400, -62.547
1595.5600, -62.480
1595.5800, -62.483
1595.6000, -62.497
1595.6200, -62.477
1595.6400, -62.493
1595.6600, -62.471
1595.6800, -62.517
1595.7000, -62.530
1595.7200, -62.523
1595.7400, -62.526
1595.7600, -62.522
1595.7800, -62.474
1595.8000, -62.516
1595.8200, -62.607
1595.8400, -62.534
1595.8600, -62.556
1595.8800, -62.565
1595.9000, -62.553
1595.9200, -62.551
1595.9400, -62.555
1595.9600, -62.551
1595.9800, -62.577
1596.0000, -62.553
1596.0200, -62.596
1596.0400, -62.582
1596.0600, -62.597
1596.0800, -62.565
1596.1000, -62.592
1596.1200, -62.587
1596.1400, -62.565
1596.1600, -62.594
1596.1800, -62.704
1596.2000, -62.595
1596.2200, -62.621
1596.2400, -62.633
1596.2600, -62.625
1596.2800, -62.640
1596.3000, -62.599
1596.3200, -62.678
1596.3400, -62.685
1596.3600, -62.635
1596.3800, -62.618
1596.4000, -62.633
1596.4200, -62.651
1596.4400, -62.639
1596.4600, -62.693
1596.4800, -62.667
1596.5000, -62.655
1596.5200, -62.695
1596.5400, -62.671
1596.5600, -62.698
1596.5800, -62.668
1596.6000, -62.696
1596.6200, -62.676
1596.6400, -62.696
1596.6600, -62.708
1596.6800, -62.752
1596.7000, -62.745
1596.7200, -62.714
1596.7400, -62.724
1596.7600, -62.708
1596.7800, -62.711
1596.8000, -62.733
1596.8200, -62.737
1596.8400, -62.739
1596.8600, -62.719
1596.8800, -62.727
1596.9000, -62.744
1596.9200, -62.745
1596.9400, -62.796
1596.9600, -62.814
1596.9800, -62.768
1597.0000, -62.800
1597.0200, -62.757
1597.0400, -62.754
1597.0600, -62.754
1597.0800, -62.809
1597.1000, -62.821
1597.1200, -62.825
1597.1400, -62.772
1597.1600, -62.839
1597.1800, -62.813
1597.2000, -62.827
1597.2200, -62.823
1597.2400, -62.829
1597.2600, -62.795
1597.2800, -62.847
1597.3000, -62.782
1597.3200, -62.890
1597.3400, -62.804
1597.3600, -62.869
1597.3800, -62.843
1597.4000, -62.812
1597.4200, -62.883
1597.4400, -62.816
1597.4600, -62.863
1597.4800, -62.925
1597.5000, -62.852
1597.5200, -62.887
1597.5400, -62.875
1597.5600, -62.825
1597.5800, -62.865
1597.6000, -62.868
1597.6200, -62.937
1597.6400, -62.861
1597.6600, -62.865
1597.6800, -62.921
1597.7000, -62.969
1597.7200, -62.803
1597.7400, -62.933
1597.7600, -62.891
1597.7800, -62.903
1597.8000, -62.928
1597.8200, -62.967
1597.8400, -62.914
1597.8600, -62.938
1597.8800, -62.917
1597.9000, -62.922
1597.9200, -63.063
1597.9400, -62.919
1597.9600, -63.038
1597.9800, -62.891
1598.0000, -63.015
1598.0200, -62.945
1598.0400, -62.976
1598.0600, -63.017
1598.0800, -62.933
1598.1000, -62.933
1598.1200, -62.978
1598.1400, -62.982
1598.1600, -63.004
1598.1800, -62.976
1598.2000, -63.058
1598.2200, -62.948
1598.2400, -63.033
1598.2600, -63.111
1598.2800, -63.002
1598.3000, -63.006
1598.3200, -63.072
1598.3400, -63.017
1598.3600, -63.031
1598.3800, -63.028
1598.4000, -62.978
1598.4200, -63.100
1598.4400, -62.991
1598.4600, -63.030
1598.4800, -63.039
1598.5000, -63.073
1598.5200, -63.125
1598.5400, -63.018
1598.5600, -63.136
1598.5800, -63.082
1598.6000, -63.056
1598.6200, -63.101
1598.6400, -63.115
1598.6600, -63.072
1598.6800, -63.082
1598.7000, -63.212
1598.7200, -63.110
1598.7400, -63.103
1598.7600, -63.154
1598.7800, -63.073
1598.8000, -63.183
1598.8200, -63.098
1598.8400, -63.102
1598.8600, -63.159
1598.8800, -63.152
1598.9000, -63.170
1598.9200, -63.205
1598.9400, -63.191
1598.9600, -63.126
1598.9800, -63.185
1599.0000, -63.197
1599.0200, -63.119
1599.0400, -63.192
1599.0600, -63.274
1599.0800, -63.160
1599.1000, -63.211
1599.1200, -63.189
1599.1400, -63.171
1599.1600, -63.199
1599.1800, -63.178
1599.2000, -63.187
1599.2200, -63.279
1599.2400, -63.221
1599.2600, -63.160
1599.2800, -63.259
1599.3000, -63.215
1599.3200, -63.274
1599.3400, -63.229
1599.3600, -63.220
1599.3800, -63.223
1599.4000, -63.240
1599.4200, -63.268
1599.4400, -63.268
1599.4600, -63.317
1599.4800, -63.303
1599.5000, -63.257
1599.5200, -63.248
1599.5400, -63.273
1599.5600, -63.316
1599.5800, -63.309
1599.6000, -63.345
1599.6200, -63.233
1599.6400, -63.291
1599.6600, -63.376
1599.6800, -63.309
1599.7000, -63.349
1599.7200, -63.322
1599.7400, -63.244
1599.7600, -63.326
1599.7800, -63.338
1599.8000, -63.400
1599.8200, -63.361
1599.8400, -63.351
1599.8600, -63.343
1599.8800, -63.290
1599.9000, -63.403
1599.9200, -63.328
1599.9400, -63.373
1599.9600, -63.488
1599.9800, -63.284
1600.0000, -63.374
