70BCSV 	
// AQ6370B OPTICAL SPECTRUM ANALYZER //                 
25
"CTRWL",1550.000000
"SPAN", 100.000000
"START WL",1500.000000
"STOP WL",1600.000000
"WLFREQ", 0
"REFL",-28.8
"LSCL", 5.0
"RESLN",0.100
"AVG",   1
"SMPLAUTO",      0
"SMPL",       5001
"SMPLINTVL",0.0200
"HIGH1"
"MEAS"
"LSUNT",0
"NMSKH","OFF"
"RESCOR",0
"RESPARM", 9050
"FREQPARM", 9050






"[TRACE DATA]"
1500.0000, -62.087
1500.0200, -62.065
1500.0400, -62.033
1500.0600, -62.037
1500.0800, -62.052
1500.1000, -62.046
1500.1200, -62.044
1500.1400, -62.021
1500.1600, -62.024
1500.1800, -62.042
1500.2000, -62.002
1500.2200, -62.015
1500.2400, -61.996
1500.2600, -62.000
1500.2800, -62.013
1500.3000, -61.998
1500.3200, -61.984
1500.3400, -62.016
1500.3600, -61.995
1500.3800, -61.944
1500.4000, -61.930
1500.4200, -61.979
1500.4400, -61.984
1500.4600, -61.975
1500.4800, -61.932
1500.5000, -61.912
1500.5200, -61.974
1500.5400, -61.950
1500.5600, -61.911
1500.5800, -61.947
1500.6000, -61.913
1500.6200, -61.921
1500.6400, -61.871
1500.6600, -61.900
1500.6800, -61.890
1500.7000, -61.909
1500.7200, -61.877
1500.7400, -61.877
1500.7600, -61.876
1500.7800, -61.855
1500.8000, -61.874
1500.8200, -61.852
1500.8400, -61.859
1500.8600, -61.835
1500.8800, -61.843
1500.9000, -61.833
1500.9200, -61.825
1500.9400, -61.783
1500.9600, -61.793
1500.9800, -61.789
1501.0000, -61.794
1501.0200, -61.761
1501.0400, -61.794
1501.0600, -61.787
1501.0800, -61.786
1501.1000, -61.751
1501.1200, -61.756
1501.1400, -61.762
1501.1600, -61.751
1501.1800, -61.760
1501.2000, -61.738
1501.2200, -61.753
1501.2400, -61.732
1501.2600, -61.714
1501.2800, -61.712
1501.3000, -61.698
1501.3200, -61.722
1501.3400, -61.686
1501.3600, -61.689
1501.3800, -61.704
1501.4000, -61.689
1501.4200, -61.664
1501.4400, -61.672
1501.4600, -61.684
1501.4800, -61.674
1501.5000, -61.677
1501.5200, -61.654
1501.5400, -61.668
1501.5600, -61.644
1501.5800, -61.664
1501.6000, -61.627
1501.6200, -61.623
1501.6400, -61.650
1501.6600, -61.603
1501.6800, -61.577
1501.7000, -61.631
1501.7200, -61.606
1501.7400, -61.593
1501.7600, -61.577
1501.7800, -61.584
1501.8000, -61.589
1501.8200, -61.595
1501.8400, -61.552
1501.8600, -61.576
1501.8800, -61.571
1501.9000, -61.561
1501.9200, -61.532
1501.9400, -61.527
1501.9600, -61.537
1501.9800, -61.537
1502.0000, -61.499
1502.0200, -61.501
1502.0400, -61.504
1502.0600, -61.505
1502.0800, -61.499
1502.1000, -61.487
1502.1200, -61.479
1502.1400, -61.484
1502.1600, -61.453
1502.1800, -61.492
1502.2000, -61.462
1502.2200, -61.409
1502.2400, -61.452
1502.2600, -61.435
1502.2800, -61.449
1502.3000, -61.427
1502.3200, -61.381
1502.3400, -61.400
1502.3600, -61.419
1502.3800, -61.410
1502.4000, -61.401
1502.4200, -61.396
1502.4400, -61.390
1502.4600, -61.353
1502.4800, -61.354
1502.5000, -61.404
1502.5200, -61.326
1502.5400, -61.345
1502.5600, -61.356
1502.5800, -61.332
1502.6000, -61.316
1502.6200, -61.327
1502.6400, -61.309
1502.6600, -61.298
1502.6800, -61.302
1502.7000, -61.277
1502.7200, -61.310
1502.7400, -61.304
1502.7600, -61.292
1502.7800, -61.290
1502.8000, -61.273
1502.8200, -61.243
1502.8400, -61.248
1502.8600, -61.251
1502.8800, -61.293
1502.9000, -61.215
1502.9200, -61.218
1502.9400, -61.197
1502.9600, -61.204
1502.9800, -61.190
1503.0000, -61.163
1503.0200, -61.199
1503.0400, -61.190
1503.0600, -61.189
1503.0800, -61.167
1503.1000, -61.176
1503.1200, -61.185
1503.1400, -61.107
1503.1600, -61.132
1503.1800, -61.124
1503.2000, -61.143
1503.2200, -61.116
1503.2400, -61.111
1503.2600, -61.117
1503.2800, -61.113
1503.3000, -61.098
1503.3200, -61.079
1503.3400, -61.061
1503.3600, -61.080
1503.3800, -61.118
1503.4000, -61.071
1503.4200, -61.057
1503.4400, -61.041
1503.4600, -61.050
1503.4800, -61.052
1503.5000, -61.028
1503.5200, -61.034
1503.5400, -60.988
1503.5600, -61.022
1503.5800, -61.018
1503.6000, -60.977
1503.6200, -61.000
1503.6400, -60.969
1503.6600, -60.962
1503.6800, -60.976
1503.7000, -60.974
1503.7200, -60.960
1503.7400, -60.943
1503.7600, -60.902
1503.7800, -60.928
1503.8000, -60.935
1503.8200, -60.899
1503.8400, -60.904
1503.8600, -60.927
1503.8800, -60.912
1503.9000, -60.891
1503.9200, -60.896
1503.9400, -60.910
1503.9600, -60.874
1503.9800, -60.851
1504.0000, -60.907
1504.0200, -60.853
1504.0400, -60.854
1504.0600, -60.845
1504.0800, -60.817
1504.1000, -60.839
1504.1200, -60.837
1504.1400, -60.768
1504.1600, -60.810
1504.1800, -60.778
1504.2000, -60.796
1504.2200, -60.786
1504.2400, -60.769
1504.2600, -60.795
1504.2800, -60.757
1504.3000, -60.730
1504.3200, -60.733
1504.3400, -60.754
1504.3600, -60.743
1504.3800, -60.757
1504.4000, -60.705
1504.4200, -60.714
1504.4400, -60.718
1504.4600, -60.707
1504.4800, -60.656
1504.5000, -60.692
1504.5200, -60.667
1504.5400, -60.671
1504.5600, -60.669
1504.5800, -60.649
1504.6000, -60.638
1504.6200, -60.640
1504.6400, -60.625
1504.6600, -60.635
1504.6800, -60.622
1504.7000, -60.585
1504.7200, -60.609
1504.7400, -60.614
1504.7600, -60.613
1504.7800, -60.564
1504.8000, -60.587
1504.8200, -60.581
1504.8400, -60.559
1504.8600, -60.538
1504.8800, -60.536
1504.9000, -60.530
1504.9200, -60.501
1504.9400, -60.523
1504.9600, -60.494
1504.9800, -60.542
1505.0000, -60.490
1505.0200, -60.463
1505.0400, -60.483
1505.0600, -60.504
1505.0800, -60.440
1505.1000, -60.447
1505.1200, -60.441
1505.1400, -60.424
1505.1600, -60.461
1505.1800, -60.457
1505.2000, -60.380
1505.2200, -60.459
1505.2400, -60.428
1505.2600, -60.380
1505.2800, -60.421
1505.3000, -60.372
1505.3200, -60.384
1505.3400, -60.380
1505.3600, -60.358
1505.3800, -60.360
1505.4000, -60.332
1505.4200, -60.331
1505.4400, -60.327
1505.4600, -60.296
1505.4800, -60.296
1505.5000, -60.320
1505.5200, -60.294
1505.5400, -60.307
1505.5600, -60.276
1505.5800, -60.274
1505.6000, -60.256
1505.6200, -60.256
1505.6400, -60.267
1505.6600, -60.251
1505.6800, -60.226
1505.7000, -60.231
1505.7200, -60.233
1505.7400, -60.236
1505.7600, -60.215
1505.7800, -60.219
1505.8000, -60.190
1505.8200, -60.188
1505.8400, -60.183
1505.8600, -60.178
1505.8800, -60.143
1505.9000, -60.157
1505.9200, -60.136
1505.9400, -60.134
1505.9600, -60.120
1505.9800, -60.123
1506.0000, -60.116
1506.0200, -60.111
1506.0400, -60.094
1506.0600, -60.090
1506.0800, -60.082
1506.1000, -60.104
1506.1200, -60.074
1506.1400, -60.067
1506.1600, -60.079
1506.1800, -60.014
1506.2000, -60.041
1506.2200, -60.046
1506.2400, -60.040
1506.2600, -60.028
1506.2800, -60.002
1506.3000, -59.994
1506.3200, -59.997
1506.3400, -60.001
1506.3600, -59.980
1506.3800, -59.974
1506.4000, -59.974
1506.4200, -59.959
1506.4400, -59.942
1506.4600, -59.956
1506.4800, -59.928
1506.5000, -59.930
1506.5200, -59.913
1506.5400, -59.907
1506.5600, -59.913
1506.5800, -59.900
1506.6000, -59.881
1506.6200, -59.918
1506.6400, -59.857
1506.6600, -59.839
1506.6800, -59.860
1506.7000, -59.829
1506.7200, -59.826
1506.7400, -59.827
1506.7600, -59.818
1506.7800, -59.801
1506.8000, -59.813
1506.8200, -59.798
1506.8400, -59.820
1506.8600, -59.753
1506.8800, -59.774
1506.9000, -59.759
1506.9200, -59.770
1506.9400, -59.743
1506.9600, -59.746
1506.9800, -59.751
1507.0000, -59.712
1507.0200, -59.716
1507.0400, -59.713
1507.0600, -59.696
1507.0800, -59.699
1507.1000, -59.667
1507.1200, -59.678
1507.1400, -59.673
1507.1600, -59.688
1507.1800, -59.636
1507.2000, -59.658
1507.2200, -59.611
1507.2400, -59.658
1507.2600, -59.641
1507.2800, -59.644
1507.3000, -59.624
1507.3200, -59.602
1507.3400, -59.604
1507.3600, -59.580
1507.3800, -59.588
1507.4000, -59.559
1507.4200, -59.576
1507.4400, -59.551
1507.4600, -59.551
1507.4800, -59.528
1507.5000, -59.528
1507.5200, -59.517
1507.5400, -59.518
1507.5600, -59.500
1507.5800, -59.494
1507.6000, -59.490
1507.6200, -59.479
1507.6400, -59.490
1507.6600, -59.462
1507.6800, -59.450
1507.7000, -59.446
1507.7200, -59.416
1507.7400, -59.441
1507.7600, -59.404
1507.7800, -59.414
1507.8000, -59.394
1507.8200, -59.384
1507.8400, -59.382
1507.8600, -59.409
1507.8800, -59.348
1507.9000, -59.355
1507.9200, -59.350
1507.9400, -59.354
1507.9600, -59.313
1507.9800, -59.321
1508.0000, -59.320
1508.0200, -59.324
1508.0400, -59.293
1508.0600, -59.306
1508.0800, -59.296
1508.1000, -59.282
1508.1200, -59.281
1508.1400, -59.257
1508.1600, -59.268
1508.1800, -59.252
1508.2000, -59.251
1508.2200, -59.266
1508.2400, -59.236
1508.2600, -59.229
1508.2800, -59.225
1508.3000, -59.201
1508.3200, -59.213
1508.3400, -59.198
1508.3600, -59.187
1508.3800, -59.175
1508.4000, -59.152
1508.4200, -59.168
1508.4400, -59.143
1508.4600, -59.141
1508.4800, -59.129
1508.5000, -59.110
1508.5200, -59.123
1508.5400, -59.115
1508.5600, -59.090
1508.5800, -59.097
1508.6000, -59.078
1508.6200, -59.063
1508.6400, -59.070
1508.6600, -59.048
1508.6800, -59.035
1508.7000, -59.051
1508.7200, -59.026
1508.7400, -59.024
1508.7600, -59.008
1508.7800, -58.994
1508.8000, -58.995
1508.8200, -59.006
1508.8400, -58.996
1508.8600, -58.967
1508.8800, -58.956
1508.9000, -58.958
1508.9200, -58.948
1508.9400, -58.932
1508.9600, -58.914
1508.9800, -58.926
1509.0000, -58.913
1509.0200, -58.907
1509.0400, -58.889
1509.0600, -58.887
1509.0800, -58.883
1509.1000, -58.876
1509.1200, -58.889
1509.1400, -58.870
1509.1600, -58.870
1509.1800, -58.826
1509.2000, -58.833
1509.2200, -58.815
1509.2400, -58.793
1509.2600, -58.806
1509.2800, -58.814
1509.3000, -58.794
1509.3200, -58.756
1509.3400, -58.753
1509.3600, -58.752
1509.3800, -58.744
1509.4000, -58.730
1509.4200, -58.734
1509.4400, -58.723
1509.4600, -58.708
1509.4800, -58.692
1509.5000, -58.691
1509.5200, -58.683
1509.5400, -58.671
1509.5600, -58.674
1509.5800, -58.667
1509.6000, -58.648
1509.6200, -58.625
1509.6400, -58.631
1509.6600, -58.610
1509.6800, -58.607
1509.7000, -58.608
1509.7200, -58.578
1509.7400, -58.564
1509.7600, -58.569
1509.7800, -58.575
1509.8000, -58.543
1509.8200, -58.559
1509.8400, -58.538
1509.8600, -58.526
1509.8800, -58.541
1509.9000, -58.513
1509.9200, -58.492
1509.9400, -58.502
1509.9600, -58.486
1509.9800, -58.487
1510.0000, -58.473
1510.0200, -58.478
1510.0400, -58.450
1510.0600, -58.450
1510.0800, -58.414
1510.1000, -58.442
1510.1200, -58.411
1510.1400, -58.408
1510.1600, -58.396
1510.1800, -58.379
1510.2000, -58.372
1510.2200, -58.371
1510.2400, -58.345
1510.2600, -58.344
1510.2800, -58.339
1510.3000, -58.329
1510.3200, -58.285
1510.3400, -58.316
1510.3600, -58.300
1510.3800, -58.280
1510.4000, -58.251
1510.4200, -58.265
1510.4400, -58.234
1510.4600, -58.230
1510.4800, -58.221
1510.5000, -58.210
1510.5200, -58.206
1510.5400, -58.193
1510.5600, -58.176
1510.5800, -58.166
1510.6000, -58.157
1510.6200, -58.157
1510.6400, -58.140
1510.6600, -58.123
1510.6800, -58.117
1510.7000, -58.098
1510.7200, -58.094
1510.7400, -58.081
1510.7600, -58.065
1510.7800, -58.061
1510.8000, -58.062
1510.8200, -58.035
1510.8400, -58.035
1510.8600, -58.016
1510.8800, -58.009
1510.9000, -58.001
1510.9200, -58.008
1510.9400, -57.984
1510.9600, -57.971
1510.9800, -57.968
1511.0000, -57.946
1511.0200, -57.937
1511.0400, -57.945
1511.0600, -57.927
1511.0800, -57.933
1511.1000, -57.901
1511.1200, -57.876
1511.1400, -57.873
1511.1600, -57.870
1511.1800, -57.869
1511.2000, -57.847
1511.2200, -57.842
1511.2400, -57.819
1511.2600, -57.814
1511.2800, -57.804
1511.3000, -57.787
1511.3200, -57.806
1511.3400, -57.786
1511.3600, -57.748
1511.3800, -57.756
1511.4000, -57.716
1511.4200, -57.720
1511.4400, -57.709
1511.4600, -57.712
1511.4800, -57.686
1511.5000, -57.673
1511.5200, -57.671
1511.5400, -57.638
1511.5600, -57.659
1511.5800, -57.623
1511.6000, -57.621
1511.6200, -57.609
1511.6400, -57.584
1511.6600, -57.590
1511.6800, -57.577
1511.7000, -57.563
1511.7200, -57.564
1511.7400, -57.526
1511.7600, -57.545
1511.7800, -57.528
1511.8000, -57.506
1511.8200, -57.487
1511.8400, -57.481
1511.8600, -57.480
1511.8800, -57.468
1511.9000, -57.465
1511.9200, -57.447
1511.9400, -57.426
1511.9600, -57.426
1511.9800, -57.416
1512.0000, -57.419
1512.0200, -57.414
1512.0400, -57.377
1512.0600, -57.360
1512.0800, -57.354
1512.1000, -57.344
1512.1200, -57.330
1512.1400, -57.328
1512.1600, -57.306
1512.1800, -57.306
1512.2000, -57.286
1512.2200, -57.282
1512.2400, -57.254
1512.2600, -57.269
1512.2800, -57.248
1512.3000, -57.227
1512.3200, -57.230
1512.3400, -57.198
1512.3600, -57.188
1512.3800, -57.190
1512.4000, -57.180
1512.4200, -57.159
1512.4400, -57.171
1512.4600, -57.138
1512.4800, -57.140
1512.5000, -57.117
1512.5200, -57.099
1512.5400, -57.104
1512.5600, -57.091
1512.5800, -57.059
1512.6000, -57.042
1512.6200, -57.060
1512.6400, -57.038
1512.6600, -57.030
1512.6800, -57.016
1512.7000, -57.003
1512.7200, -56.993
1512.7400, -56.986
1512.7600, -56.963
1512.7800, -56.956
1512.8000, -56.954
1512.8200, -56.938
1512.8400, -56.928
1512.8600, -56.919
1512.8800, -56.917
1512.9000, -56.888
1512.9200, -56.878
1512.9400, -56.882
1512.9600, -56.878
1512.9800, -56.852
1513.0000, -56.840
1513.0200, -56.808
1513.0400, -56.796
1513.0600, -56.788
1513.0800, -56.785
1513.1000, -56.779
1513.1200, -56.760
1513.1400, -56.755
1513.1600, -56.747
1513.1800, -56.725
1513.2000, -56.716
1513.2200, -56.712
1513.2400, -56.697
1513.2600, -56.690
1513.2800, -56.674
1513.3000, -56.651
1513.3200, -56.633
1513.3400, -56.639
1513.3600, -56.619
1513.3800, -56.605
1513.4000, -56.582
1513.4200, -56.589
1513.4400, -56.551
1513.4600, -56.577
1513.4800, -56.541
1513.5000, -56.544
1513.5200, -56.511
1513.5400, -56.504
1513.5600, -56.507
1513.5800, -56.476
1513.6000, -56.488
1513.6200, -56.464
1513.6400, -56.432
1513.6600, -56.450
1513.6800, -56.410
1513.7000, -56.393
1513.7200, -56.398
1513.7400, -56.401
1513.7600, -56.383
1513.7800, -56.370
1513.8000, -56.356
1513.8200, -56.350
1513.8400, -56.321
1513.8600, -56.311
1513.8800, -56.322
1513.9000, -56.306
1513.9200, -56.291
1513.9400, -56.274
1513.9600, -56.251
1513.9800, -56.229
1514.0000, -56.217
1514.0200, -56.205
1514.0400, -56.219
1514.0600, -56.186
1514.0800, -56.173
1514.1000, -56.165
1514.1200, -56.157
1514.1400, -56.146
1514.1600, -56.135
1514.1800, -56.120
1514.2000, -56.092
1514.2200, -56.081
1514.2400, -56.064
1514.2600, -56.057
1514.2800, -56.039
1514.3000, -56.031
1514.3200, -56.018
1514.3400, -56.010
1514.3600, -55.987
1514.3800, -55.976
1514.4000, -55.974
1514.4200, -55.954
1514.4400, -55.940
1514.4600, -55.931
1514.4800, -55.902
1514.5000, -55.892
1514.5200, -55.896
1514.5400, -55.872
1514.5600, -55.868
1514.5800, -55.848
1514.6000, -55.834
1514.6200, -55.825
1514.6400, -55.807
1514.6600, -55.788
1514.6800, -55.786
1514.7000, -55.789
1514.7200, -55.768
1514.7400, -55.736
1514.7600, -55.742
1514.7800, -55.716
1514.8000, -55.706
1514.8200, -55.695
1514.8400, -55.710
1514.8600, -55.676
1514.8800, -55.655
1514.9000, -55.640
1514.9200, -55.623
1514.9400, -55.596
1514.9600, -55.598
1514.9800, -55.578
1515.0000, -55.571
1515.0200, -55.560
1515.0400, -55.549
1515.0600, -55.539
1515.0800, -55.507
1515.1000, -55.504
1515.1200, -55.485
1515.1400, -55.470
1515.1600, -55.453
1515.1800, -55.439
1515.2000, -55.415
1515.2200, -55.409
1515.2400, -55.397
1515.2600, -55.382
1515.2800, -55.368
1515.3000, -55.355
1515.3200, -55.341
1515.3400, -55.318
1515.3600, -55.313
1515.3800, -55.299
1515.4000, -55.283
1515.4200, -55.250
1515.4400, -55.235
1515.4600, -55.245
1515.4800, -55.218
1515.5000, -55.204
1515.5200, -55.201
1515.5400, -55.180
1515.5600, -55.163
1515.5800, -55.152
1515.6000, -55.135
1515.6200, -55.122
1515.6400, -55.119
1515.6600, -55.109
1515.6800, -55.092
1515.7000, -55.074
1515.7200, -55.051
1515.7400, -55.039
1515.7600, -55.028
1515.7800, -55.020
1515.8000, -55.015
1515.8200, -54.983
1515.8400, -54.966
1515.8600, -54.956
1515.8800, -54.936
1515.9000, -54.916
1515.9200, -54.912
1515.9400, -54.898
1515.9600, -54.878
1515.9800, -54.872
1516.0000, -54.850
1516.0200, -54.826
1516.0400, -54.817
1516.0600, -54.804
1516.0800, -54.781
1516.1000, -54.769
1516.1200, -54.749
1516.1400, -54.718
1516.1600, -54.716
1516.1800, -54.702
1516.2000, -54.686
1516.2200, -54.673
1516.2400, -54.654
1516.2600, -54.640
1516.2800, -54.631
1516.3000, -54.606
1516.3200, -54.592
1516.3400, -54.589
1516.3600, -54.548
1516.3800, -54.521
1516.4000, -54.519
1516.4200, -54.513
1516.4400, -54.497
1516.4600, -54.494
1516.4800, -54.464
1516.5000, -54.444
1516.5200, -54.433
1516.5400, -54.405
1516.5600, -54.393
1516.5800, -54.395
1516.6000, -54.390
1516.6200, -54.347
1516.6400, -54.336
1516.6600, -54.328
1516.6800, -54.291
1516.7000, -54.278
1516.7200, -54.288
1516.7400, -54.277
1516.7600, -54.252
1516.7800, -54.214
1516.8000, -54.200
1516.8200, -54.176
1516.8400, -54.167
1516.8600, -54.150
1516.8800, -54.140
1516.9000, -54.109
1516.9200, -54.087
1516.9400, -54.094
1516.9600, -54.070
1516.9800, -54.024
1517.0000, -54.036
1517.0200, -54.012
1517.0400, -53.989
1517.0600, -53.961
1517.0800, -53.939
1517.1000, -53.931
1517.1200, -53.905
1517.1400, -53.890
1517.1600, -53.874
1517.1800, -53.863
1517.2000, -53.825
1517.2200, -53.826
1517.2400, -53.815
1517.2600, -53.783
1517.2800, -53.788
1517.3000, -53.741
1517.3200, -53.708
1517.3400, -53.714
1517.3600, -53.697
1517.3800, -53.674
1517.4000, -53.656
1517.4200, -53.631
1517.4400, -53.620
1517.4600, -53.598
1517.4800, -53.571
1517.5000, -53.557
1517.5200, -53.555
1517.5400, -53.526
1517.5600, -53.519
1517.5800, -53.493
1517.6000, -53.482
1517.6200, -53.457
1517.6400, -53.424
1517.6600, -53.428
1517.6800, -53.423
1517.7000, -53.386
1517.7200, -53.346
1517.7400, -53.324
1517.7600, -53.315
1517.7800, -53.290
1517.8000, -53.281
1517.8200, -53.263
1517.8400, -53.238
1517.8600, -53.211
1517.8800, -53.211
1517.9000, -53.186
1517.9200, -53.153
1517.9400, -53.139
1517.9600, -53.122
1517.9800, -53.098
1518.0000, -53.063
1518.0200, -53.042
1518.0400, -53.028
1518.0600, -53.008
1518.0800, -52.989
1518.1000, -52.966
1518.1200, -52.945
1518.1400, -52.922
1518.1600, -52.890
1518.1800, -52.891
1518.2000, -52.865
1518.2200, -52.848
1518.2400, -52.799
1518.2600, -52.768
1518.2800, -52.769
1518.3000, -52.756
1518.3200, -52.743
1518.3400, -52.718
1518.3600, -52.693
1518.3800, -52.676
1518.4000, -52.651
1518.4200, -52.635
1518.4400, -52.608
1518.4600, -52.600
1518.4800, -52.564
1518.5000, -52.546
1518.5200, -52.525
1518.5400, -52.501
1518.5600, -52.471
1518.5800, -52.453
1518.6000, -52.441
1518.6200, -52.425
1518.6400, -52.393
1518.6600, -52.351
1518.6800, -52.341
1518.7000, -52.314
1518.7200, -52.288
1518.7400, -52.278
1518.7600, -52.261
1518.7800, -52.232
1518.8000, -52.202
1518.8200, -52.200
1518.8400, -52.170
1518.8600, -52.131
1518.8800, -52.119
1518.9000, -52.106
1518.9200, -52.068
1518.9400, -52.040
1518.9600, -52.014
1518.9800, -51.992
1519.0000, -51.976
1519.0200, -51.947
1519.0400, -51.926
1519.0600, -51.904
1519.0800, -51.865
1519.1000, -51.838
1519.1200, -51.838
1519.1400, -51.789
1519.1600, -51.771
1519.1800, -51.743
1519.2000, -51.704
1519.2200, -51.702
1519.2400, -51.668
1519.2600, -51.648
1519.2800, -51.618
1519.3000, -51.594
1519.3200, -51.564
1519.3400, -51.546
1519.3600, -51.511
1519.3800, -51.495
1519.4000, -51.468
1519.4200, -51.446
1519.4400, -51.424
1519.4600, -51.395
1519.4800, -51.366
1519.5000, -51.341
1519.5200, -51.324
1519.5400, -51.296
1519.5600, -51.269
1519.5800, -51.241
1519.6000, -51.207
1519.6200, -51.184
1519.6400, -51.162
1519.6600, -51.113
1519.6800, -51.098
1519.7000, -51.084
1519.7200, -51.051
1519.7400, -51.019
1519.7600, -51.002
1519.7800, -50.972
1519.8000, -50.937
1519.8200, -50.914
1519.8400, -50.887
1519.8600, -50.856
1519.8800, -50.824
1519.9000, -50.789
1519.9200, -50.751
1519.9400, -50.733
1519.9600, -50.708
1519.9800, -50.684
1520.0000, -50.652
1520.0200, -50.622
1520.0400, -50.586
1520.0600, -50.551
1520.0800, -50.525
1520.1000, -50.493
1520.1200, -50.451
1520.1400, -50.414
1520.1600, -50.399
1520.1800, -50.380
1520.2000, -50.351
1520.2200, -50.328
1520.2400, -50.290
1520.2600, -50.261
1520.2800, -50.230
1520.3000, -50.185
1520.3200, -50.170
1520.3400, -50.142
1520.3600, -50.117
1520.3800, -50.087
1520.4000, -50.056
1520.4200, -50.015
1520.4400, -49.992
1520.4600, -49.967
1520.4800, -49.920
1520.5000, -49.890
1520.5200, -49.861
1520.5400, -49.829
1520.5600, -49.808
1520.5800, -49.772
1520.6000, -49.720
1520.6200, -49.696
1520.6400, -49.673
1520.6600, -49.638
1520.6800, -49.610
1520.7000, -49.589
1520.7200, -49.540
1520.7400, -49.499
1520.7600, -49.481
1520.7800, -49.435
1520.8000, -49.401
1520.8200, -49.370
1520.8400, -49.323
1520.8600, -49.287
1520.8800, -49.258
1520.9000, -49.227
1520.9200, -49.195
1520.9400, -49.158
1520.9600, -49.111
1520.9800, -49.092
1521.0000, -49.054
1521.0200, -49.011
1521.0400, -48.980
1521.0600, -48.939
1521.0800, -48.900
1521.1000, -48.865
1521.1200, -48.834
1521.1400, -48.801
1521.1600, -48.769
1521.1800, -48.727
1521.2000, -48.698
1521.2200, -48.661
1521.2400, -48.616
1521.2600, -48.590
1521.2800, -48.563
1521.3000, -48.529
1521.3200, -48.494
1521.3400, -48.457
1521.3600, -48.415
1521.3800, -48.378
1521.4000, -48.350
1521.4200, -48.307
1521.4400, -48.271
1521.4600, -48.237
1521.4800, -48.209
1521.5000, -48.171
1521.5200, -48.136
1521.5400, -48.086
1521.5600, -48.038
1521.5800, -48.008
1521.6000, -47.975
1521.6200, -47.932
1521.6400, -47.905
1521.6600, -47.849
1521.6800, -47.820
1521.7000, -47.782
1521.7200, -47.740
1521.7400, -47.700
1521.7600, -47.658
1521.7800, -47.624
1521.8000, -47.585
1521.8200, -47.544
1521.8400, -47.506
1521.8600, -47.468
1521.8800, -47.430
1521.9000, -47.390
1521.9200, -47.352
1521.9400, -47.317
1521.9600, -47.270
1521.9800, -47.234
1522.0000, -47.191
1522.0200, -47.149
1522.0400, -47.111
1522.0600, -47.073
1522.0800, -47.040
1522.1000, -47.010
1522.1200, -46.957
1522.1400, -46.923
1522.1600, -46.888
1522.1800, -46.846
1522.2000, -46.803
1522.2200, -46.776
1522.2400, -46.728
1522.2600, -46.697
1522.2800, -46.657
1522.3000, -46.619
1522.3200, -46.536
1522.3400, -46.533
1522.3600, -46.521
1522.3800, -46.474
1522.4000, -46.412
1522.4200, -46.369
1522.4400, -46.324
1522.4600, -46.301
1522.4800, -46.258
1522.5000, -46.217
1522.5200, -46.175
1522.5400, -46.131
1522.5600, -46.101
1522.5800, -46.054
1522.6000, -46.005
1522.6200, -45.969
1522.6400, -45.938
1522.6600, -45.890
1522.6800, -45.843
1522.7000, -45.794
1522.7200, -45.761
1522.7400, -45.720
1522.7600, -45.680
1522.7800, -45.642
1522.8000, -45.608
1522.8200, -45.555
1522.8400, -45.521
1522.8600, -45.486
1522.8800, -45.431
1522.9000, -45.392
1522.9200, -45.375
1522.9400, -45.322
1522.9600, -45.281
1522.9800, -45.239
1523.0000, -45.191
1523.0200, -45.166
1523.0400, -45.121
1523.0600, -45.083
1523.0800, -45.045
1523.1000, -44.997
1523.1200, -44.959
1523.1400, -44.915
1523.1600, -44.886
1523.1800, -44.847
1523.2000, -44.804
1523.2200, -44.761
1523.2400, -44.723
1523.2600, -44.674
1523.2800, -44.638
1523.3000, -44.597
1523.3200, -44.555
1523.3400, -44.515
1523.3600, -44.470
1523.3800, -44.434
1523.4000, -44.390
1523.4200, -44.358
1523.4400, -44.308
1523.4600, -44.273
1523.4800, -44.234
1523.5000, -44.186
1523.5200, -44.155
1523.5400, -44.109
1523.5600, -44.071
1523.5800, -44.032
1523.6000, -43.992
1523.6200, -43.946
1523.6400, -43.909
1523.6600, -43.866
1523.6800, -43.820
1523.7000, -43.785
1523.7200, -43.741
1523.7400, -43.700
1523.7600, -43.659
1523.7800, -43.629
1523.8000, -43.587
1523.8200, -43.542
1523.8400, -43.506
1523.8600, -43.470
1523.8800, -43.423
1523.9000, -43.382
1523.9200, -43.345
1523.9400, -43.303
1523.9600, -43.272
1523.9800, -43.223
1524.0000, -43.190
1524.0200, -43.154
1524.0400, -43.116
1524.0600, -43.077
1524.0800, -43.038
1524.1000, -43.001
1524.1200, -42.960
1524.1400, -42.921
1524.1600, -42.882
1524.1800, -42.850
1524.2000, -42.809
1524.2200, -42.772
1524.2400, -42.734
1524.2600, -42.695
1524.2800, -42.653
1524.3000, -42.607
1524.3200, -42.575
1524.3400, -42.545
1524.3600, -42.492
1524.3800, -42.453
1524.4000, -42.419
1524.4200, -42.383
1524.4400, -42.343
1524.4600, -42.285
1524.4800, -42.263
1524.5000, -42.230
1524.5200, -42.179
1524.5400, -42.145
1524.5600, -42.110
1524.5800, -42.075
1524.6000, -42.034
1524.6200, -41.991
1524.6400, -41.955
1524.6600, -41.910
1524.6800, -41.863
1524.7000, -41.834
1524.7200, -41.807
1524.7400, -41.754
1524.7600, -41.720
1524.7800, -41.689
1524.8000, -41.645
1524.8200, -41.604
1524.8400, -41.568
1524.8600, -41.522
1524.8800, -41.486
1524.9000, -41.455
1524.9200, -41.414
1524.9400, -41.375
1524.9600, -41.335
1524.9800, -41.305
1525.0000, -41.265
1525.0200, -41.231
1525.0400, -41.194
1525.0600, -41.152
1525.0800, -41.112
1525.1000, -41.079
1525.1200, -41.038
1525.1400, -41.006
1525.1600, -40.976
1525.1800, -40.941
1525.2000, -40.896
1525.2200, -40.857
1525.2400, -40.817
1525.2600, -40.786
1525.2800, -40.748
1525.3000, -40.712
1525.3200, -40.667
1525.3400, -40.629
1525.3600, -40.599
1525.3800, -40.556
1525.4000, -40.523
1525.4200, -40.490
1525.4400, -40.448
1525.4600, -40.399
1525.4800, -40.359
1525.5000, -40.320
1525.5200, -40.284
1525.5400, -40.245
1525.5600, -40.207
1525.5800, -40.166
1525.6000, -40.128
1525.6200, -40.091
1525.6400, -40.059
1525.6600, -40.016
1525.6800, -39.979
1525.7000, -39.937
1525.7200, -39.906
1525.7400, -39.866
1525.7600, -39.830
1525.7800, -39.786
1525.8000, -39.749
1525.8200, -39.709
1525.8400, -39.676
1525.8600, -39.638
1525.8800, -39.599
1525.9000, -39.565
1525.9200, -39.534
1525.9400, -39.492
1525.9600, -39.462
1525.9800, -39.421
1526.0000, -39.390
1526.0200, -39.354
1526.0400, -39.322
1526.0600, -39.283
1526.0800, -39.249
1526.1000, -39.206
1526.1200, -39.176
1526.1400, -39.139
1526.1600, -39.097
1526.1800, -39.051
1526.2000, -39.037
1526.2200, -38.987
1526.2400, -38.944
1526.2600, -38.904
1526.2800, -38.874
1526.3000, -38.845
1526.3200, -38.802
1526.3400, -38.774
1526.3600, -38.738
1526.3800, -38.704
1526.4000, -38.661
1526.4200, -38.631
1526.4400, -38.587
1526.4600, -38.558
1526.4800, -38.519
1526.5000, -38.484
1526.5200, -38.451
1526.5400, -38.413
1526.5600, -38.372
1526.5800, -38.333
1526.6000, -38.291
1526.6200, -38.262
1526.6400, -38.233
1526.6600, -38.194
1526.6800, -38.185
1526.7000, -38.133
1526.7200, -38.081
1526.7400, -38.040
1526.7600, -38.006
1526.7800, -37.975
1526.8000, -37.942
1526.8200, -37.904
1526.8400, -37.865
1526.8600, -37.835
1526.8800, -37.798
1526.9000, -37.755
1526.9200, -37.725
1526.9400, -37.687
1526.9600, -37.647
1526.9800, -37.602
1527.0000, -37.587
1527.0200, -37.543
1527.0400, -37.501
1527.0600, -37.469
1527.0800, -37.439
1527.1000, -37.386
1527.1200, -37.349
1527.1400, -37.312
1527.1600, -37.276
1527.1800, -37.243
1527.2000, -37.203
1527.2200, -37.174
1527.2400, -37.133
1527.2600, -37.099
1527.2800, -37.066
1527.3000, -37.028
1527.3200, -36.987
1527.3400, -36.961
1527.3600, -36.921
1527.3800, -36.867
1527.4000, -36.844
1527.4200, -36.814
1527.4400, -36.761
1527.4600, -36.730
1527.4800, -36.683
1527.5000, -36.639
1527.5200, -36.590
1527.5400, -36.558
1527.5600, -36.525
1527.5800, -36.488
1527.6000, -36.455
1527.6200, -36.414
1527.6400, -36.380
1527.6600, -36.334
1527.6800, -36.295
1527.7000, -36.253
1527.7200, -36.214
1527.7400, -36.180
1527.7600, -36.135
1527.7800, -36.104
1527.8000, -36.071
1527.8200, -36.035
1527.8400, -36.002
1527.8600, -35.965
1527.8800, -35.916
1527.9000, -35.880
1527.9200, -35.850
1527.9400, -35.806
1527.9600, -35.756
1527.9800, -35.722
1528.0000, -35.691
1528.0200, -35.643
1528.0400, -35.593
1528.0600, -35.538
1528.0800, -35.513
1528.1000, -35.468
1528.1200, -35.439
1528.1400, -35.385
1528.1600, -35.353
1528.1800, -35.317
1528.2000, -35.271
1528.2200, -35.231
1528.2400, -35.182
1528.2600, -35.147
1528.2800, -35.106
1528.3000, -35.072
1528.3200, -35.018
1528.3400, -34.986
1528.3600, -34.958
1528.3800, -34.913
1528.4000, -34.891
1528.4200, -34.836
1528.4400, -34.795
1528.4600, -34.759
1528.4800, -34.753
1528.5000, -34.693
1528.5200, -34.655
1528.5400, -34.636
1528.5600, -34.591
1528.5800, -34.566
1528.6000, -34.533
1528.6200, -34.482
1528.6400, -34.441
1528.6600, -34.412
1528.6800, -34.374
1528.7000, -34.337
1528.7200, -34.299
1528.7400, -34.260
1528.7600, -34.208
1528.7800, -34.170
1528.8000, -34.137
1528.8200, -34.086
1528.8400, -34.028
1528.8600, -34.016
1528.8800, -33.982
1528.9000, -33.942
1528.9200, -33.900
1528.9400, -33.860
1528.9600, -33.789
1528.9800, -33.751
1529.0000, -33.728
1529.0200, -33.681
1529.0400, -33.627
1529.0600, -33.591
1529.0800, -33.538
1529.1000, -33.533
1529.1200, -33.446
1529.1400, -33.448
1529.1600, -33.394
1529.1800, -33.326
1529.2000, -33.298
1529.2200, -33.256
1529.2400, -33.201
1529.2600, -33.162
1529.2800, -33.119
1529.3000, -33.049
1529.3200, -33.011
1529.3400, -32.951
1529.3600, -32.931
1529.3800, -32.866
1529.4000, -32.835
1529.4200, -32.800
1529.4400, -32.765
1529.4600, -32.726
1529.4800, -32.684
1529.5000, -32.659
1529.5200, -32.629
1529.5400, -32.624
1529.5600, -32.549
1529.5800, -32.503
1529.6000, -32.482
1529.6200, -32.441
1529.6400, -32.382
1529.6600, -32.345
1529.6800, -32.321
1529.7000, -32.259
1529.7200, -32.232
1529.7400, -32.223
1529.7600, -32.186
1529.7800, -32.134
1529.8000, -32.082
1529.8200, -32.030
1529.8400, -31.963
1529.8600, -31.923
1529.8800, -31.898
1529.9000, -31.846
1529.9200, -31.796
1529.9400, -31.752
1529.9600, -31.692
1529.9800, -31.610
1530.0000, -31.515
1530.0200, -31.473
1530.0400, -31.434
1530.0600, -31.457
1530.0800, -31.390
1530.1000, -31.318
1530.1200, -31.309
1530.1400, -31.244
1530.1600, -31.215
1530.1800, -31.181
1530.2000, -31.149
1530.2200, -31.083
1530.2400, -31.059
1530.2600, -31.023
1530.2800, -31.030
1530.3000, -30.967
1530.3200, -30.909
1530.3400, -30.906
1530.3600, -30.825
1530.3800, -30.666
1530.4000, -30.623
1530.4200, -30.604
1530.4400, -30.613
1530.4600, -30.524
1530.4800, -30.454
1530.5000, -30.408
1530.5200, -30.395
1530.5400, -30.363
1530.5600, -30.373
1530.5800, -30.278
1530.6000, -30.309
1530.6200, -30.224
1530.6400, -30.122
1530.6600, -30.156
1530.6800, -30.075
1530.7000, -30.075
1530.7200, -30.101
1530.7400, -30.027
1530.7600, -29.952
1530.7800, -29.932
1530.8000, -29.891
1530.8200, -29.893
1530.8400, -29.840
1530.8600, -29.812
1530.8800, -29.822
1530.9000, -29.784
1530.9200, -29.692
1530.9400, -29.670
1530.9600, -29.660
1530.9800, -29.669
1531.0000, -29.610
1531.0200, -29.616
1531.0400, -29.646
1531.0600, -29.619
1531.0800, -29.623
1531.1000, -29.474
1531.1200, -29.374
1531.1400, -29.307
1531.1600, -29.321
1531.1800, -29.398
1531.2000, -29.248
1531.2200, -29.263
1531.2400, -29.208
1531.2600, -29.158
1531.2800, -28.963
1531.3000, -28.910
1531.3200, -28.992
1531.3400, -28.937
1531.3600, -28.757
1531.3800, -28.816
1531.4000, -28.743
1531.4200, -28.902
1531.4400, -28.807
1531.4600, -28.791
1531.4800, -28.688
1531.5000, -28.715
1531.5200, -28.778
1531.5400, -28.733
1531.5600, -28.800
1531.5800, -28.687
1531.6000, -28.734
1531.6200, -28.853
1531.6400, -28.580
1531.6600, -28.703
1531.6800, -28.647
1531.7000, -28.581
1531.7200, -28.471
1531.7400, -28.313
1531.7600, -28.481
1531.7800, -28.376
1531.8000, -28.412
1531.8200, -28.436
1531.8400, -28.446
1531.8600, -28.222
1531.8800, -28.213
1531.9000, -28.316
1531.9200, -28.109
1531.9400, -28.349
1531.9600, -28.261
1531.9800, -28.221
1532.0000, -28.121
1532.0200, -28.341
1532.0400, -28.139
1532.0600, -28.321
1532.0800, -28.245
1532.1000, -28.244
1532.1200, -28.683
1532.1400, -28.682
1532.1600, -28.546
1532.1800, -28.309
1532.2000, -28.602
1532.2200, -28.473
1532.2400, -28.460
1532.2600, -28.651
1532.2800, -28.362
1532.3000, -28.568
1532.3200, -28.362
1532.3400, -28.395
1532.3600, -28.326
1532.3800, -28.452
1532.4000, -28.336
1532.4200, -28.142
1532.4400, -28.201
1532.4600, -28.194
1532.4800, -28.418
1532.5000, -28.371
1532.5200, -28.421
1532.5400, -28.607
1532.5600, -28.298
1532.5800, -28.461
1532.6000, -28.552
1532.6200, -28.431
1532.6400, -28.415
1532.6600, -28.620
1532.6800, -28.633
1532.7000, -28.630
1532.7200, -28.656
1532.7400, -28.742
1532.7600, -28.719
1532.7800, -28.640
1532.8000, -28.657
1532.8200, -28.547
1532.8400, -28.782
1532.8600, -28.816
1532.8800, -28.994
1532.9000, -28.646
1532.9200, -28.852
1532.9400, -29.085
1532.9600, -29.027
1532.9800, -29.261
1533.0000, -29.050
1533.0200, -29.068
1533.0400, -29.279
1533.0600, -29.203
1533.0800, -29.260
1533.1000, -29.304
1533.1200, -29.334
1533.1400, -29.362
1533.1600, -29.311
1533.1800, -29.407
1533.2000, -29.631
1533.2200, -29.624
1533.2400, -29.581
1533.2600, -29.556
1533.2800, -29.724
1533.3000, -29.690
1533.3200, -29.707
1533.3400, -29.783
1533.3600, -29.727
1533.3800, -29.978
1533.4000, -30.096
1533.4200, -30.062
1533.4400, -30.098
1533.4600, -30.102
1533.4800, -30.181
1533.5000, -30.257
1533.5200, -30.385
1533.5400, -30.501
1533.5600, -30.546
1533.5800, -30.417
1533.6000, -30.614
1533.6200, -30.756
1533.6400, -30.829
1533.6600, -30.953
1533.6800, -30.938
1533.7000, -30.960
1533.7200, -31.091
1533.7400, -31.107
1533.7600, -31.210
1533.7800, -31.393
1533.8000, -31.482
1533.8200, -31.471
1533.8400, -31.613
1533.8600, -31.639
1533.8800, -31.603
1533.9000, -31.852
1533.9200, -31.854
1533.9400, -31.919
1533.9600, -32.079
1533.9800, -32.022
1534.0000, -32.167
1534.0200, -32.290
1534.0400, -32.186
1534.0600, -32.216
1534.0800, -32.367
1534.1000, -32.427
1534.1200, -32.418
1534.1400, -32.528
1534.1600, -32.562
1534.1800, -32.687
1534.2000, -32.729
1534.2200, -32.768
1534.2400, -32.858
1534.2600, -32.915
1534.2800, -32.959
1534.3000, -33.116
1534.3200, -33.082
1534.3400, -33.277
1534.3600, -33.263
1534.3800, -33.419
1534.4000, -33.365
1534.4200, -33.390
1534.4400, -33.458
1534.4600, -33.469
1534.4800, -33.549
1534.5000, -33.611
1534.5200, -33.724
1534.5400, -33.756
1534.5600, -33.865
1534.5800, -33.833
1534.6000, -33.877
1534.6200, -33.929
1534.6400, -34.007
1534.6600, -34.083
1534.6800, -34.110
1534.7000, -34.187
1534.7200, -34.271
1534.7400, -34.313
1534.7600, -34.431
1534.7800, -34.480
1534.8000, -34.497
1534.8200, -34.567
1534.8400, -34.608
1534.8600, -34.674
1534.8800, -34.754
1534.9000, -34.838
1534.9200, -34.887
1534.9400, -34.939
1534.9600, -34.969
1534.9800, -35.009
1535.0000, -35.093
1535.0200, -35.133
1535.0400, -35.210
1535.0600, -35.273
1535.0800, -35.313
1535.1000, -35.364
1535.1200, -35.409
1535.1400, -35.484
1535.1600, -35.533
1535.1800, -35.591
1535.2000, -35.657
1535.2200, -35.699
1535.2400, -35.751
1535.2600, -35.829
1535.2800, -35.891
1535.3000, -35.944
1535.3200, -35.998
1535.3400, -36.072
1535.3600, -36.122
1535.3800, -36.154
1535.4000, -36.210
1535.4200, -36.245
1535.4400, -36.302
1535.4600, -36.368
1535.4800, -36.424
1535.5000, -36.467
1535.5200, -36.506
1535.5400, -36.564
1535.5600, -36.624
1535.5800, -36.669
1535.6000, -36.742
1535.6200, -36.791
1535.6400, -36.828
1535.6600, -36.881
1535.6800, -36.922
1535.7000, -36.975
1535.7200, -37.031
1535.7400, -37.077
1535.7600, -37.118
1535.7800, -37.169
1535.8000, -37.221
1535.8200, -37.271
1535.8400, -37.323
1535.8600, -37.360
1535.8800, -37.416
1535.9000, -37.426
1535.9200, -37.468
1535.9400, -37.543
1535.9600, -37.595
1535.9800, -37.654
1536.0000, -37.679
1536.0200, -37.720
1536.0400, -37.768
1536.0600, -37.817
1536.0800, -37.859
1536.1000, -37.918
1536.1200, -37.967
1536.1400, -38.000
1536.1600, -38.040
1536.1800, -38.093
1536.2000, -38.133
1536.2200, -38.172
1536.2400, -38.227
1536.2600, -38.283
1536.2800, -38.320
1536.3000, -38.328
1536.3200, -38.371
1536.3400, -38.408
1536.3600, -38.450
1536.3800, -38.488
1536.4000, -38.534
1536.4200, -38.576
1536.4400, -38.607
1536.4600, -38.645
1536.4800, -38.684
1536.5000, -38.728
1536.5200, -38.768
1536.5400, -38.797
1536.5600, -38.833
1536.5800, -38.867
1536.6000, -38.894
1536.6200, -38.929
1536.6400, -38.959
1536.6600, -39.003
1536.6800, -39.020
1536.7000, -39.054
1536.7200, -39.091
1536.7400, -39.133
1536.7600, -39.159
1536.7800, -39.184
1536.8000, -39.220
1536.8200, -39.243
1536.8400, -39.273
1536.8600, -39.312
1536.8800, -39.351
1536.9000, -39.394
1536.9200, -39.417
1536.9400, -39.440
1536.9600, -39.477
1536.9800, -39.498
1537.0000, -39.530
1537.0200, -39.570
1537.0400, -39.604
1537.0600, -39.630
1537.0800, -39.660
1537.1000, -39.679
1537.1200, -39.711
1537.1400, -39.745
1537.1600, -39.760
1537.1800, -39.789
1537.2000, -39.812
1537.2200, -39.844
1537.2400, -39.878
1537.2600, -39.888
1537.2800, -39.909
1537.3000, -39.936
1537.3200, -39.964
1537.3400, -39.987
1537.3600, -40.022
1537.3800, -40.058
1537.4000, -40.058
1537.4200, -40.097
1537.4400, -40.126
1537.4600, -40.141
1537.4800, -40.163
1537.5000, -40.185
1537.5200, -40.193
1537.5400, -40.220
1537.5600, -40.248
1537.5800, -40.275
1537.6000, -40.312
1537.6200, -40.313
1537.6400, -40.342
1537.6600, -40.366
1537.6800, -40.372
1537.7000, -40.398
1537.7200, -40.411
1537.7400, -40.419
1537.7600, -40.441
1537.7800, -40.477
1537.8000, -40.506
1537.8200, -40.529
1537.8400, -40.553
1537.8600, -40.569
1537.8800, -40.577
1537.9000, -40.598
1537.9200, -40.609
1537.9400, -40.636
1537.9600, -40.664
1537.9800, -40.683
1538.0000, -40.690
1538.0200, -40.714
1538.0400, -40.719
1538.0600, -40.734
1538.0800, -40.758
1538.1000, -40.784
1538.1200, -40.795
1538.1400, -40.797
1538.1600, -40.824
1538.1800, -40.854
1538.2000, -40.849
1538.2200, -40.877
1538.2400, -40.892
1538.2600, -40.898
1538.2800, -40.911
1538.3000, -40.949
1538.3200, -40.944
1538.3400, -40.959
1538.3600, -40.961
1538.3800, -40.971
1538.4000, -40.987
1538.4200, -40.994
1538.4400, -41.002
1538.4600, -41.026
1538.4800, -41.036
1538.5000, -41.044
1538.5200, -41.075
1538.5400, -41.080
1538.5600, -41.052
1538.5800, -41.085
1538.6000, -41.098
1538.6200, -41.119
1538.6400, -41.118
1538.6600, -41.120
1538.6800, -41.135
1538.7000, -41.158
1538.7200, -41.160
1538.7400, -41.173
1538.7600, -41.177
1538.7800, -41.192
1538.8000, -41.202
1538.8200, -41.212
1538.8400, -41.218
1538.8600, -41.237
1538.8800, -41.239
1538.9000, -41.248
1538.9200, -41.255
1538.9400, -41.267
1538.9600, -41.264
1538.9800, -41.274
1539.0000, -41.303
1539.0200, -41.316
1539.0400, -41.316
1539.0600, -41.304
1539.0800, -41.305
1539.1000, -41.325
1539.1200, -41.329
1539.1400, -41.326
1539.1600, -41.340
1539.1800, -41.343
1539.2000, -41.347
1539.2200, -41.349
1539.2400, -41.350
1539.2600, -41.360
1539.2800, -41.368
1539.3000, -41.377
1539.3200, -41.381
1539.3400, -41.379
1539.3600, -41.386
1539.3800, -41.392
1539.4000, -41.394
1539.4200, -41.391
1539.4400, -41.395
1539.4600, -41.400
1539.4800, -41.409
1539.5000, -41.403
1539.5200, -41.413
1539.5400, -41.432
1539.5600, -41.428
1539.5800, -41.420
1539.6000, -41.438
1539.6200, -41.441
1539.6400, -41.447
1539.6600, -41.456
1539.6800, -41.452
1539.7000, -41.453
1539.7200, -41.461
1539.7400, -41.469
1539.7600, -41.466
1539.7800, -41.469
1539.8000, -41.474
1539.8200, -41.475
1539.8400, -41.478
1539.8600, -41.478
1539.8800, -41.479
1539.9000, -41.481
1539.9200, -41.488
1539.9400, -41.492
1539.9600, -41.489
1539.9800, -41.487
1540.0000, -41.484
1540.0200, -41.475
1540.0400, -41.488
1540.0600, -41.499
1540.0800, -41.502
1540.1000, -41.502
1540.1200, -41.508
1540.1400, -41.501
1540.1600, -41.511
1540.1800, -41.513
1540.2000, -41.501
1540.2200, -41.512
1540.2400, -41.508
1540.2600, -41.517
1540.2800, -41.502
1540.3000, -41.500
1540.3200, -41.497
1540.3400, -41.490
1540.3600, -41.488
1540.3800, -41.491
1540.4000, -41.497
1540.4200, -41.483
1540.4400, -41.492
1540.4600, -41.488
1540.4800, -41.479
1540.5000, -41.478
1540.5200, -41.483
1540.5400, -41.479
1540.5600, -41.489
1540.5800, -41.483
1540.6000, -41.481
1540.6200, -41.481
1540.6400, -41.476
1540.6600, -41.480
1540.6800, -41.478
1540.7000, -41.476
1540.7200, -41.472
1540.7400, -41.468
1540.7600, -41.466
1540.7800, -41.469
1540.8000, -41.469
1540.8200, -41.465
1540.8400, -41.468
1540.8600, -41.457
1540.8800, -41.460
1540.9000, -41.452
1540.9200, -41.456
1540.9400, -41.452
1540.9600, -41.441
1540.9800, -41.442
1541.0000, -41.444
1541.0200, -41.438
1541.0400, -41.433
1541.0600, -41.438
1541.0800, -41.436
1541.1000, -41.422
1541.1200, -41.421
1541.1400, -41.423
1541.1600, -41.414
1541.1800, -41.418
1541.2000, -41.406
1541.2200, -41.408
1541.2400, -41.399
1541.2600, -41.396
1541.2800, -41.392
1541.3000, -41.403
1541.3200, -41.387
1541.3400, -41.386
1541.3600, -41.389
1541.3800, -41.380
1541.4000, -41.371
1541.4200, -41.384
1541.4400, -41.379
1541.4600, -41.375
1541.4800, -41.381
1541.5000, -41.369
1541.5200, -41.370
1541.5400, -41.366
1541.5600, -41.365
1541.5800, -41.364
1541.6000, -41.364
1541.6200, -41.361
1541.6400, -41.354
1541.6600, -41.348
1541.6800, -41.351
1541.7000, -41.344
1541.7200, -41.340
1541.7400, -41.352
1541.7600, -41.342
1541.7800, -41.331
1541.8000, -41.326
1541.8200, -41.321
1541.8400, -41.335
1541.8600, -41.317
1541.8800, -41.314
1541.9000, -41.310
1541.9200, -41.303
1541.9400, -41.302
1541.9600, -41.289
1541.9800, -41.293
1542.0000, -41.292
1542.0200, -41.275
1542.0400, -41.275
1542.0600, -41.272
1542.0800, -41.270
1542.1000, -41.258
1542.1200, -41.255
1542.1400, -41.248
1542.1600, -41.237
1542.1800, -41.238
1542.2000, -41.240
1542.2200, -41.237
1542.2400, -41.230
1542.2600, -41.222
1542.2800, -41.225
1542.3000, -41.220
1542.3200, -41.219
1542.3400, -41.203
1542.3600, -41.194
1542.3800, -41.197
1542.4000, -41.194
1542.4200, -41.186
1542.4400, -41.188
1542.4600, -41.185
1542.4800, -41.177
1542.5000, -41.175
1542.5200, -41.178
1542.5400, -41.166
1542.5600, -41.166
1542.5800, -41.169
1542.6000, -41.167
1542.6200, -41.153
1542.6400, -41.150
1542.6600, -41.149
1542.6800, -41.145
1542.7000, -41.143
1542.7200, -41.141
1542.7400, -41.141
1542.7600, -41.132
1542.7800, -41.137
1542.8000, -41.127
1542.8200, -41.123
1542.8400, -41.112
1542.8600, -41.111
1542.8800, -41.107
1542.9000, -41.109
1542.9200, -41.099
1542.9400, -41.096
1542.9600, -41.092
1542.9800, -41.084
1543.0000, -41.081
1543.0200, -41.069
1543.0400, -41.064
1543.0600, -41.051
1543.0800, -41.050
1543.1000, -41.045
1543.1200, -41.043
1543.1400, -41.038
1543.1600, -41.034
1543.1800, -41.029
1543.2000, -41.024
1543.2200, -41.023
1543.2400, -41.015
1543.2600, -41.018
1543.2800, -41.020
1543.3000, -41.015
1543.3200, -41.011
1543.3400, -41.009
1543.3600, -41.010
1543.3800, -41.002
1543.4000, -41.001
1543.4200, -40.999
1543.4400, -40.991
1543.4600, -40.992
1543.4800, -40.987
1543.5000, -40.974
1543.5200, -40.968
1543.5400, -40.977
1543.5600, -40.988
1543.5800, -40.983
1543.6000, -40.969
1543.6200, -40.953
1543.6400, -40.954
1543.6600, -40.961
1543.6800, -40.949
1543.7000, -40.952
1543.7200, -40.953
1543.7400, -40.944
1543.7600, -40.936
1543.7800, -40.934
1543.8000, -40.931
1543.8200, -40.933
1543.8400, -40.936
1543.8600, -40.939
1543.8800, -40.921
1543.9000, -40.925
1543.9200, -40.917
1543.9400, -40.920
1543.9600, -40.915
1543.9800, -40.912
1544.0000, -40.910
1544.0200, -40.912
1544.0400, -40.915
1544.0600, -40.855
1544.0800, -40.914
1544.1000, -40.921
1544.1200, -40.897
1544.1400, -40.909
1544.1600, -40.911
1544.1800, -40.895
1544.2000, -40.892
1544.2200, -40.893
1544.2400, -40.897
1544.2600, -40.898
1544.2800, -40.894
1544.3000, -40.891
1544.3200, -40.895
1544.3400, -40.881
1544.3600, -40.882
1544.3800, -40.886
1544.4000, -40.882
1544.4200, -40.876
1544.4400, -40.886
1544.4600, -40.898
1544.4800, -40.895
1544.5000, -40.886
1544.5200, -40.860
1544.5400, -40.865
1544.5600, -40.861
1544.5800, -40.869
1544.6000, -40.860
1544.6200, -40.860
1544.6400, -40.854
1544.6600, -40.851
1544.6800, -40.852
1544.7000, -40.853
1544.7200, -40.854
1544.7400, -40.855
1544.7600, -40.865
1544.7800, -40.844
1544.8000, -40.843
1544.8200, -40.841
1544.8400, -40.843
1544.8600, -40.844
1544.8800, -40.838
1544.9000, -40.831
1544.9200, -40.828
1544.9400, -40.832
1544.9600, -40.825
1544.9800, -40.850
1545.0000, -40.836
1545.0200, -40.816
1545.0400, -40.818
1545.0600, -40.844
1545.0800, -40.828
1545.1000, -40.827
1545.1200, -40.827
1545.1400, -40.823
1545.1600, -40.829
1545.1800, -40.821
1545.2000, -40.822
1545.2200, -40.832
1545.2400, -40.833
1545.2600, -40.830
1545.2800, -40.830
1545.3000, -40.827
1545.3200, -40.823
1545.3400, -40.823
1545.3600, -40.843
1545.3800, -40.846
1545.4000, -40.826
1545.4200, -40.817
1545.4400, -40.804
1545.4600, -40.755
1545.4800, -40.807
1545.5000, -40.814
1545.5200, -40.819
1545.5400, -40.809
1545.5600, -40.800
1545.5800, -40.797
1545.6000, -40.800
1545.6200, -40.813
1545.6400, -40.808
1545.6600, -40.816
1545.6800, -40.806
1545.7000, -40.801
1545.7200, -40.796
1545.7400, -40.804
1545.7600, -40.802
1545.7800, -40.794
1545.8000, -40.804
1545.8200, -40.794
1545.8400, -40.796
1545.8600, -40.787
1545.8800, -40.806
1545.9000, -40.795
1545.9200, -40.784
1545.9400, -40.782
1545.9600, -40.793
1545.9800, -40.807
1546.0000, -40.788
1546.0200, -40.791
1546.0400, -40.793
1546.0600, -40.791
1546.0800, -40.791
1546.1000, -40.784
1546.1200, -40.800
1546.1400, -40.800
1546.1600, -40.796
1546.1800, -40.804
1546.2000, -40.806
1546.2200, -40.799
1546.2400, -40.794
1546.2600, -40.804
1546.2800, -40.809
1546.3000, -40.805
1546.3200, -40.795
1546.3400, -40.795
1546.3600, -40.806
1546.3800, -40.807
1546.4000, -40.814
1546.4200, -40.816
1546.4400, -40.818
1546.4600, -40.807
1546.4800, -40.822
1546.5000, -40.821
1546.5200, -40.816
1546.5400, -40.806
1546.5600, -40.820
1546.5800, -40.809
1546.6000, -40.808
1546.6200, -40.805
1546.6400, -40.813
1546.6600, -40.821
1546.6800, -40.812
1546.7000, -40.829
1546.7200, -40.814
1546.7400, -40.813
1546.7600, -40.798
1546.7800, -40.810
1546.8000, -40.814
1546.8200, -40.796
1546.8400, -40.795
1546.8600, -40.799
1546.8800, -40.815
1546.9000, -40.796
1546.9200, -40.800
1546.9400, -40.803
1546.9600, -40.803
1546.9800, -40.807
1547.0000, -40.796
1547.0200, -40.810
1547.0400, -40.807
1547.0600, -40.805
1547.0800, -40.806
1547.1000, -40.812
1547.1200, -40.807
1547.1400, -40.802
1547.1600, -40.813
1547.1800, -40.819
1547.2000, -40.818
1547.2200, -40.808
1547.2400, -40.807
1547.2600, -40.819
1547.2800, -40.815
1547.3000, -40.819
1547.3200, -40.822
1547.3400, -40.821
1547.3600, -40.812
1547.3800, -40.823
1547.4000, -40.816
1547.4200, -40.821
1547.4400, -40.812
1547.4600, -40.822
1547.4800, -40.816
1547.5000, -40.806
1547.5200, -40.808
1547.5400, -40.813
1547.5600, -40.821
1547.5800, -40.813
1547.6000, -40.822
1547.6200, -40.819
1547.6400, -40.826
1547.6600, -40.810
1547.6800, -40.827
1547.7000, -40.842
1547.7200, -40.828
1547.7400, -40.825
1547.7600, -40.832
1547.7800, -40.837
1547.8000, -40.820
1547.8200, -40.831
1547.8400, -40.829
1547.8600, -40.826
1547.8800, -40.830
1547.9000, -40.824
1547.9200, -40.835
1547.9400, -40.833
1547.9600, -40.835
1547.9800, -40.842
1548.0000, -40.848
1548.0200, -40.849
1548.0400, -40.843
1548.0600, -40.854
1548.0800, -40.869
1548.1000, -40.863
1548.1200, -40.848
1548.1400, -40.841
1548.1600, -40.857
1548.1800, -40.852
1548.2000, -40.865
1548.2200, -40.865
1548.2400, -40.870
1548.2600, -40.867
1548.2800, -40.881
1548.3000, -40.869
1548.3200, -40.879
1548.3400, -40.870
1548.3600, -40.876
1548.3800, -40.884
1548.4000, -40.872
1548.4200, -40.875
1548.4400, -40.874
1548.4600, -40.880
1548.4800, -40.877
1548.5000, -40.877
1548.5200, -40.874
1548.5400, -40.890
1548.5600, -40.865
1548.5800, -40.881
1548.6000, -40.890
1548.6200, -40.870
1548.6400, -40.872
1548.6600, -40.878
1548.6800, -40.897
1548.7000, -40.881
1548.7200, -40.897
1548.7400, -40.895
1548.7600, -40.895
1548.7800, -40.904
1548.8000, -40.899
1548.8200, -40.910
1548.8400, -40.913
1548.8600, -40.908
1548.8800, -40.910
1548.9000, -40.917
1548.9200, -40.914
1548.9400, -40.910
1548.9600, -40.913
1548.9800, -40.919
1549.0000, -40.921
1549.0200, -40.911
1549.0400, -40.915
1549.0600, -40.918
1549.0800, -40.913
1549.1000, -40.914
1549.1200, -40.912
1549.1400, -40.920
1549.1600, -40.921
1549.1800, -40.930
1549.2000, -40.919
1549.2200, -40.934
1549.2400, -40.930
1549.2600, -40.924
1549.2800, -40.929
1549.3000, -40.920
1549.3200, -40.909
1549.3400, -40.915
1549.3600, -40.922
1549.3800, -40.919
1549.4000, -40.931
1549.4200, -40.924
1549.4400, -40.941
1549.4600, -40.924
1549.4800, -40.935
1549.5000, -40.941
1549.5200, -40.934
1549.5400, -40.941
1549.5600, -40.938
1549.5800, -40.953
1549.6000, -40.941
1549.6200, -40.959
1549.6400, -40.963
1549.6600, -40.960
1549.6800, -40.967
1549.7000, -40.957
1549.7200, -40.970
1549.7400, -40.975
1549.7600, -40.980
1549.7800, -40.984
1549.8000, -40.986
1549.8200, -40.983
1549.8400, -40.995
1549.8600, -41.005
1549.8800, -41.008
1549.9000, -41.008
1549.9200, -41.003
1549.9400, -40.999
1549.9600, -40.999
1549.9800, -40.996
1550.0000, -41.005
1550.0200, -41.011
1550.0400, -41.015
1550.0600, -41.004
1550.0800, -41.011
1550.1000, -41.015
1550.1200, -41.016
1550.1400, -41.015
1550.1600, -41.008
1550.1800, -41.016
1550.2000, -41.012
1550.2200, -41.014
1550.2400, -41.018
1550.2600, -41.026
1550.2800, -41.026
1550.3000, -41.026
1550.3200, -41.030
1550.3400, -41.039
1550.3600, -41.033
1550.3800, -41.038
1550.4000, -41.050
1550.4200, -41.044
1550.4400, -41.039
1550.4600, -41.054
1550.4800, -41.045
1550.5000, -41.048
1550.5200, -41.053
1550.5400, -41.050
1550.5600, -41.055
1550.5800, -41.056
1550.6000, -41.052
1550.6200, -41.064
1550.6400, -41.069
1550.6600, -41.073
1550.6800, -41.079
1550.7000, -41.083
1550.7200, -41.086
1550.7400, -41.089
1550.7600, -41.108
1550.7800, -41.121
1550.8000, -41.117
1550.8200, -41.101
1550.8400, -41.104
1550.8600, -41.113
1550.8800, -41.117
1550.9000, -41.119
1550.9200, -41.124
1550.9400, -41.132
1550.9600, -41.130
1550.9800, -41.127
1551.0000, -41.127
1551.0200, -41.128
1551.0400, -41.139
1551.0600, -41.141
1551.0800, -41.146
1551.1000, -41.142
1551.1200, -41.146
1551.1400, -41.148
1551.1600, -41.155
1551.1800, -41.160
1551.2000, -41.164
1551.2200, -41.160
1551.2400, -41.160
1551.2600, -41.163
1551.2800, -41.172
1551.3000, -41.180
1551.3200, -41.158
1551.3400, -41.156
1551.3600, -41.184
1551.3800, -41.177
1551.4000, -41.172
1551.4200, -41.171
1551.4400, -41.175
1551.4600, -41.179
1551.4800, -41.180
1551.5000, -41.181
1551.5200, -41.190
1551.5400, -41.187
1551.5600, -41.191
1551.5800, -41.197
1551.6000, -41.199
1551.6200, -41.197
1551.6400, -41.209
1551.6600, -41.212
1551.6800, -41.232
1551.7000, -41.219
1551.7200, -41.229
1551.7400, -41.217
1551.7600, -41.224
1551.7800, -41.234
1551.8000, -41.232
1551.8200, -41.240
1551.8400, -41.235
1551.8600, -41.235
1551.8800, -41.234
1551.9000, -41.232
1551.9200, -41.243
1551.9400, -41.234
1551.9600, -41.252
1551.9800, -41.243
1552.0000, -41.235
1552.0200, -41.246
1552.0400, -41.250
1552.0600, -41.252
1552.0800, -41.255
1552.1000, -41.262
1552.1200, -41.266
1552.1400, -41.274
1552.1600, -41.274
1552.1800, -41.285
1552.2000, -41.287
1552.2200, -41.283
1552.2400, -41.287
1552.2600, -41.287
1552.2800, -41.290
1552.3000, -41.291
1552.3200, -41.291
1552.3400, -41.297
1552.3600, -41.300
1552.3800, -41.295
1552.4000, -41.306
1552.4200, -41.310
1552.4400, -41.314
1552.4600, -41.317
1552.4800, -41.325
1552.5000, -41.328
1552.5200, -41.320
1552.5400, -41.334
1552.5600, -41.350
1552.5800, -41.355
1552.6000, -41.348
1552.6200, -41.348
1552.6400, -41.348
1552.6600, -41.364
1552.6800, -41.369
1552.7000, -41.369
1552.7200, -41.372
1552.7400, -41.371
1552.7600, -41.369
1552.7800, -41.370
1552.8000, -41.369
1552.8200, -41.382
1552.8400, -41.379
1552.8600, -41.380
1552.8800, -41.382
1552.9000, -41.384
1552.9200, -41.386
1552.9400, -41.386
1552.9600, -41.388
1552.9800, -41.386
1553.0000, -41.385
1553.0200, -41.379
1553.0400, -41.378
1553.0600, -41.384
1553.0800, -41.388
1553.1000, -41.398
1553.1200, -41.390
1553.1400, -41.401
1553.1600, -41.399
1553.1800, -41.406
1553.2000, -41.410
1553.2200, -41.412
1553.2400, -41.422
1553.2600, -41.431
1553.2800, -41.431
1553.3000, -41.430
1553.3200, -41.437
1553.3400, -41.437
1553.3600, -41.440
1553.3800, -41.445
1553.4000, -41.441
1553.4200, -41.436
1553.4400, -41.438
1553.4600, -41.447
1553.4800, -41.448
1553.5000, -41.447
1553.5200, -41.445
1553.5400, -41.452
1553.5600, -41.447
1553.5800, -41.461
1553.6000, -41.455
1553.6200, -41.458
1553.6400, -41.458
1553.6600, -41.460
1553.6800, -41.463
1553.7000, -41.460
1553.7200, -41.467
1553.7400, -41.459
1553.7600, -41.469
1553.7800, -41.467
1553.8000, -41.470
1553.8200, -41.479
1553.8400, -41.476
1553.8600, -41.481
1553.8800, -41.482
1553.9000, -41.482
1553.9200, -41.492
1553.9400, -41.489
1553.9600, -41.484
1553.9800, -41.489
1554.0000, -41.501
1554.0200, -41.511
1554.0400, -41.505
1554.0600, -41.508
1554.0800, -41.516
1554.1000, -41.516
1554.1200, -41.523
1554.1400, -41.535
1554.1600, -41.536
1554.1800, -41.538
1554.2000, -41.544
1554.2200, -41.545
1554.2400, -41.543
1554.2600, -41.549
1554.2800, -41.552
1554.3000, -41.546
1554.3200, -41.563
1554.3400, -41.559
1554.3600, -41.545
1554.3800, -41.554
1554.4000, -41.568
1554.4200, -41.563
1554.4400, -41.560
1554.4600, -41.559
1554.4800, -41.559
1554.5000, -41.564
1554.5200, -41.569
1554.5400, -41.568
1554.5600, -41.578
1554.5800, -41.567
1554.6000, -41.577
1554.6200, -41.580
1554.6400, -41.573
1554.6600, -41.582
1554.6800, -41.580
1554.7000, -41.580
1554.7200, -41.585
1554.7400, -41.586
1554.7600, -41.581
1554.7800, -41.593
1554.8000, -41.585
1554.8200, -41.587
1554.8400, -41.593
1554.8600, -41.588
1554.8800, -41.583
1554.9000, -41.608
1554.9200, -41.608
1554.9400, -41.590
1554.9600, -41.602
1554.9800, -41.601
1555.0000, -41.602
1555.0200, -41.606
1555.0400, -41.605
1555.0600, -41.604
1555.0800, -41.610
1555.1000, -41.608
1555.1200, -41.610
1555.1400, -41.615
1555.1600, -41.619
1555.1800, -41.626
1555.2000, -41.633
1555.2200, -41.634
1555.2400, -41.621
1555.2600, -41.625
1555.2800, -41.645
1555.3000, -41.650
1555.3200, -41.646
1555.3400, -41.644
1555.3600, -41.647
1555.3800, -41.645
1555.4000, -41.651
1555.4200, -41.653
1555.4400, -41.656
1555.4600, -41.657
1555.4800, -41.653
1555.5000, -41.670
1555.5200, -41.661
1555.5400, -41.665
1555.5600, -41.668
1555.5800, -41.672
1555.6000, -41.672
1555.6200, -41.676
1555.6400, -41.679
1555.6600, -41.679
1555.6800, -41.675
1555.7000, -41.677
1555.7200, -41.682
1555.7400, -41.679
1555.7600, -41.676
1555.7800, -41.683
1555.8000, -41.686
1555.8200, -41.687
1555.8400, -41.696
1555.8600, -41.697
1555.8800, -41.704
1555.9000, -41.701
1555.9200, -41.707
1555.9400, -41.714
1555.9600, -41.721
1555.9800, -41.724
1556.0000, -41.733
1556.0200, -41.732
1556.0400, -41.735
1556.0600, -41.742
1556.0800, -41.745
1556.1000, -41.749
1556.1200, -41.750
1556.1400, -41.756
1556.1600, -41.754
1556.1800, -41.758
1556.2000, -41.763
1556.2200, -41.753
1556.2400, -41.758
1556.2600, -41.764
1556.2800, -41.761
1556.3000, -41.760
1556.3200, -41.763
1556.3400, -41.768
1556.3600, -41.765
1556.3800, -41.785
1556.4000, -41.777
1556.4200, -41.778
1556.4400, -41.786
1556.4600, -41.782
1556.4800, -41.786
1556.5000, -41.783
1556.5200, -41.792
1556.5400, -41.789
1556.5600, -41.793
1556.5800, -41.795
1556.6000, -41.804
1556.6200, -41.797
1556.6400, -41.801
1556.6600, -41.804
1556.6800, -41.822
1556.7000, -41.823
1556.7200, -41.815
1556.7400, -41.820
1556.7600, -41.829
1556.7800, -41.829
1556.8000, -41.837
1556.8200, -41.841
1556.8400, -41.839
1556.8600, -41.842
1556.8800, -41.849
1556.9000, -41.854
1556.9200, -41.856
1556.9400, -41.862
1556.9600, -41.867
1556.9800, -41.871
1557.0000, -41.878
1557.0200, -41.875
1557.0400, -41.876
1557.0600, -41.877
1557.0800, -41.884
1557.1000, -41.883
1557.1200, -41.888
1557.1400, -41.888
1557.1600, -41.889
1557.1800, -41.900
1557.2000, -41.902
1557.2200, -41.905
1557.2400, -41.907
1557.2600, -41.906
1557.2800, -41.914
1557.3000, -41.921
1557.3200, -41.919
1557.3400, -41.928
1557.3600, -41.931
1557.3800, -41.932
1557.4000, -41.947
1557.4200, -41.946
1557.4400, -41.952
1557.4600, -41.954
1557.4800, -41.957
1557.5000, -41.961
1557.5200, -41.968
1557.5400, -41.967
1557.5600, -41.985
1557.5800, -41.987
1557.6000, -41.984
1557.6200, -41.982
1557.6400, -41.983
1557.6600, -41.993
1557.6800, -42.004
1557.7000, -42.009
1557.7200, -42.011
1557.7400, -42.019
1557.7600, -42.023
1557.7800, -42.026
1557.8000, -42.034
1557.8200, -42.035
1557.8400, -42.036
1557.8600, -42.042
1557.8800, -42.055
1557.9000, -42.053
1557.9200, -42.053
1557.9400, -42.063
1557.9600, -42.069
1557.9800, -42.069
1558.0000, -42.077
1558.0200, -42.081
1558.0400, -42.080
1558.0600, -42.097
1558.0800, -42.100
1558.1000, -42.109
1558.1200, -42.113
1558.1400, -42.114
1558.1600, -42.121
1558.1800, -42.123
1558.2000, -42.126
1558.2200, -42.134
1558.2400, -42.136
1558.2600, -42.140
1558.2800, -42.147
1558.3000, -42.151
1558.3200, -42.154
1558.3400, -42.159
1558.3600, -42.164
1558.3800, -42.170
1558.4000, -42.170
1558.4200, -42.174
1558.4400, -42.188
1558.4600, -42.192
1558.4800, -42.206
1558.5000, -42.203
1558.5200, -42.204
1558.5400, -42.214
1558.5600, -42.225
1558.5800, -42.230
1558.6000, -42.237
1558.6200, -42.239
1558.6400, -42.250
1558.6600, -42.254
1558.6800, -42.263
1558.7000, -42.274
1558.7200, -42.276
1558.7400, -42.281
1558.7600, -42.294
1558.7800, -42.301
1558.8000, -42.300
1558.8200, -42.315
1558.8400, -42.319
1558.8600, -42.326
1558.8800, -42.318
1558.9000, -42.334
1558.9200, -42.335
1558.9400, -42.345
1558.9600, -42.354
1558.9800, -42.362
1559.0000, -42.365
1559.0200, -42.373
1559.0400, -42.384
1559.0600, -42.393
1559.0800, -42.395
1559.1000, -42.409
1559.1200, -42.408
1559.1400, -42.420
1559.1600, -42.428
1559.1800, -42.435
1559.2000, -42.445
1559.2200, -42.448
1559.2400, -42.455
1559.2600, -42.465
1559.2800, -42.470
1559.3000, -42.471
1559.3200, -42.487
1559.3400, -42.490
1559.3600, -42.498
1559.3800, -42.505
1559.4000, -42.510
1559.4200, -42.521
1559.4400, -42.526
1559.4600, -42.535
1559.4800, -42.545
1559.5000, -42.554
1559.5200, -42.568
1559.5400, -42.577
1559.5600, -42.588
1559.5800, -42.595
1559.6000, -42.603
1559.6200, -42.611
1559.6400, -42.618
1559.6600, -42.627
1559.6800, -42.632
1559.7000, -42.642
1559.7200, -42.652
1559.7400, -42.662
1559.7600, -42.669
1559.7800, -42.686
1559.8000, -42.686
1559.8200, -42.695
1559.8400, -42.706
1559.8600, -42.707
1559.8800, -42.722
1559.9000, -42.730
1559.9200, -42.740
1559.9400, -42.750
1559.9600, -42.756
1559.9800, -42.771
1560.0000, -42.779
1560.0200, -42.797
1560.0400, -42.804
1560.0600, -42.813
1560.0800, -42.821
1560.1000, -42.831
1560.1200, -42.839
1560.1400, -42.853
1560.1600, -42.856
1560.1800, -42.869
1560.2000, -42.886
1560.2200, -42.891
1560.2400, -42.903
1560.2600, -42.914
1560.2800, -42.924
1560.3000, -42.939
1560.3200, -42.952
1560.3400, -42.957
1560.3600, -42.964
1560.3800, -42.977
1560.4000, -42.987
1560.4200, -42.992
1560.4400, -43.007
1560.4600, -43.013
1560.4800, -43.023
1560.5000, -43.040
1560.5200, -43.052
1560.5400, -43.062
1560.5600, -43.071
1560.5800, -43.081
1560.6000, -43.091
1560.6200, -43.104
1560.6400, -43.120
1560.6600, -43.138
1560.6800, -43.150
1560.7000, -43.155
1560.7200, -43.166
1560.7400, -43.170
1560.7600, -43.183
1560.7800, -43.186
1560.8000, -43.204
1560.8200, -43.212
1560.8400, -43.220
1560.8600, -43.235
1560.8800, -43.244
1560.9000, -43.258
1560.9200, -43.269
1560.9400, -43.275
1560.9600, -43.286
1560.9800, -43.296
1561.0000, -43.305
1561.0200, -43.321
1561.0400, -43.327
1561.0600, -43.343
1561.0800, -43.358
1561.1000, -43.380
1561.1200, -43.389
1561.1400, -43.404
1561.1600, -43.411
1561.1800, -43.422
1561.2000, -43.433
1561.2200, -43.442
1561.2400, -43.461
1561.2600, -43.475
1561.2800, -43.486
1561.3000, -43.503
1561.3200, -43.518
1561.3400, -43.532
1561.3600, -43.548
1561.3800, -43.563
1561.4000, -43.575
1561.4200, -43.590
1561.4400, -43.603
1561.4600, -43.631
1561.4800, -43.635
1561.5000, -43.643
1561.5200, -43.655
1561.5400, -43.674
1561.5600, -43.690
1561.5800, -43.699
1561.6000, -43.718
1561.6200, -43.727
1561.6400, -43.745
1561.6600, -43.755
1561.6800, -43.771
1561.7000, -43.791
1561.7200, -43.804
1561.7400, -43.819
1561.7600, -43.830
1561.7800, -43.842
1561.8000, -43.856
1561.8200, -43.870
1561.8400, -43.880
1561.8600, -43.895
1561.8800, -43.905
1561.9000, -43.922
1561.9200, -43.931
1561.9400, -43.942
1561.9600, -43.967
1561.9800, -43.973
1562.0000, -43.984
1562.0200, -44.007
1562.0400, -44.017
1562.0600, -44.027
1562.0800, -44.048
1562.1000, -44.063
1562.1200, -44.081
1562.1400, -44.098
1562.1600, -44.109
1562.1800, -44.128
1562.2000, -44.146
1562.2200, -44.165
1562.2400, -44.178
1562.2600, -44.196
1562.2800, -44.211
1562.3000, -44.222
1562.3200, -44.248
1562.3400, -44.260
1562.3600, -44.281
1562.3800, -44.284
1562.4000, -44.309
1562.4200, -44.320
1562.4400, -44.337
1562.4600, -44.353
1562.4800, -44.369
1562.5000, -44.380
1562.5200, -44.405
1562.5400, -44.415
1562.5600, -44.425
1562.5800, -44.449
1562.6000, -44.458
1562.6200, -44.478
1562.6400, -44.490
1562.6600, -44.500
1562.6800, -44.516
1562.7000, -44.534
1562.7200, -44.550
1562.7400, -44.570
1562.7600, -44.587
1562.7800, -44.600
1562.8000, -44.612
1562.8200, -44.630
1562.8400, -44.649
1562.8600, -44.661
1562.8800, -44.672
1562.9000, -44.690
1562.9200, -44.713
1562.9400, -44.729
1562.9600, -44.750
1562.9800, -44.764
1563.0000, -44.778
1563.0200, -44.800
1563.0400, -44.810
1563.0600, -44.834
1563.0800, -44.850
1563.1000, -44.874
1563.1200, -44.885
1563.1400, -44.903
1563.1600, -44.915
1563.1800, -44.934
1563.2000, -44.951
1563.2200, -44.968
1563.2400, -44.985
1563.2600, -44.999
1563.2800, -45.014
1563.3000, -45.034
1563.3200, -45.047
1563.3400, -45.069
1563.3600, -45.084
1563.3800, -45.099
1563.4000, -45.130
1563.4200, -45.148
1563.4400, -45.154
1563.4600, -45.182
1563.4800, -45.191
1563.5000, -45.208
1563.5200, -45.221
1563.5400, -45.238
1563.5600, -45.256
1563.5800, -45.273
1563.6000, -45.289
1563.6200, -45.320
1563.6400, -45.331
1563.6600, -45.346
1563.6800, -45.360
1563.7000, -45.384
1563.7200, -45.406
1563.7400, -45.418
1563.7600, -45.429
1563.7800, -45.453
1563.8000, -45.479
1563.8200, -45.489
1563.8400, -45.511
1563.8600, -45.532
1563.8800, -45.550
1563.9000, -45.569
1563.9200, -45.584
1563.9400, -45.605
1563.9600, -45.628
1563.9800, -45.654
1564.0000, -45.664
1564.0200, -45.680
1564.0400, -45.697
1564.0600, -45.709
1564.0800, -45.731
1564.1000, -45.748
1564.1200, -45.765
1564.1400, -45.776
1564.1600, -45.800
1564.1800, -45.821
1564.2000, -45.836
1564.2200, -45.864
1564.2400, -45.879
1564.2600, -45.889
1564.2800, -45.921
1564.3000, -45.937
1564.3200, -45.946
1564.3400, -45.973
1564.3600, -45.986
1564.3800, -46.003
1564.4000, -46.017
1564.4200, -46.034
1564.4400, -46.059
1564.4600, -46.081
1564.4800, -46.095
1564.5000, -46.129
1564.5200, -46.140
1564.5400, -46.161
1564.5600, -46.175
1564.5800, -46.194
1564.6000, -46.213
1564.6200, -46.229
1564.6400, -46.242
1564.6600, -46.270
1564.6800, -46.288
1564.7000, -46.303
1564.7200, -46.328
1564.7400, -46.346
1564.7600, -46.368
1564.7800, -46.386
1564.8000, -46.400
1564.8200, -46.421
1564.8400, -46.443
1564.8600, -46.469
1564.8800, -46.480
1564.9000, -46.500
1564.9200, -46.516
1564.9400, -46.534
1564.9600, -46.558
1564.9800, -46.579
1565.0000, -46.591
1565.0200, -46.614
1565.0400, -46.634
1565.0600, -46.653
1565.0800, -46.670
1565.1000, -46.699
1565.1200, -46.710
1565.1400, -46.730
1565.1600, -46.765
1565.1800, -46.772
1565.2000, -46.786
1565.2200, -46.813
1565.2400, -46.827
1565.2600, -46.850
1565.2800, -46.864
1565.3000, -46.880
1565.3200, -46.906
1565.3400, -46.924
1565.3600, -46.939
1565.3800, -46.971
1565.4000, -46.976
1565.4200, -47.012
1565.4400, -47.021
1565.4600, -47.043
1565.4800, -47.064
1565.5000, -47.077
1565.5200, -47.100
1565.5400, -47.121
1565.5600, -47.142
1565.5800, -47.158
1565.6000, -47.182
1565.6200, -47.206
1565.6400, -47.220
1565.6600, -47.236
1565.6800, -47.255
1565.7000, -47.275
1565.7200, -47.298
1565.7400, -47.320
1565.7600, -47.342
1565.7800, -47.355
1565.8000, -47.376
1565.8200, -47.393
1565.8400, -47.416
1565.8600, -47.436
1565.8800, -47.454
1565.9000, -47.476
1565.9200, -47.496
1565.9400, -47.510
1565.9600, -47.533
1565.9800, -47.556
1566.0000, -47.569
1566.0200, -47.592
1566.0400, -47.624
1566.0600, -47.635
1566.0800, -47.655
1566.1000, -47.675
1566.1200, -47.688
1566.1400, -47.711
1566.1600, -47.727
1566.1800, -47.745
1566.2000, -47.768
1566.2200, -47.785
1566.2400, -47.808
1566.2600, -47.831
1566.2800, -47.838
1566.3000, -47.869
1566.3200, -47.880
1566.3400, -47.901
1566.3600, -47.919
1566.3800, -47.940
1566.4000, -47.956
1566.4200, -47.977
1566.4400, -47.998
1566.4600, -48.023
1566.4800, -48.042
1566.5000, -48.069
1566.5200, -48.079
1566.5400, -48.097
1566.5600, -48.120
1566.5800, -48.142
1566.6000, -48.164
1566.6200, -48.190
1566.6400, -48.202
1566.6600, -48.220
1566.6800, -48.242
1566.7000, -48.262
1566.7200, -48.283
1566.7400, -48.302
1566.7600, -48.321
1566.7800, -48.343
1566.8000, -48.362
1566.8200, -48.379
1566.8400, -48.403
1566.8600, -48.420
1566.8800, -48.437
1566.9000, -48.462
1566.9200, -48.483
1566.9400, -48.496
1566.9600, -48.520
1566.9800, -48.535
1567.0000, -48.557
1567.0200, -48.576
1567.0400, -48.591
1567.0600, -48.611
1567.0800, -48.633
1567.1000, -48.652
1567.1200, -48.679
1567.1400, -48.690
1567.1600, -48.704
1567.1800, -48.726
1567.2000, -48.749
1567.2200, -48.766
1567.2400, -48.790
1567.2600, -48.809
1567.2800, -48.830
1567.3000, -48.845
1567.3200, -48.867
1567.3400, -48.888
1567.3600, -48.903
1567.3800, -48.931
1567.4000, -48.947
1567.4200, -48.963
1567.4400, -48.987
1567.4600, -49.006
1567.4800, -49.027
1567.5000, -49.048
1567.5200, -49.067
1567.5400, -49.084
1567.5600, -49.104
1567.5800, -49.125
1567.6000, -49.148
1567.6200, -49.165
1567.6400, -49.190
1567.6600, -49.209
1567.6800, -49.223
1567.7000, -49.248
1567.7200, -49.269
1567.7400, -49.282
1567.7600, -49.305
1567.7800, -49.330
1567.8000, -49.343
1567.8200, -49.357
1567.8400, -49.387
1567.8600, -49.398
1567.8800, -49.423
1567.9000, -49.442
1567.9200, -49.456
1567.9400, -49.471
1567.9600, -49.492
1567.9800, -49.513
1568.0000, -49.536
1568.0200, -49.549
1568.0400, -49.573
1568.0600, -49.588
1568.0800, -49.609
1568.1000, -49.628
1568.1200, -49.648
1568.1400, -49.668
1568.1600, -49.691
1568.1800, -49.713
1568.2000, -49.730
1568.2200, -49.755
1568.2400, -49.770
1568.2600, -49.791
1568.2800, -49.808
1568.3000, -49.829
1568.3200, -49.854
1568.3400, -49.873
1568.3600, -49.893
1568.3800, -49.911
1568.4000, -49.931
1568.4200, -49.949
1568.4400, -49.971
1568.4600, -49.991
1568.4800, -50.008
1568.5000, -50.030
1568.5200, -50.055
1568.5400, -50.064
1568.5600, -50.083
1568.5800, -50.105
1568.6000, -50.127
1568.6200, -50.146
1568.6400, -50.166
1568.6600, -50.193
1568.6800, -50.198
1568.7000, -50.227
1568.7200, -50.245
1568.7400, -50.263
1568.7600, -50.278
1568.7800, -50.298
1568.8000, -50.313
1568.8200, -50.337
1568.8400, -50.352
1568.8600, -50.377
1568.8800, -50.395
1568.9000, -50.408
1568.9200, -50.432
1568.9400, -50.448
1568.9600, -50.465
1568.9800, -50.490
1569.0000, -50.510
1569.0200, -50.526
1569.0400, -50.543
1569.0600, -50.565
1569.0800, -50.587
1569.1000, -50.601
1569.1200, -50.626
1569.1400, -50.643
1569.1600, -50.657
1569.1800, -50.688
1569.2000, -50.706
1569.2200, -50.725
1569.2400, -50.742
1569.2600, -50.759
1569.2800, -50.779
1569.3000, -50.801
1569.3200, -50.819
1569.3400, -50.839
1569.3600, -50.852
1569.3800, -50.880
1569.4000, -50.896
1569.4200, -50.906
1569.4400, -50.928
1569.4600, -50.949
1569.4800, -50.966
1569.5000, -50.985
1569.5200, -51.005
1569.5400, -51.019
1569.5600, -51.038
1569.5800, -51.056
1569.6000, -51.083
1569.6200, -51.094
1569.6400, -51.114
1569.6600, -51.130
1569.6800, -51.153
1569.7000, -51.170
1569.7200, -51.192
1569.7400, -51.209
1569.7600, -51.223
1569.7800, -51.243
1569.8000, -51.264
1569.8200, -51.281
1569.8400, -51.298
1569.8600, -51.321
1569.8800, -51.344
1569.9000, -51.350
1569.9200, -51.369
1569.9400, -51.393
1569.9600, -51.411
1569.9800, -51.432
1570.0000, -51.448
1570.0200, -51.467
1570.0400, -51.479
1570.0600, -51.505
1570.0800, -51.522
1570.1000, -51.547
1570.1200, -51.559
1570.1400, -51.581
1570.1600, -51.599
1570.1800, -51.617
1570.2000, -51.638
1570.2200, -51.655
1570.2400, -51.671
1570.2600, -51.696
1570.2800, -51.711
1570.3000, -51.724
1570.3200, -51.748
1570.3400, -51.768
1570.3600, -51.783
1570.3800, -51.800
1570.4000, -51.813
1570.4200, -51.837
1570.4400, -51.853
1570.4600, -51.874
1570.4800, -51.887
1570.5000, -51.908
1570.5200, -51.924
1570.5400, -51.939
1570.5600, -51.963
1570.5800, -51.979
1570.6000, -51.991
1570.6200, -52.014
1570.6400, -52.035
1570.6600, -52.048
1570.6800, -52.071
1570.7000, -52.089
1570.7200, -52.106
1570.7400, -52.121
1570.7600, -52.142
1570.7800, -52.159
1570.8000, -52.180
1570.8200, -52.198
1570.8400, -52.218
1570.8600, -52.236
1570.8800, -52.254
1570.9000, -52.268
1570.9200, -52.286
1570.9400, -52.307
1570.9600, -52.326
1570.9800, -52.343
1571.0000, -52.361
1571.0200, -52.381
1571.0400, -52.397
1571.0600, -52.413
1571.0800, -52.445
1571.1000, -52.451
1571.1200, -52.461
1571.1400, -52.487
1571.1600, -52.493
1571.1800, -52.519
1571.2000, -52.536
1571.2200, -52.552
1571.2400, -52.577
1571.2600, -52.583
1571.2800, -52.605
1571.3000, -52.627
1571.3200, -52.644
1571.3400, -52.666
1571.3600, -52.681
1571.3800, -52.701
1571.4000, -52.708
1571.4200, -52.726
1571.4400, -52.751
1571.4600, -52.765
1571.4800, -52.783
1571.5000, -52.800
1571.5200, -52.819
1571.5400, -52.841
1571.5600, -52.854
1571.5800, -52.874
1571.6000, -52.880
1571.6200, -52.898
1571.6400, -52.923
1571.6600, -52.941
1571.6800, -52.956
1571.7000, -52.974
1571.7200, -52.993
1571.7400, -53.007
1571.7600, -53.029
1571.7800, -53.035
1571.8000, -53.068
1571.8200, -53.077
1571.8400, -53.100
1571.8600, -53.118
1571.8800, -53.130
1571.9000, -53.143
1571.9200, -53.165
1571.9400, -53.202
1571.9600, -53.204
1571.9800, -53.217
1572.0000, -53.235
1572.0200, -53.254
1572.0400, -53.269
1572.0600, -53.286
1572.0800, -53.305
1572.1000, -53.327
1572.1200, -53.337
1572.1400, -53.355
1572.1600, -53.361
1572.1800, -53.379
1572.2000, -53.412
1572.2200, -53.428
1572.2400, -53.437
1572.2600, -53.450
1572.2800, -53.475
1572.3000, -53.486
1572.3200, -53.506
1572.3400, -53.513
1572.3600, -53.533
1572.3800, -53.547
1572.4000, -53.568
1572.4200, -53.588
1572.4400, -53.608
1572.4600, -53.607
1572.4800, -53.625
1572.5000, -53.646
1572.5200, -53.659
1572.5400, -53.690
1572.5600, -53.707
1572.5800, -53.712
1572.6000, -53.734
1572.6200, -53.746
1572.6400, -53.769
1572.6600, -53.780
1572.6800, -53.801
1572.7000, -53.811
1572.7200, -53.829
1572.7400, -53.845
1572.7600, -53.859
1572.7800, -53.865
1572.8000, -53.895
1572.8200, -53.920
1572.8400, -53.927
1572.8600, -53.938
1572.8800, -53.945
1572.9000, -53.977
1572.9200, -54.000
1572.9400, -54.014
1572.9600, -54.026
1572.9800, -54.039
1573.0000, -54.060
1573.0200, -54.072
1573.0400, -54.086
1573.0600, -54.100
1573.0800, -54.122
1573.1000, -54.133
1573.1200, -54.150
1573.1400, -54.163
1573.1600, -54.172
1573.1800, -54.204
1573.2000, -54.214
1573.2200, -54.226
1573.2400, -54.241
1573.2600, -54.258
1573.2800, -54.275
1573.3000, -54.296
1573.3200, -54.297
1573.3400, -54.314
1573.3600, -54.328
1573.3800, -54.349
1573.4000, -54.367
1573.4200, -54.382
1573.4400, -54.398
1573.4600, -54.411
1573.4800, -54.427
1573.5000, -54.442
1573.5200, -54.463
1573.5400, -54.475
1573.5600, -54.491
1573.5800, -54.508
1573.6000, -54.531
1573.6200, -54.540
1573.6400, -54.546
1573.6600, -54.581
1573.6800, -54.588
1573.7000, -54.612
1573.7200, -54.603
1573.7400, -54.623
1573.7600, -54.648
1573.7800, -54.668
1573.8000, -54.672
1573.8200, -54.691
1573.8400, -54.701
1573.8600, -54.723
1573.8800, -54.728
1573.9000, -54.751
1573.9200, -54.767
1573.9400, -54.775
1573.9600, -54.792
1573.9800, -54.816
1574.0000, -54.820
1574.0200, -54.835
1574.0400, -54.850
1574.0600, -54.859
1574.0800, -54.879
1574.1000, -54.889
1574.1200, -54.920
1574.1400, -54.921
1574.1600, -54.936
1574.1800, -54.962
1574.2000, -54.962
1574.2200, -54.992
1574.2400, -54.995
1574.2600, -55.006
1574.2800, -55.021
1574.3000, -55.038
1574.3200, -55.056
1574.3400, -55.064
1574.3600, -55.082
1574.3800, -55.091
1574.4000, -55.114
1574.4200, -55.110
1574.4400, -55.141
1574.4600, -55.149
1574.4800, -55.172
1574.5000, -55.182
1574.5200, -55.200
1574.5400, -55.210
1574.5600, -55.245
1574.5800, -55.237
1574.6000, -55.255
1574.6200, -55.272
1574.6400, -55.286
1574.6600, -55.309
1574.6800, -55.309
1574.7000, -55.327
1574.7200, -55.346
1574.7400, -55.352
1574.7600, -55.367
1574.7800, -55.390
1574.8000, -55.393
1574.8200, -55.420
1574.8400, -55.428
1574.8600, -55.435
1574.8800, -55.451
1574.9000, -55.463
1574.9200, -55.478
1574.9400, -55.503
1574.9600, -55.504
1574.9800, -55.518
1575.0000, -55.546
1575.0200, -55.541
1575.0400, -55.567
1575.0600, -55.576
1575.0800, -55.590
1575.1000, -55.605
1575.1200, -55.619
1575.1400, -55.633
1575.1600, -55.641
1575.1800, -55.656
1575.2000, -55.672
1575.2200, -55.688
1575.2400, -55.697
1575.2600, -55.724
1575.2800, -55.730
1575.3000, -55.743
1575.3200, -55.756
1575.3400, -55.772
1575.3600, -55.781
1575.3800, -55.801
1575.4000, -55.827
1575.4200, -55.820
1575.4400, -55.825
1575.4600, -55.846
1575.4800, -55.872
1575.5000, -55.881
1575.5200, -55.889
1575.5400, -55.895
1575.5600, -55.921
1575.5800, -55.934
1575.6000, -55.941
1575.6200, -55.945
1575.6400, -55.970
1575.6600, -55.987
1575.6800, -56.002
1575.7000, -56.006
1575.7200, -56.007
1575.7400, -56.038
1575.7600, -56.044
1575.7800, -56.059
1575.8000, -56.074
1575.8200, -56.087
1575.8400, -56.095
1575.8600, -56.112
1575.8800, -56.126
1575.9000, -56.142
1575.9200, -56.147
1575.9400, -56.154
1575.9600, -56.172
1575.9800, -56.192
1576.0000, -56.210
1576.0200, -56.207
1576.0400, -56.224
1576.0600, -56.242
1576.0800, -56.244
1576.1000, -56.250
1576.1200, -56.273
1576.1400, -56.276
1576.1600, -56.302
1576.1800, -56.332
1576.2000, -56.328
1576.2200, -56.330
1576.2400, -56.342
1576.2600, -56.371
1576.2800, -56.383
1576.3000, -56.378
1576.3200, -56.393
1576.3400, -56.394
1576.3600, -56.418
1576.3800, -56.429
1576.4000, -56.449
1576.4200, -56.450
1576.4400, -56.463
1576.4600, -56.485
1576.4800, -56.498
1576.5000, -56.509
1576.5200, -56.501
1576.5400, -56.517
1576.5600, -56.536
1576.5800, -56.549
1576.6000, -56.567
1576.6200, -56.564
1576.6400, -56.588
1576.6600, -56.604
1576.6800, -56.606
1576.7000, -56.611
1576.7200, -56.631
1576.7400, -56.646
1576.7600, -56.663
1576.7800, -56.659
1576.8000, -56.674
1576.8200, -56.691
1576.8400, -56.703
1576.8600, -56.710
1576.8800, -56.714
1576.9000, -56.743
1576.9200, -56.737
1576.9400, -56.748
1576.9600, -56.770
1576.9800, -56.778
1577.0000, -56.799
1577.0200, -56.800
1577.0400, -56.812
1577.0600, -56.845
1577.0800, -56.834
1577.1000, -56.859
1577.1200, -56.865
1577.1400, -56.872
1577.1600, -56.876
1577.1800, -56.896
1577.2000, -56.898
1577.2200, -56.908
1577.2400, -56.917
1577.2600, -56.930
1577.2800, -56.955
1577.3000, -56.954
1577.3200, -56.967
1577.3400, -56.979
1577.3600, -56.997
1577.3800, -56.999
1577.4000, -57.020
1577.4200, -57.019
1577.4400, -57.030
1577.4600, -57.038
1577.4800, -57.068
1577.5000, -57.065
1577.5200, -57.104
1577.5400, -57.088
1577.5600, -57.098
1577.5800, -57.099
1577.6000, -57.129
1577.6200, -57.135
1577.6400, -57.126
1577.6600, -57.146
1577.6800, -57.154
1577.7000, -57.164
1577.7200, -57.181
1577.7400, -57.204
1577.7600, -57.210
1577.7800, -57.209
1577.8000, -57.227
1577.8200, -57.238
1577.8400, -57.254
1577.8600, -57.265
1577.8800, -57.269
1577.9000, -57.280
1577.9200, -57.295
1577.9400, -57.303
1577.9600, -57.322
1577.9800, -57.324
1578.0000, -57.332
1578.0200, -57.348
1578.0400, -57.356
1578.0600, -57.371
1578.0800, -57.372
1578.1000, -57.398
1578.1200, -57.392
1578.1400, -57.399
1578.1600, -57.430
1578.1800, -57.436
1578.2000, -57.439
1578.2200, -57.448
1578.2400, -57.453
1578.2600, -57.466
1578.2800, -57.486
1578.3000, -57.498
1578.3200, -57.495
1578.3400, -57.514
1578.3600, -57.538
1578.3800, -57.512
1578.4000, -57.543
1578.4200, -57.545
1578.4400, -57.572
1578.4600, -57.562
1578.4800, -57.579
1578.5000, -57.580
1578.5200, -57.602
1578.5400, -57.619
1578.5600, -57.608
1578.5800, -57.630
1578.6000, -57.645
1578.6200, -57.644
1578.6400, -57.654
1578.6600, -57.659
1578.6800, -57.687
1578.7000, -57.689
1578.7200, -57.695
1578.7400, -57.712
1578.7600, -57.725
1578.7800, -57.710
1578.8000, -57.730
1578.8200, -57.739
1578.8400, -57.759
1578.8600, -57.796
1578.8800, -57.785
1578.9000, -57.789
1578.9200, -57.781
1578.9400, -57.818
1578.9600, -57.810
1578.9800, -57.826
1579.0000, -57.837
1579.0200, -57.850
1579.0400, -57.844
1579.0600, -57.872
1579.0800, -57.873
1579.1000, -57.884
1579.1200, -57.902
1579.1400, -57.918
1579.1600, -57.911
1579.1800, -57.912
1579.2000, -57.940
1579.2200, -57.929
1579.2400, -57.944
1579.2600, -57.948
1579.2800, -57.957
1579.3000, -57.958
1579.3200, -57.992
1579.3400, -57.993
1579.3600, -58.002
1579.3800, -58.014
1579.4000, -58.032
1579.4200, -58.037
1579.4400, -58.041
1579.4600, -58.051
1579.4800, -58.066
1579.5000, -58.072
1579.5200, -58.068
1579.5400, -58.089
1579.5600, -58.093
1579.5800, -58.099
1579.6000, -58.113
1579.6200, -58.122
1579.6400, -58.128
1579.6600, -58.164
1579.6800, -58.139
1579.7000, -58.166
1579.7200, -58.187
1579.7400, -58.182
1579.7600, -58.197
1579.7800, -58.190
1579.8000, -58.200
1579.8200, -58.211
1579.8400, -58.223
1579.8600, -58.233
1579.8800, -58.236
1579.9000, -58.253
1579.9200, -58.260
1579.9400, -58.260
1579.9600, -58.275
1579.9800, -58.284
1580.0000, -58.293
1580.0200, -58.307
1580.0400, -58.290
1580.0600, -58.329
1580.0800, -58.324
1580.1000, -58.308
1580.1200, -58.330
1580.1400, -58.353
1580.1600, -58.359
1580.1800, -58.366
1580.2000, -58.363
1580.2200, -58.380
1580.2400, -58.395
1580.2600, -58.394
1580.2800, -58.408
1580.3000, -58.414
1580.3200, -58.428
1580.3400, -58.426
1580.3600, -58.447
1580.3800, -58.449
1580.4000, -58.440
1580.4200, -58.457
1580.4400, -58.496
1580.4600, -58.472
1580.4800, -58.500
1580.5000, -58.512
1580.5200, -58.501
1580.5400, -58.529
1580.5600, -58.535
1580.5800, -58.528
1580.6000, -58.531
1580.6200, -58.556
1580.6400, -58.586
1580.6600, -58.561
1580.6800, -58.565
1580.7000, -58.550
1580.7200, -58.590
1580.7400, -58.588
1580.7600, -58.609
1580.7800, -58.612
1580.8000, -58.613
1580.8200, -58.630
1580.8400, -58.620
1580.8600, -58.659
1580.8800, -58.638
1580.9000, -58.652
1580.9200, -58.674
1580.9400, -58.654
1580.9600, -58.695
1580.9800, -58.690
1581.0000, -58.692
1581.0200, -58.711
1581.0400, -58.713
1581.0600, -58.720
1581.0800, -58.741
1581.1000, -58.756
1581.1200, -58.744
1581.1400, -58.736
1581.1600, -58.756
1581.1800, -58.746
1581.2000, -58.773
1581.2200, -58.773
1581.2400, -58.793
1581.2600, -58.810
1581.2800, -58.813
1581.3000, -58.813
1581.3200, -58.821
1581.3400, -58.853
1581.3600, -58.846
1581.3800, -58.840
1581.4000, -58.850
1581.4200, -58.857
1581.4400, -58.857
1581.4600, -58.882
1581.4800, -58.889
1581.5000, -58.905
1581.5200, -58.886
1581.5400, -58.896
1581.5600, -58.902
1581.5800, -58.906
1581.6000, -58.913
1581.6200, -58.934
1581.6400, -58.949
1581.6600, -58.937
1581.6800, -58.935
1581.7000, -58.974
1581.7200, -58.970
1581.7400, -58.971
1581.7600, -58.979
1581.7800, -58.984
1581.8000, -59.012
1581.8200, -58.975
1581.8400, -59.035
1581.8600, -58.994
1581.8800, -59.023
1581.9000, -59.025
1581.9200, -59.048
1581.9400, -59.053
1581.9600, -59.069
1581.9800, -59.031
1582.0000, -59.070
1582.0200, -59.084
1582.0400, -59.064
1582.0600, -59.095
1582.0800, -59.087
1582.1000, -59.107
1582.1200, -59.111
1582.1400, -59.122
1582.1600, -59.136
1582.1800, -59.141
1582.2000, -59.133
1582.2200, -59.148
1582.2400, -59.166
1582.2600, -59.171
1582.2800, -59.164
1582.3000, -59.161
1582.3200, -59.181
1582.3400, -59.181
1582.3600, -59.192
1582.3800, -59.231
1582.4000, -59.186
1582.4200, -59.211
1582.4400, -59.238
1582.4600, -59.219
1582.4800, -59.234
1582.5000, -59.227
1582.5200, -59.249
1582.5400, -59.238
1582.5600, -59.280
1582.5800, -59.244
1582.6000, -59.280
1582.6200, -59.261
1582.6400, -59.299
1582.6600, -59.312
1582.6800, -59.303
1582.7000, -59.299
1582.7200, -59.306
1582.7400, -59.343
1582.7600, -59.308
1582.7800, -59.347
1582.8000, -59.362
1582.8200, -59.358
1582.8400, -59.341
1582.8600, -59.358
1582.8800, -59.354
1582.9000, -59.403
1582.9200, -59.367
1582.9400, -59.400
1582.9600, -59.403
1582.9800, -59.392
1583.0000, -59.421
1583.0200, -59.412
1583.0400, -59.421
1583.0600, -59.461
1583.0800, -59.427
1583.1000, -59.460
1583.1200, -59.460
1583.1400, -59.450
1583.1600, -59.507
1583.1800, -59.451
1583.2000, -59.486
1583.2200, -59.489
1583.2400, -59.482
1583.2600, -59.494
1583.2800, -59.514
1583.3000, -59.474
1583.3200, -59.495
1583.3400, -59.518
1583.3600, -59.566
1583.3800, -59.537
1583.4000, -59.542
1583.4200, -59.547
1583.4400, -59.576
1583.4600, -59.568
1583.4800, -59.555
1583.5000, -59.588
1583.5200, -59.561
1583.5400, -59.598
1583.5600, -59.605
1583.5800, -59.592
1583.6000, -59.615
1583.6200, -59.611
1583.6400, -59.633
1583.6600, -59.615
1583.6800, -59.637
1583.7000, -59.665
1583.7200, -59.624
1583.7400, -59.668
1583.7600, -59.652
1583.7800, -59.635
1583.8000, -59.656
1583.8200, -59.674
1583.8400, -59.677
1583.8600, -59.677
1583.8800, -59.698
1583.9000, -59.690
1583.9200, -59.717
1583.9400, -59.735
1583.9600, -59.701
1583.9800, -59.767
1584.0000, -59.702
1584.0200, -59.739
1584.0400, -59.743
1584.0600, -59.775
1584.0800, -59.734
1584.1000, -59.779
1584.1200, -59.763
1584.1400, -59.782
1584.1600, -59.767
1584.1800, -59.820
1584.2000, -59.746
1584.2200, -59.810
1584.2400, -59.777
1584.2600, -59.797
1584.2800, -59.817
1584.3000, -59.817
1584.3200, -59.813
1584.3400, -59.861
1584.3600, -59.817
1584.3800, -59.845
1584.4000, -59.836
1584.4200, -59.862
1584.4400, -59.850
1584.4600, -59.892
1584.4800, -59.878
1584.5000, -59.860
1584.5200, -59.870
1584.5400, -59.900
1584.5600, -59.917
1584.5800, -59.880
1584.6000, -59.889
1584.6200, -59.915
1584.6400, -59.918
1584.6600, -59.922
1584.6800, -59.938
1584.7000, -59.911
1584.7200, -59.920
1584.7400, -59.955
1584.7600, -59.937
1584.7800, -59.958
1584.8000, -59.968
1584.8200, -59.964
1584.8400, -59.986
1584.8600, -59.969
1584.8800, -59.990
1584.9000, -59.977
1584.9200, -60.004
1584.9400, -60.034
1584.9600, -59.987
1584.9800, -60.013
1585.0000, -60.004
1585.0200, -60.022
1585.0400, -60.038
1585.0600, -60.021
1585.0800, -60.045
1585.1000, -60.033
1585.1200, -60.073
1585.1400, -60.044
1585.1600, -60.049
1585.1800, -60.061
1585.2000, -60.042
1585.2200, -60.095
1585.2400, -60.083
1585.2600, -60.077
1585.2800, -60.078
1585.3000, -60.085
1585.3200, -60.102
1585.3400, -60.104
1585.3600, -60.073
1585.3800, -60.107
1585.4000, -60.152
1585.4200, -60.109
1585.4400, -60.127
1585.4600, -60.146
1585.4800, -60.145
1585.5000, -60.152
1585.5200, -60.123
1585.5400, -60.146
1585.5600, -60.166
1585.5800, -60.163
1585.6000, -60.171
1585.6200, -60.172
1585.6400, -60.196
1585.6600, -60.217
1585.6800, -60.194
1585.7000, -60.209
1585.7200, -60.181
1585.7400, -60.209
1585.7600, -60.261
1585.7800, -60.217
1585.8000, -60.216
1585.8200, -60.222
1585.8400, -60.267
1585.8600, -60.196
1585.8800, -60.280
1585.9000, -60.245
1585.9200, -60.216
1585.9400, -60.277
1585.9600, -60.272
1585.9800, -60.243
1586.0000, -60.252
1586.0200, -60.285
1586.0400, -60.277
1586.0600, -60.291
1586.0800, -60.281
1586.1000, -60.312
1586.1200, -60.296
1586.1400, -60.290
1586.1600, -60.320
1586.1800, -60.324
1586.2000, -60.319
1586.2200, -60.323
1586.2400, -60.349
1586.2600, -60.329
1586.2800, -60.363
1586.3000, -60.356
1586.3200, -60.361
1586.3400, -60.348
1586.3600, -60.374
1586.3800, -60.357
1586.4000, -60.367
1586.4200, -60.362
1586.4400, -60.383
1586.4600, -60.376
1586.4800, -60.389
1586.5000, -60.400
1586.5200, -60.376
1586.5400, -60.404
1586.5600, -60.423
1586.5800, -60.426
1586.6000, -60.414
1586.6200, -60.422
1586.6400, -60.458
1586.6600, -60.459
1586.6800, -60.460
1586.7000, -60.478
1586.7200, -60.465
1586.7400, -60.475
1586.7600, -60.476
1586.7800, -60.460
1586.8000, -60.466
1586.8200, -60.479
1586.8400, -60.487
1586.8600, -60.488
1586.8800, -60.504
1586.9000, -60.506
1586.9200, -60.494
1586.9400, -60.545
1586.9600, -60.556
1586.9800, -60.498
1587.0000, -60.528
1587.0200, -60.495
1587.0400, -60.566
1587.0600, -60.543
1587.0800, -60.534
1587.1000, -60.564
1587.1200, -60.534
1587.1400, -60.565
1587.1600, -60.574
1587.1800, -60.579
1587.2000, -60.566
1587.2200, -60.578
1587.2400, -60.582
1587.2600, -60.579
1587.2800, -60.595
1587.3000, -60.596
1587.3200, -60.578
1587.3400, -60.614
1587.3600, -60.618
1587.3800, -60.601
1587.4000, -60.638
1587.4200, -60.618
1587.4400, -60.638
1587.4600, -60.642
1587.4800, -60.635
1587.5000, -60.653
1587.5200, -60.646
1587.5400, -60.668
1587.5600, -60.665
1587.5800, -60.674
1587.6000, -60.690
1587.6200, -60.676
1587.6400, -60.656
1587.6600, -60.681
1587.6800, -60.711
1587.7000, -60.689
1587.7200, -60.688
1587.7400, -60.744
1587.7600, -60.746
1587.7800, -60.703
1587.8000, -60.726
1587.8200, -60.734
1587.8400, -60.728
1587.8600, -60.733
1587.8800, -60.788
1587.9000, -60.722
1587.9200, -60.765
1587.9400, -60.716
1587.9600, -60.811
1587.9800, -60.771
1588.0000, -60.754
1588.0200, -60.808
1588.0400, -60.758
1588.0600, -60.767
1588.0800, -60.785
1588.1000, -60.773
1588.1200, -60.787
1588.1400, -60.821
1588.1600, -60.830
1588.1800, -60.811
1588.2000, -60.835
1588.2200, -60.765
1588.2400, -60.819
1588.2600, -60.795
1588.2800, -60.855
1588.3000, -60.838
1588.3200, -60.833
1588.3400, -60.834
1588.3600, -60.853
1588.3800, -60.866
1588.4000, -60.838
1588.4200, -60.858
1588.4400, -60.874
1588.4600, -60.872
1588.4800, -60.876
1588.5000, -60.866
1588.5200, -60.893
1588.5400, -60.904
1588.5600, -60.885
1588.5800, -60.919
1588.6000, -60.932
1588.6200, -60.908
1588.6400, -60.892
1588.6600, -60.969
1588.6800, -60.899
1588.7000, -60.968
1588.7200, -60.917
1588.7400, -60.892
1588.7600, -60.964
1588.7800, -60.951
1588.8000, -60.926
1588.8200, -60.954
1588.8400, -60.942
1588.8600, -60.960
1588.8800, -61.012
1588.9000, -60.983
1588.9200, -60.988
1588.9400, -60.983
1588.9600, -60.986
1588.9800, -60.957
1589.0000, -61.024
1589.0200, -60.980
1589.0400, -61.022
1589.0600, -61.015
1589.0800, -61.025
1589.1000, -61.013
1589.1200, -61.019
1589.1400, -61.002
1589.1600, -61.044
1589.1800, -61.079
1589.2000, -61.005
1589.2200, -61.023
1589.2400, -61.049
1589.2600, -61.083
1589.2800, -61.038
1589.3000, -61.056
1589.3200, -61.082
1589.3400, -61.059
1589.3600, -61.077
1589.3800, -61.082
1589.4000, -61.091
1589.4200, -61.075
1589.4400, -61.086
1589.4600, -61.136
1589.4800, -61.063
1589.5000, -61.144
1589.5200, -61.077
1589.5400, -61.118
1589.5600, -61.124
1589.5800, -61.126
1589.6000, -61.133
1589.6200, -61.130
1589.6400, -61.125
1589.6600, -61.134
1589.6800, -61.162
1589.7000, -61.158
1589.7200, -61.175
1589.7400, -61.149
1589.7600, -61.149
1589.7800, -61.170
1589.8000, -61.191
1589.8200, -61.196
1589.8400, -61.134
1589.8600, -61.199
1589.8800, -61.201
1589.9000, -61.228
1589.9200, -61.190
1589.9400, -61.144
1589.9600, -61.187
1589.9800, -61.204
1590.0000, -61.261
1590.0200, -61.196
1590.0400, -61.197
1590.0600, -61.232
1590.0800, -61.276
1590.1000, -61.242
1590.1200, -61.220
1590.1400, -61.223
1590.1600, -61.248
1590.1800, -61.230
1590.2000, -61.253
1590.2200, -61.273
1590.2400, -61.293
1590.2600, -61.229
1590.2800, -61.257
1590.3000, -61.269
1590.3200, -61.241
1590.3400, -61.290
1590.3600, -61.293
1590.3800, -61.265
1590.4000, -61.306
1590.4200, -61.304
1590.4400, -61.322
1590.4600, -61.320
1590.4800, -61.282
1590.5000, -61.367
1590.5200, -61.318
1590.5400, -61.352
1590.5600, -61.315
1590.5800, -61.327
1590.6000, -61.389
1590.6200, -61.351
1590.6400, -61.383
1590.6600, -61.351
1590.6800, -61.368
1590.7000, -61.321
1590.7200, -61.385
1590.7400, -61.405
1590.7600, -61.352
1590.7800, -61.385
1590.8000, -61.381
1590.8200, -61.387
1590.8400, -61.399
1590.8600, -61.428
1590.8800, -61.407
1590.9000, -61.419
1590.9200, -61.429
1590.9400, -61.402
1590.9600, -61.410
1590.9800, -61.430
1591.0000, -61.444
1591.0200, -61.430
1591.0400, -61.454
1591.0600, -61.452
1591.0800, -61.445
1591.1000, -61.464
1591.1200, -61.441
1591.1400, -61.475
1591.1600, -61.450
1591.1800, -61.480
1591.2000, -61.485
1591.2200, -61.498
1591.2400, -61.512
1591.2600, -61.434
1591.2800, -61.531
1591.3000, -61.499
1591.3200, -61.528
1591.3400, -61.480
1591.3600, -61.506
1591.3800, -61.508
1591.4000, -61.535
1591.4200, -61.535
1591.4400, -61.525
1591.4600, -61.531
1591.4800, -61.523
1591.5000, -61.560
1591.5200, -61.523
1591.5400, -61.544
1591.5600, -61.551
1591.5800, -61.573
1591.6000, -61.556
1591.6200, -61.575
1591.6400, -61.572
1591.6600, -61.597
1591.6800, -61.590
1591.7000, -61.593
1591.7200, -61.604
1591.7400, -61.623
1591.7600, -61.566
1591.7800, -61.654
1591.8000, -61.591
1591.8200, -61.600
1591.8400, -61.636
1591.8600, -61.554
1591.8800, -61.630
1591.9000, -61.676
1591.9200, -61.612
1591.9400, -61.649
1591.9600, -61.632
1591.9800, -61.623
1592.0000, -61.671
1592.0200, -61.644
1592.0400, -61.674
1592.0600, -61.662
1592.0800, -61.652
1592.1000, -61.701
1592.1200, -61.700
1592.1400, -61.650
1592.1600, -61.697
1592.1800, -61.762
1592.2000, -61.661
1592.2200, -61.673
1592.2400, -61.759
1592.2600, -61.691
1592.2800, -61.678
1592.3000, -61.707
1592.3200, -61.734
1592.3400, -61.725
1592.3600, -61.752
1592.3800, -61.730
1592.4000, -61.749
1592.4200, -61.730
1592.4400, -61.725
1592.4600, -61.743
1592.4800, -61.739
1592.5000, -61.759
1592.5200, -61.767
1592.5400, -61.778
1592.5600, -61.738
1592.5800, -61.799
1592.6000, -61.814
1592.6200, -61.722
1592.6400, -61.804
1592.6600, -61.796
1592.6800, -61.793
1592.7000, -61.835
1592.7200, -61.757
1592.7400, -61.826
1592.7600, -61.815
1592.7800, -61.801
1592.8000, -61.805
1592.8200, -61.797
1592.8400, -61.809
1592.8600, -61.837
1592.8800, -61.841
1592.9000, -61.902
1592.9200, -61.776
1592.9400, -61.850
1592.9600, -61.860
1592.9800, -61.872
1593.0000, -61.868
1593.0200, -61.869
1593.0400, -61.852
1593.0600, -61.864
1593.0800, -61.845
1593.1000, -61.864
1593.1200, -61.897
1593.1400, -61.879
1593.1600, -61.910
1593.1800, -61.894
1593.2000, -61.893
1593.2200, -61.986
1593.2400, -61.838
1593.2600, -61.940
1593.2800, -61.964
1593.3000, -61.878
1593.3200, -61.937
1593.3400, -61.954
1593.3600, -61.926
1593.3800, -61.948
1593.4000, -61.925
1593.4200, -62.007
1593.4400, -61.923
1593.4600, -61.959
1593.4800, -62.002
1593.5000, -61.973
1593.5200, -61.947
1593.5400, -61.958
1593.5600, -61.966
1593.5800, -61.979
1593.6000, -61.980
1593.6200, -62.010
1593.6400, -61.940
1593.6600, -62.021
1593.6800, -62.014
1593.7000, -61.998
1593.7200, -61.975
1593.7400, -62.014
1593.7600, -62.003
1593.7800, -62.036
1593.8000, -61.986
1593.8200, -62.044
1593.8400, -62.017
1593.8600, -62.024
1593.8800, -62.030
1593.9000, -62.064
1593.9200, -62.009
1593.9400, -62.042
1593.9600, -62.069
1593.9800, -62.033
1594.0000, -62.102
1594.0200, -62.078
1594.0400, -62.049
1594.0600, -62.047
1594.0800, -62.109
1594.1000, -62.107
1594.1200, -62.087
1594.1400, -62.083
1594.1600, -62.096
1594.1800, -62.116
1594.2000, -62.090
1594.2200, -62.091
1594.2400, -62.123
1594.2600, -62.120
1594.2800, -62.123
1594.3000, -62.098
1594.3200, -62.182
1594.3400, -62.144
1594.3600, -62.128
1594.3800, -62.140
1594.4000, -62.141
1594.4200, -62.148
1594.4400, -62.165
1594.4600, -62.171
1594.4800, -62.169
1594.5000, -62.198
1594.5200, -62.143
1594.5400, -62.199
1594.5600, -62.185
1594.5800, -62.120
1594.6000, -62.224
1594.6200, -62.161
1594.6400, -62.213
1594.6600, -62.191
1594.6800, -62.221
1594.7000, -62.172
1594.7200, -62.211
1594.7400, -62.200
1594.7600, -62.228
1594.7800, -62.222
1594.8000, -62.219
1594.8200, -62.232
1594.8400, -62.232
1594.8600, -62.235
1594.8800, -62.244
1594.9000, -62.291
1594.9200, -62.256
1594.9400, -62.213
1594.9600, -62.256
1594.9800, -62.288
1595.0000, -62.300
1595.0200, -62.238
1595.0400, -62.283
1595.0600, -62.267
1595.0800, -62.295
1595.1000, -62.302
1595.1200, -62.309
1595.1400, -62.332
1595.1600, -62.329
1595.1800, -62.306
1595.2000, -62.333
1595.2200, -62.273
1595.2400, -62.318
1595.2600, -62.315
1595.2800, -62.352
1595.3000, -62.338
1595.3200, -62.373
1595.3400, -62.327
1595.3600, -62.315
1595.3800, -62.370
1595.4000, -62.355
1595.4200, -62.333
1595.4400, -62.357
1595.4600, -62.368
1595.4800, -62.392
1595.5000, -62.374
1595.5200, -62.367
1595.5400, -62.360
1595.5600, -62.411
1595.5800, -62.384
1595.6000, -62.402
1595.6200, -62.430
1595.6400, -62.365
1595.6600, -62.422
1595.6800, -62.428
1595.7000, -62.412
1595.7200, -62.450
1595.7400, -62.437
1595.7600, -62.424
1595.7800, -62.400
1595.8000, -62.444
1595.8200, -62.414
1595.8400, -62.471
1595.8600, -62.433
1595.8800, -62.492
1595.9000, -62.474
1595.9200, -62.489
1595.9400, -62.471
1595.9600, -62.485
1595.9800, -62.462
1596.0000, -62.489
1596.0200, -62.504
1596.0400, -62.487
1596.0600, -62.573
1596.0800, -62.520
1596.1000, -62.444
1596.1200, -62.512
1596.1400, -62.458
1596.1600, -62.505
1596.1800, -62.505
1596.2000, -62.524
1596.2200, -62.520
1596.2400, -62.591
1596.2600, -62.508
1596.2800, -62.560
1596.3000, -62.513
1596.3200, -62.589
1596.3400, -62.559
1596.3600, -62.544
1596.3800, -62.580
1596.4000, -62.519
1596.4200, -62.552
1596.4400, -62.603
1596.4600, -62.613
1596.4800, -62.533
1596.5000, -62.596
1596.5200, -62.596
1596.5400, -62.621
1596.5600, -62.558
1596.5800, -62.590
1596.6000, -62.587
1596.6200, -62.627
1596.6400, -62.643
1596.6600, -62.646
1596.6800, -62.594
1596.7000, -62.641
1596.7200, -62.620
1596.7400, -62.623
1596.7600, -62.680
1596.7800, -62.648
1596.8000, -62.615
1596.8200, -62.658
1596.8400, -62.642
1596.8600, -62.698
1596.8800, -62.656
1596.9000, -62.671
1596.9200, -62.648
1596.9400, -62.688
1596.9600, -62.655
1596.9800, -62.677
1597.0000, -62.700
1597.0200, -62.685
1597.0400, -62.688
1597.0600, -62.674
1597.0800, -62.723
1597.1000, -62.694
1597.1200, -62.691
1597.1400, -62.729
1597.1600, -62.693
1597.1800, -62.699
1597.2000, -62.739
1597.2200, -62.718
1597.2400, -62.725
1597.2600, -62.797
1597.2800, -62.703
1597.3000, -62.747
1597.3200, -62.768
1597.3400, -62.752
1597.3600, -62.789
1597.3800, -62.751
1597.4000, -62.846
1597.4200, -62.730
1597.4400, -62.770
1597.4600, -62.745
1597.4800, -62.808
1597.5000, -62.783
1597.5200, -62.712
1597.5400, -62.803
1597.5600, -62.815
1597.5800, -62.786
1597.6000, -62.809
1597.6200, -62.787
1597.6400, -62.837
1597.6600, -62.813
1597.6800, -62.816
1597.7000, -62.843
1597.7200, -62.817
1597.7400, -62.863
1597.7600, -62.859
1597.7800, -62.813
1597.8000, -62.826
1597.8200, -62.848
1597.8400, -62.849
1597.8600, -62.839
1597.8800, -62.893
1597.9000, -62.836
1597.9200, -62.874
1597.9400, -62.861
1597.9600, -62.877
1597.9800, -62.850
1598.0000, -62.890
1598.0200, -62.859
1598.0400, -62.893
1598.0600, -62.919
1598.0800, -62.867
1598.1000, -62.848
1598.1200, -62.954
1598.1400, -62.900
1598.1600, -62.914
1598.1800, -62.964
1598.2000, -62.920
1598.2200, -62.953
1598.2400, -62.903
1598.2600, -62.883
1598.2800, -62.912
1598.3000, -62.943
1598.3200, -63.003
1598.3400, -62.956
1598.3600, -62.953
1598.3800, -62.957
1598.4000, -62.978
1598.4200, -62.957
1598.4400, -63.001
1598.4600, -62.981
1598.4800, -62.955
1598.5000, -63.001
1598.5200, -62.952
1598.5400, -62.973
1598.5600, -62.994
1598.5800, -62.983
1598.6000, -63.040
1598.6200, -62.992
1598.6400, -63.014
1598.6600, -62.966
1598.6800, -62.965
1598.7000, -63.006
1598.7200, -63.033
1598.7400, -63.036
1598.7600, -63.015
1598.7800, -63.027
1598.8000, -63.020
1598.8200, -63.096
1598.8400, -63.024
1598.8600, -63.076
1598.8800, -63.064
1598.9000, -63.073
1598.9200, -63.073
1598.9400, -63.066
1598.9600, -63.053
1598.9800, -63.120
1599.0000, -63.086
1599.0200, -63.089
1599.0400, -63.154
1599.0600, -63.092
1599.0800, -63.107
1599.1000, -63.127
1599.1200, -63.160
1599.1400, -63.092
1599.1600, -63.106
1599.1800, -63.132
1599.2000, -63.057
1599.2200, -63.171
1599.2400, -63.150
1599.2600, -63.144
1599.2800, -63.073
1599.3000, -63.181
1599.3200, -63.118
1599.3400, -63.157
1599.3600, -63.157
1599.3800, -63.168
1599.4000, -63.164
1599.4200, -63.185
1599.4400, -63.214
1599.4600, -63.207
1599.4800, -63.145
1599.5000, -63.189
1599.5200, -63.173
1599.5400, -63.217
1599.5600, -63.211
1599.5800, -63.167
1599.6000, -63.216
1599.6200, -63.232
1599.6400, -63.207
1599.6600, -63.312
1599.6800, -63.215
1599.7000, -63.235
1599.7200, -63.252
1599.7400, -63.240
1599.7600, -63.266
1599.7800, -63.231
1599.8000, -63.147
1599.8200, -63.333
1599.8400, -63.284
1599.8600, -63.288
1599.8800, -63.252
1599.9000, -63.305
1599.9200, -63.298
1599.9400, -63.283
1599.9600, -63.303
1599.9800, -63.265
1600.0000, -63.284
