70BCSV 	
// AQ6370B OPTICAL SPECTRUM ANALYZER //                 
25
"CTRWL",1550.000000
"SPAN", 100.000000
"START WL",1500.000000
"STOP WL",1600.000000
"WLFREQ", 0
"REFL",-28.8
"LSCL", 5.0
"RESLN",0.100
"AVG",   1
"SMPLAUTO",      0
"SMPL",       5001
"SMPLINTVL",0.0200
"HIGH1"
"MEAS"
"LSUNT",0
"NMSKH","OFF"
"RESCOR",0
"RESPARM", 9050
"FREQPARM", 9050






"[TRACE DATA]"
1500.0000, -62.804
1500.0200, -62.868
1500.0400, -62.803
1500.0600, -62.841
1500.0800, -62.795
1500.1000, -62.799
1500.1200, -62.811
1500.1400, -62.809
1500.1600, -62.768
1500.1800, -62.802
1500.2000, -62.791
1500.2200, -62.742
1500.2400, -62.783
1500.2600, -62.777
1500.2800, -62.787
1500.3000, -62.757
1500.3200, -62.749
1500.3400, -62.752
1500.3600, -62.774
1500.3800, -62.748
1500.4000, -62.718
1500.4200, -62.722
1500.4400, -62.741
1500.4600, -62.708
1500.4800, -62.684
1500.5000, -62.698
1500.5200, -62.717
1500.5400, -62.675
1500.5600, -62.675
1500.5800, -62.659
1500.6000, -62.677
1500.6200, -62.702
1500.6400, -62.669
1500.6600, -62.643
1500.6800, -62.690
1500.7000, -62.634
1500.7200, -62.676
1500.7400, -62.649
1500.7600, -62.626
1500.7800, -62.623
1500.8000, -62.631
1500.8200, -62.621
1500.8400, -62.582
1500.8600, -62.609
1500.8800, -62.632
1500.9000, -62.569
1500.9200, -62.579
1500.9400, -62.581
1500.9600, -62.586
1500.9800, -62.593
1501.0000, -62.586
1501.0200, -62.561
1501.0400, -62.584
1501.0600, -62.564
1501.0800, -62.545
1501.1000, -62.537
1501.1200, -62.567
1501.1400, -62.558
1501.1600, -62.561
1501.1800, -62.490
1501.2000, -62.574
1501.2200, -62.504
1501.2400, -62.523
1501.2600, -62.509
1501.2800, -62.478
1501.3000, -62.502
1501.3200, -62.505
1501.3400, -62.478
1501.3600, -62.479
1501.3800, -62.475
1501.4000, -62.484
1501.4200, -62.431
1501.4400, -62.454
1501.4600, -62.446
1501.4800, -62.445
1501.5000, -62.457
1501.5200, -62.432
1501.5400, -62.397
1501.5600, -62.411
1501.5800, -62.397
1501.6000, -62.426
1501.6200, -62.414
1501.6400, -62.412
1501.6600, -62.397
1501.6800, -62.370
1501.7000, -62.391
1501.7200, -62.359
1501.7400, -62.342
1501.7600, -62.359
1501.7800, -62.333
1501.8000, -62.355
1501.8200, -62.347
1501.8400, -62.389
1501.8600, -62.368
1501.8800, -62.365
1501.9000, -62.313
1501.9200, -62.358
1501.9400, -62.327
1501.9600, -62.359
1501.9800, -62.297
1502.0000, -62.307
1502.0200, -62.319
1502.0400, -62.292
1502.0600, -62.323
1502.0800, -62.258
1502.1000, -62.278
1502.1200, -62.262
1502.1400, -62.270
1502.1600, -62.288
1502.1800, -62.252
1502.2000, -62.258
1502.2200, -62.235
1502.2400, -62.233
1502.2600, -62.222
1502.2800, -62.215
1502.3000, -62.243
1502.3200, -62.184
1502.3400, -62.193
1502.3600, -62.193
1502.3800, -62.160
1502.4000, -62.153
1502.4200, -62.163
1502.4400, -62.139
1502.4600, -62.188
1502.4800, -62.167
1502.5000, -62.122
1502.5200, -62.153
1502.5400, -62.163
1502.5600, -62.111
1502.5800, -62.117
1502.6000, -62.082
1502.6200, -62.106
1502.6400, -62.107
1502.6600, -62.099
1502.6800, -62.069
1502.7000, -62.048
1502.7200, -62.064
1502.7400, -62.105
1502.7600, -62.073
1502.7800, -62.083
1502.8000, -62.064
1502.8200, -62.055
1502.8400, -62.101
1502.8600, -62.047
1502.8800, -62.009
1502.9000, -62.057
1502.9200, -62.011
1502.9400, -62.018
1502.9600, -62.017
1502.9800, -62.027
1503.0000, -62.023
1503.0200, -61.978
1503.0400, -61.976
1503.0600, -61.988
1503.0800, -61.979
1503.1000, -61.961
1503.1200, -61.955
1503.1400, -61.955
1503.1600, -61.943
1503.1800, -61.955
1503.2000, -61.942
1503.2200, -61.951
1503.2400, -61.927
1503.2600, -61.900
1503.2800, -61.900
1503.3000, -61.879
1503.3200, -61.889
1503.3400, -61.904
1503.3600, -61.874
1503.3800, -61.860
1503.4000, -61.881
1503.4200, -61.861
1503.4400, -61.839
1503.4600, -61.846
1503.4800, -61.823
1503.5000, -61.910
1503.5200, -61.824
1503.5400, -61.806
1503.5600, -61.806
1503.5800, -61.796
1503.6000, -61.828
1503.6200, -61.800
1503.6400, -61.794
1503.6600, -61.786
1503.6800, -61.790
1503.7000, -61.742
1503.7200, -61.772
1503.7400, -61.794
1503.7600, -61.719
1503.7800, -61.738
1503.8000, -61.768
1503.8200, -61.701
1503.8400, -61.756
1503.8600, -61.785
1503.8800, -61.688
1503.9000, -61.747
1503.9200, -61.683
1503.9400, -61.710
1503.9600, -61.684
1503.9800, -61.707
1504.0000, -61.709
1504.0200, -61.672
1504.0400, -61.670
1504.0600, -61.711
1504.0800, -61.638
1504.1000, -61.629
1504.1200, -61.647
1504.1400, -61.608
1504.1600, -61.638
1504.1800, -61.604
1504.2000, -61.621
1504.2200, -61.615
1504.2400, -61.560
1504.2600, -61.613
1504.2800, -61.568
1504.3000, -61.574
1504.3200, -61.565
1504.3400, -61.574
1504.3600, -61.542
1504.3800, -61.573
1504.4000, -61.540
1504.4200, -61.520
1504.4400, -61.520
1504.4600, -61.525
1504.4800, -61.531
1504.5000, -61.488
1504.5200, -61.481
1504.5400, -61.506
1504.5600, -61.482
1504.5800, -61.497
1504.6000, -61.448
1504.6200, -61.435
1504.6400, -61.430
1504.6600, -61.415
1504.6800, -61.434
1504.7000, -61.422
1504.7200, -61.435
1504.7400, -61.447
1504.7600, -61.418
1504.7800, -61.454
1504.8000, -61.407
1504.8200, -61.421
1504.8400, -61.379
1504.8600, -61.413
1504.8800, -61.380
1504.9000, -61.380
1504.9200, -61.373
1504.9400, -61.399
1504.9600, -61.328
1504.9800, -61.355
1505.0000, -61.330
1505.0200, -61.341
1505.0400, -61.345
1505.0600, -61.268
1505.0800, -61.303
1505.1000, -61.279
1505.1200, -61.278
1505.1400, -61.264
1505.1600, -61.285
1505.1800, -61.257
1505.2000, -61.261
1505.2200, -61.259
1505.2400, -61.250
1505.2600, -61.217
1505.2800, -61.194
1505.3000, -61.208
1505.3200, -61.210
1505.3400, -61.176
1505.3600, -61.178
1505.3800, -61.178
1505.4000, -61.186
1505.4200, -61.191
1505.4400, -61.197
1505.4600, -61.129
1505.4800, -61.140
1505.5000, -61.139
1505.5200, -61.169
1505.5400, -61.105
1505.5600, -61.095
1505.5800, -61.153
1505.6000, -61.103
1505.6200, -61.057
1505.6400, -61.080
1505.6600, -61.106
1505.6800, -61.055
1505.7000, -61.063
1505.7200, -61.102
1505.7400, -61.038
1505.7600, -61.079
1505.7800, -61.065
1505.8000, -61.057
1505.8200, -61.041
1505.8400, -61.063
1505.8600, -61.010
1505.8800, -60.981
1505.9000, -61.014
1505.9200, -60.993
1505.9400, -60.993
1505.9600, -60.981
1505.9800, -61.035
1506.0000, -60.951
1506.0200, -60.974
1506.0400, -60.946
1506.0600, -60.944
1506.0800, -60.933
1506.1000, -60.928
1506.1200, -60.948
1506.1400, -60.922
1506.1600, -60.928
1506.1800, -60.915
1506.2000, -60.886
1506.2200, -60.888
1506.2400, -60.855
1506.2600, -60.872
1506.2800, -60.839
1506.3000, -60.844
1506.3200, -60.840
1506.3400, -60.836
1506.3600, -60.822
1506.3800, -60.830
1506.4000, -60.822
1506.4200, -60.786
1506.4400, -60.778
1506.4600, -60.799
1506.4800, -60.796
1506.5000, -60.776
1506.5200, -60.751
1506.5400, -60.767
1506.5600, -60.752
1506.5800, -60.731
1506.6000, -60.766
1506.6200, -60.709
1506.6400, -60.737
1506.6600, -60.726
1506.6800, -60.707
1506.7000, -60.730
1506.7200, -60.693
1506.7400, -60.713
1506.7600, -60.680
1506.7800, -60.676
1506.8000, -60.690
1506.8200, -60.656
1506.8400, -60.680
1506.8600, -60.677
1506.8800, -60.648
1506.9000, -60.637
1506.9200, -60.630
1506.9400, -60.602
1506.9600, -60.620
1506.9800, -60.577
1507.0000, -60.629
1507.0200, -60.585
1507.0400, -60.591
1507.0600, -60.572
1507.0800, -60.572
1507.1000, -60.575
1507.1200, -60.566
1507.1400, -60.539
1507.1600, -60.518
1507.1800, -60.544
1507.2000, -60.513
1507.2200, -60.509
1507.2400, -60.512
1507.2600, -60.508
1507.2800, -60.504
1507.3000, -60.509
1507.3200, -60.448
1507.3400, -60.460
1507.3600, -60.470
1507.3800, -60.452
1507.4000, -60.432
1507.4200, -60.419
1507.4400, -60.420
1507.4600, -60.397
1507.4800, -60.440
1507.5000, -60.399
1507.5200, -60.395
1507.5400, -60.375
1507.5600, -60.393
1507.5800, -60.380
1507.6000, -60.364
1507.6200, -60.381
1507.6400, -60.340
1507.6600, -60.359
1507.6800, -60.334
1507.7000, -60.337
1507.7200, -60.330
1507.7400, -60.323
1507.7600, -60.330
1507.7800, -60.294
1507.8000, -60.293
1507.8200, -60.292
1507.8400, -60.275
1507.8600, -60.264
1507.8800, -60.285
1507.9000, -60.271
1507.9200, -60.252
1507.9400, -60.235
1507.9600, -60.220
1507.9800, -60.228
1508.0000, -60.228
1508.0200, -60.238
1508.0400, -60.203
1508.0600, -60.189
1508.0800, -60.169
1508.1000, -60.172
1508.1200, -60.192
1508.1400, -60.154
1508.1600, -60.127
1508.1800, -60.140
1508.2000, -60.124
1508.2200, -60.125
1508.2400, -60.125
1508.2600, -60.125
1508.2800, -60.110
1508.3000, -60.092
1508.3200, -60.088
1508.3400, -60.080
1508.3600, -60.067
1508.3800, -60.055
1508.4000, -60.065
1508.4200, -60.046
1508.4400, -60.024
1508.4600, -60.036
1508.4800, -60.016
1508.5000, -60.023
1508.5200, -60.009
1508.5400, -60.012
1508.5600, -60.015
1508.5800, -60.017
1508.6000, -59.987
1508.6200, -59.970
1508.6400, -59.995
1508.6600, -59.950
1508.6800, -59.955
1508.7000, -59.940
1508.7200, -59.945
1508.7400, -59.932
1508.7600, -59.936
1508.7800, -59.923
1508.8000, -59.928
1508.8200, -59.905
1508.8400, -59.911
1508.8600, -59.919
1508.8800, -59.887
1508.9000, -59.878
1508.9200, -59.845
1508.9400, -59.871
1508.9600, -59.825
1508.9800, -59.847
1509.0000, -59.828
1509.0200, -59.818
1509.0400, -59.781
1509.0600, -59.812
1509.0800, -59.796
1509.1000, -59.787
1509.1200, -59.783
1509.1400, -59.780
1509.1600, -59.744
1509.1800, -59.761
1509.2000, -59.734
1509.2200, -59.726
1509.2400, -59.709
1509.2600, -59.698
1509.2800, -59.712
1509.3000, -59.700
1509.3200, -59.689
1509.3400, -59.678
1509.3600, -59.686
1509.3800, -59.643
1509.4000, -59.663
1509.4200, -59.642
1509.4400, -59.638
1509.4600, -59.632
1509.4800, -59.619
1509.5000, -59.607
1509.5200, -59.618
1509.5400, -59.602
1509.5600, -59.606
1509.5800, -59.609
1509.6000, -59.587
1509.6200, -59.581
1509.6400, -59.581
1509.6600, -59.571
1509.6800, -59.586
1509.7000, -59.547
1509.7200, -59.527
1509.7400, -59.524
1509.7600, -59.514
1509.7800, -59.542
1509.8000, -59.493
1509.8200, -59.520
1509.8400, -59.469
1509.8600, -59.478
1509.8800, -59.461
1509.9000, -59.466
1509.9200, -59.444
1509.9400, -59.439
1509.9600, -59.432
1509.9800, -59.441
1510.0000, -59.402
1510.0200, -59.402
1510.0400, -59.391
1510.0600, -59.384
1510.0800, -59.363
1510.1000, -59.380
1510.1200, -59.353
1510.1400, -59.348
1510.1600, -59.339
1510.1800, -59.299
1510.2000, -59.320
1510.2200, -59.315
1510.2400, -59.287
1510.2600, -59.284
1510.2800, -59.277
1510.3000, -59.273
1510.3200, -59.246
1510.3400, -59.232
1510.3600, -59.224
1510.3800, -59.231
1510.4000, -59.182
1510.4200, -59.230
1510.4400, -59.201
1510.4600, -59.175
1510.4800, -59.150
1510.5000, -59.170
1510.5200, -59.155
1510.5400, -59.170
1510.5600, -59.142
1510.5800, -59.139
1510.6000, -59.145
1510.6200, -59.133
1510.6400, -59.128
1510.6600, -59.101
1510.6800, -59.084
1510.7000, -59.080
1510.7200, -59.080
1510.7400, -59.058
1510.7600, -59.045
1510.7800, -59.028
1510.8000, -59.025
1510.8200, -59.007
1510.8400, -59.006
1510.8600, -58.988
1510.8800, -58.983
1510.9000, -58.968
1510.9200, -58.962
1510.9400, -58.972
1510.9600, -58.948
1510.9800, -58.917
1511.0000, -58.904
1511.0200, -58.901
1511.0400, -58.892
1511.0600, -58.870
1511.0800, -58.872
1511.1000, -58.864
1511.1200, -58.836
1511.1400, -58.837
1511.1600, -58.816
1511.1800, -58.821
1511.2000, -58.798
1511.2200, -58.802
1511.2400, -58.784
1511.2600, -58.782
1511.2800, -58.764
1511.3000, -58.752
1511.3200, -58.736
1511.3400, -58.741
1511.3600, -58.731
1511.3800, -58.715
1511.4000, -58.715
1511.4200, -58.700
1511.4400, -58.688
1511.4600, -58.684
1511.4800, -58.690
1511.5000, -58.661
1511.5200, -58.654
1511.5400, -58.633
1511.5600, -58.640
1511.5800, -58.612
1511.6000, -58.614
1511.6200, -58.604
1511.6400, -58.591
1511.6600, -58.568
1511.6800, -58.571
1511.7000, -58.564
1511.7200, -58.557
1511.7400, -58.540
1511.7600, -58.527
1511.7800, -58.507
1511.8000, -58.495
1511.8200, -58.499
1511.8400, -58.470
1511.8600, -58.443
1511.8800, -58.446
1511.9000, -58.430
1511.9200, -58.432
1511.9400, -58.417
1511.9600, -58.403
1511.9800, -58.388
1512.0000, -58.377
1512.0200, -58.378
1512.0400, -58.353
1512.0600, -58.354
1512.0800, -58.332
1512.1000, -58.331
1512.1200, -58.311
1512.1400, -58.325
1512.1600, -58.295
1512.1800, -58.268
1512.2000, -58.286
1512.2200, -58.263
1512.2400, -58.234
1512.2600, -58.242
1512.2800, -58.243
1512.3000, -58.222
1512.3200, -58.211
1512.3400, -58.208
1512.3600, -58.199
1512.3800, -58.192
1512.4000, -58.193
1512.4200, -58.183
1512.4400, -58.159
1512.4600, -58.168
1512.4800, -58.139
1512.5000, -58.119
1512.5200, -58.114
1512.5400, -58.096
1512.5600, -58.102
1512.5800, -58.103
1512.6000, -58.074
1512.6200, -58.072
1512.6400, -58.047
1512.6600, -58.055
1512.6800, -58.039
1512.7000, -58.011
1512.7200, -58.004
1512.7400, -57.990
1512.7600, -57.974
1512.7800, -57.981
1512.8000, -57.971
1512.8200, -57.941
1512.8400, -57.943
1512.8600, -57.931
1512.8800, -57.906
1512.9000, -57.891
1512.9200, -57.907
1512.9400, -57.859
1512.9600, -57.864
1512.9800, -57.860
1513.0000, -57.845
1513.0200, -57.834
1513.0400, -57.829
1513.0600, -57.800
1513.0800, -57.805
1513.1000, -57.785
1513.1200, -57.761
1513.1400, -57.754
1513.1600, -57.748
1513.1800, -57.741
1513.2000, -57.731
1513.2200, -57.718
1513.2400, -57.720
1513.2600, -57.717
1513.2800, -57.692
1513.3000, -57.688
1513.3200, -57.664
1513.3400, -57.664
1513.3600, -57.674
1513.3800, -57.643
1513.4000, -57.645
1513.4200, -57.640
1513.4400, -57.614
1513.4600, -57.597
1513.4800, -57.589
1513.5000, -57.578
1513.5200, -57.576
1513.5400, -57.546
1513.5600, -57.547
1513.5800, -57.537
1513.6000, -57.519
1513.6200, -57.502
1513.6400, -57.497
1513.6600, -57.476
1513.6800, -57.471
1513.7000, -57.458
1513.7200, -57.448
1513.7400, -57.434
1513.7600, -57.423
1513.7800, -57.413
1513.8000, -57.395
1513.8200, -57.378
1513.8400, -57.366
1513.8600, -57.360
1513.8800, -57.321
1513.9000, -57.318
1513.9200, -57.321
1513.9400, -57.299
1513.9600, -57.275
1513.9800, -57.285
1514.0000, -57.269
1514.0200, -57.253
1514.0400, -57.222
1514.0600, -57.223
1514.0800, -57.196
1514.1000, -57.201
1514.1200, -57.201
1514.1400, -57.175
1514.1600, -57.166
1514.1800, -57.158
1514.2000, -57.148
1514.2200, -57.135
1514.2400, -57.143
1514.2600, -57.120
1514.2800, -57.102
1514.3000, -57.106
1514.3200, -57.089
1514.3400, -57.072
1514.3600, -57.085
1514.3800, -57.060
1514.4000, -57.039
1514.4200, -57.042
1514.4400, -57.020
1514.4600, -57.006
1514.4800, -56.996
1514.5000, -56.967
1514.5200, -56.975
1514.5400, -56.948
1514.5600, -56.941
1514.5800, -56.919
1514.6000, -56.922
1514.6200, -56.899
1514.6400, -56.879
1514.6600, -56.871
1514.6800, -56.867
1514.7000, -56.863
1514.7200, -56.834
1514.7400, -56.807
1514.7600, -56.828
1514.7800, -56.789
1514.8000, -56.769
1514.8200, -56.767
1514.8400, -56.744
1514.8600, -56.731
1514.8800, -56.714
1514.9000, -56.706
1514.9200, -56.704
1514.9400, -56.683
1514.9600, -56.672
1514.9800, -56.656
1515.0000, -56.649
1515.0200, -56.642
1515.0400, -56.611
1515.0600, -56.601
1515.0800, -56.598
1515.1000, -56.576
1515.1200, -56.562
1515.1400, -56.552
1515.1600, -56.542
1515.1800, -56.530
1515.2000, -56.515
1515.2200, -56.502
1515.2400, -56.497
1515.2600, -56.480
1515.2800, -56.476
1515.3000, -56.471
1515.3200, -56.445
1515.3400, -56.452
1515.3600, -56.439
1515.3800, -56.415
1515.4000, -56.405
1515.4200, -56.394
1515.4400, -56.343
1515.4600, -56.359
1515.4800, -56.333
1515.5000, -56.340
1515.5200, -56.313
1515.5400, -56.291
1515.5600, -56.267
1515.5800, -56.269
1515.6000, -56.248
1515.6200, -56.219
1515.6400, -56.232
1515.6600, -56.205
1515.6800, -56.187
1515.7000, -56.167
1515.7200, -56.164
1515.7400, -56.152
1515.7600, -56.134
1515.7800, -56.104
1515.8000, -56.093
1515.8200, -56.078
1515.8400, -56.072
1515.8600, -56.056
1515.8800, -56.042
1515.9000, -56.036
1515.9200, -56.009
1515.9400, -56.004
1515.9600, -55.968
1515.9800, -55.975
1516.0000, -55.955
1516.0200, -55.936
1516.0400, -55.913
1516.0600, -55.909
1516.0800, -55.899
1516.1000, -55.882
1516.1200, -55.880
1516.1400, -55.861
1516.1600, -55.843
1516.1800, -55.836
1516.2000, -55.828
1516.2200, -55.788
1516.2400, -55.798
1516.2600, -55.782
1516.2800, -55.764
1516.3000, -55.752
1516.3200, -55.743
1516.3400, -55.723
1516.3600, -55.706
1516.3800, -55.672
1516.4000, -55.674
1516.4200, -55.656
1516.4400, -55.645
1516.4600, -55.623
1516.4800, -55.611
1516.5000, -55.579
1516.5200, -55.574
1516.5400, -55.557
1516.5600, -55.551
1516.5800, -55.519
1516.6000, -55.519
1516.6200, -55.486
1516.6400, -55.489
1516.6600, -55.466
1516.6800, -55.439
1516.7000, -55.409
1516.7200, -55.400
1516.7400, -55.383
1516.7600, -55.363
1516.7800, -55.347
1516.8000, -55.346
1516.8200, -55.325
1516.8400, -55.317
1516.8600, -55.305
1516.8800, -55.272
1516.9000, -55.262
1516.9200, -55.245
1516.9400, -55.217
1516.9600, -55.206
1516.9800, -55.176
1517.0000, -55.163
1517.0200, -55.150
1517.0400, -55.138
1517.0600, -55.124
1517.0800, -55.115
1517.1000, -55.095
1517.1200, -55.087
1517.1400, -55.056
1517.1600, -55.042
1517.1800, -55.053
1517.2000, -55.017
1517.2200, -54.999
1517.2400, -54.989
1517.2600, -54.974
1517.2800, -54.961
1517.3000, -54.939
1517.3200, -54.909
1517.3400, -54.884
1517.3600, -54.877
1517.3800, -54.861
1517.4000, -54.844
1517.4200, -54.820
1517.4400, -54.802
1517.4600, -54.784
1517.4800, -54.770
1517.5000, -54.754
1517.5200, -54.729
1517.5400, -54.723
1517.5600, -54.689
1517.5800, -54.665
1517.6000, -54.659
1517.6200, -54.639
1517.6400, -54.618
1517.6600, -54.585
1517.6800, -54.577
1517.7000, -54.558
1517.7200, -54.533
1517.7400, -54.520
1517.7600, -54.503
1517.7800, -54.488
1517.8000, -54.484
1517.8200, -54.451
1517.8400, -54.432
1517.8600, -54.404
1517.8800, -54.388
1517.9000, -54.360
1517.9200, -54.339
1517.9400, -54.321
1517.9600, -54.309
1517.9800, -54.295
1518.0000, -54.282
1518.0200, -54.255
1518.0400, -54.246
1518.0600, -54.224
1518.0800, -54.207
1518.1000, -54.195
1518.1200, -54.178
1518.1400, -54.159
1518.1600, -54.130
1518.1800, -54.104
1518.2000, -54.097
1518.2200, -54.089
1518.2400, -54.057
1518.2600, -54.035
1518.2800, -54.011
1518.3000, -53.990
1518.3200, -53.969
1518.3400, -53.951
1518.3600, -53.931
1518.3800, -53.912
1518.4000, -53.895
1518.4200, -53.878
1518.4400, -53.847
1518.4600, -53.821
1518.4800, -53.811
1518.5000, -53.783
1518.5200, -53.740
1518.5400, -53.739
1518.5600, -53.711
1518.5800, -53.685
1518.6000, -53.644
1518.6200, -53.638
1518.6400, -53.622
1518.6600, -53.596
1518.6800, -53.559
1518.7000, -53.553
1518.7200, -53.544
1518.7400, -53.521
1518.7600, -53.495
1518.7800, -53.452
1518.8000, -53.441
1518.8200, -53.434
1518.8400, -53.406
1518.8600, -53.373
1518.8800, -53.363
1518.9000, -53.336
1518.9200, -53.315
1518.9400, -53.284
1518.9600, -53.288
1518.9800, -53.264
1519.0000, -53.242
1519.0200, -53.216
1519.0400, -53.195
1519.0600, -53.164
1519.0800, -53.154
1519.1000, -53.117
1519.1200, -53.103
1519.1400, -53.080
1519.1600, -53.047
1519.1800, -53.036
1519.2000, -53.007
1519.2200, -52.992
1519.2400, -52.957
1519.2600, -52.942
1519.2800, -52.915
1519.3000, -52.897
1519.3200, -52.861
1519.3400, -52.838
1519.3600, -52.822
1519.3800, -52.790
1519.4000, -52.756
1519.4200, -52.720
1519.4400, -52.670
1519.4600, -52.661
1519.4800, -52.645
1519.5000, -52.627
1519.5200, -52.607
1519.5400, -52.570
1519.5600, -52.546
1519.5800, -52.530
1519.6000, -52.493
1519.6200, -52.466
1519.6400, -52.442
1519.6600, -52.416
1519.6800, -52.385
1519.7000, -52.369
1519.7200, -52.333
1519.7400, -52.311
1519.7600, -52.294
1519.7800, -52.264
1519.8000, -52.247
1519.8200, -52.215
1519.8400, -52.181
1519.8600, -52.161
1519.8800, -52.122
1519.9000, -52.120
1519.9200, -52.096
1519.9400, -52.069
1519.9600, -52.039
1519.9800, -52.021
1520.0000, -51.993
1520.0200, -51.969
1520.0400, -51.934
1520.0600, -51.902
1520.0800, -51.895
1520.1000, -51.858
1520.1200, -51.827
1520.1400, -51.789
1520.1600, -51.759
1520.1800, -51.738
1520.2000, -51.697
1520.2200, -51.677
1520.2400, -51.658
1520.2600, -51.609
1520.2800, -51.592
1520.3000, -51.565
1520.3200, -51.526
1520.3400, -51.497
1520.3600, -51.481
1520.3800, -51.437
1520.4000, -51.402
1520.4200, -51.367
1520.4400, -51.332
1520.4600, -51.313
1520.4800, -51.279
1520.5000, -51.252
1520.5200, -51.223
1520.5400, -51.187
1520.5600, -51.129
1520.5800, -51.116
1520.6000, -51.104
1520.6200, -51.074
1520.6400, -51.047
1520.6600, -50.977
1520.6800, -50.962
1520.7000, -50.942
1520.7200, -50.905
1520.7400, -50.881
1520.7600, -50.837
1520.7800, -50.809
1520.8000, -50.788
1520.8200, -50.754
1520.8400, -50.734
1520.8600, -50.702
1520.8800, -50.663
1520.9000, -50.635
1520.9200, -50.613
1520.9400, -50.594
1520.9600, -50.552
1520.9800, -50.504
1521.0000, -50.493
1521.0200, -50.473
1521.0400, -50.427
1521.0600, -50.386
1521.0800, -50.341
1521.1000, -50.305
1521.1200, -50.283
1521.1400, -50.226
1521.1600, -50.202
1521.1800, -50.177
1521.2000, -50.143
1521.2200, -50.107
1521.2400, -50.078
1521.2600, -50.039
1521.2800, -50.006
1521.3000, -49.983
1521.3200, -49.936
1521.3400, -49.894
1521.3600, -49.855
1521.3800, -49.800
1521.4000, -49.785
1521.4200, -49.755
1521.4400, -49.715
1521.4600, -49.687
1521.4800, -49.651
1521.5000, -49.596
1521.5200, -49.585
1521.5400, -49.552
1521.5600, -49.512
1521.5800, -49.475
1521.6000, -49.416
1521.6200, -49.398
1521.6400, -49.366
1521.6600, -49.332
1521.6800, -49.294
1521.7000, -49.244
1521.7200, -49.216
1521.7400, -49.194
1521.7600, -49.162
1521.7800, -49.133
1521.8000, -49.099
1521.8200, -49.048
1521.8400, -49.023
1521.8600, -48.995
1521.8800, -48.974
1521.9000, -48.930
1521.9200, -48.891
1521.9400, -48.856
1521.9600, -48.834
1521.9800, -48.791
1522.0000, -48.735
1522.0200, -48.707
1522.0400, -48.670
1522.0600, -48.624
1522.0800, -48.577
1522.1000, -48.550
1522.1200, -48.532
1522.1400, -48.492
1522.1600, -48.456
1522.1800, -48.413
1522.2000, -48.375
1522.2200, -48.325
1522.2400, -48.289
1522.2600, -48.243
1522.2800, -48.210
1522.3000, -48.162
1522.3200, -48.122
1522.3400, -48.099
1522.3600, -48.065
1522.3800, -48.031
1522.4000, -47.985
1522.4200, -47.936
1522.4400, -47.874
1522.4600, -47.869
1522.4800, -47.842
1522.5000, -47.807
1522.5200, -47.745
1522.5400, -47.695
1522.5600, -47.677
1522.5800, -47.645
1522.6000, -47.608
1522.6200, -47.560
1522.6400, -47.524
1522.6600, -47.485
1522.6800, -47.448
1522.7000, -47.427
1522.7200, -47.396
1522.7400, -47.352
1522.7600, -47.322
1522.7800, -47.279
1522.8000, -47.251
1522.8200, -47.221
1522.8400, -47.173
1522.8600, -47.139
1522.8800, -47.108
1522.9000, -47.066
1522.9200, -47.016
1522.9400, -46.986
1522.9600, -46.955
1522.9800, -46.922
1523.0000, -46.873
1523.0200, -46.834
1523.0400, -46.797
1523.0600, -46.764
1523.0800, -46.732
1523.1000, -46.688
1523.1200, -46.648
1523.1400, -46.589
1523.1600, -46.571
1523.1800, -46.537
1523.2000, -46.503
1523.2200, -46.452
1523.2400, -46.409
1523.2600, -46.366
1523.2800, -46.322
1523.3000, -46.302
1523.3200, -46.252
1523.3400, -46.227
1523.3600, -46.177
1523.3800, -46.145
1523.4000, -46.109
1523.4200, -46.068
1523.4400, -46.035
1523.4600, -45.997
1523.4800, -45.963
1523.5000, -45.915
1523.5200, -45.887
1523.5400, -45.840
1523.5600, -45.809
1523.5800, -45.779
1523.6000, -45.731
1523.6200, -45.708
1523.6400, -45.678
1523.6600, -45.640
1523.6800, -45.607
1523.7000, -45.574
1523.7200, -45.531
1523.7400, -45.499
1523.7600, -45.472
1523.7800, -45.435
1523.8000, -45.400
1523.8200, -45.366
1523.8400, -45.314
1523.8600, -45.274
1523.8800, -45.248
1523.9000, -45.215
1523.9200, -45.180
1523.9400, -45.148
1523.9600, -45.108
1523.9800, -45.067
1524.0000, -45.028
1524.0200, -45.000
1524.0400, -44.959
1524.0600, -44.924
1524.0800, -44.875
1524.1000, -44.833
1524.1200, -44.792
1524.1400, -44.761
1524.1600, -44.726
1524.1800, -44.690
1524.2000, -44.653
1524.2200, -44.619
1524.2400, -44.584
1524.2600, -44.543
1524.2800, -44.508
1524.3000, -44.469
1524.3200, -44.429
1524.3400, -44.394
1524.3600, -44.355
1524.3800, -44.322
1524.4000, -44.294
1524.4200, -44.260
1524.4400, -44.213
1524.4600, -44.194
1524.4800, -44.153
1524.5000, -44.121
1524.5200, -44.086
1524.5400, -44.053
1524.5600, -44.029
1524.5800, -44.002
1524.6000, -43.962
1524.6200, -43.936
1524.6400, -43.898
1524.6600, -43.857
1524.6800, -43.829
1524.7000, -43.787
1524.7200, -43.764
1524.7400, -43.730
1524.7600, -43.698
1524.7800, -43.657
1524.8000, -43.618
1524.8200, -43.581
1524.8400, -43.564
1524.8600, -43.525
1524.8800, -43.484
1524.9000, -43.442
1524.9200, -43.411
1524.9400, -43.383
1524.9600, -43.345
1524.9800, -43.303
1525.0000, -43.273
1525.0200, -43.241
1525.0400, -43.188
1525.0600, -43.150
1525.0800, -43.127
1525.1000, -43.081
1525.1200, -43.053
1525.1400, -43.007
1525.1600, -42.979
1525.1800, -42.949
1525.2000, -42.907
1525.2200, -42.873
1525.2400, -42.848
1525.2600, -42.800
1525.2800, -42.767
1525.3000, -42.734
1525.3200, -42.704
1525.3400, -42.675
1525.3600, -42.640
1525.3800, -42.614
1525.4000, -42.570
1525.4200, -42.534
1525.4400, -42.506
1525.4600, -42.462
1525.4800, -42.446
1525.5000, -42.417
1525.5200, -42.384
1525.5400, -42.348
1525.5600, -42.324
1525.5800, -42.278
1525.6000, -42.257
1525.6200, -42.207
1525.6400, -42.161
1525.6600, -42.131
1525.6800, -42.118
1525.7000, -42.101
1525.7200, -42.038
1525.7400, -42.017
1525.7600, -41.991
1525.7800, -41.948
1525.8000, -41.907
1525.8200, -41.868
1525.8400, -41.844
1525.8600, -41.802
1525.8800, -41.764
1525.9000, -41.739
1525.9200, -41.708
1525.9400, -41.671
1525.9600, -41.635
1525.9800, -41.583
1526.0000, -41.563
1526.0200, -41.517
1526.0400, -41.474
1526.0600, -41.455
1526.0800, -41.417
1526.1000, -41.383
1526.1200, -41.360
1526.1400, -41.316
1526.1600, -41.275
1526.1800, -41.271
1526.2000, -41.224
1526.2200, -41.185
1526.2400, -41.154
1526.2600, -41.122
1526.2800, -41.094
1526.3000, -41.060
1526.3200, -41.018
1526.3400, -40.988
1526.3600, -40.947
1526.3800, -40.927
1526.4000, -40.901
1526.4200, -40.885
1526.4400, -40.848
1526.4600, -40.815
1526.4800, -40.778
1526.5000, -40.764
1526.5200, -40.724
1526.5400, -40.699
1526.5600, -40.663
1526.5800, -40.635
1526.6000, -40.606
1526.6200, -40.579
1526.6400, -40.544
1526.6600, -40.505
1526.6800, -40.490
1526.7000, -40.424
1526.7200, -40.406
1526.7400, -40.350
1526.7600, -40.334
1526.7800, -40.306
1526.8000, -40.271
1526.8200, -40.251
1526.8400, -40.218
1526.8600, -40.178
1526.8800, -40.141
1526.9000, -40.088
1526.9200, -40.070
1526.9400, -40.006
1526.9600, -39.969
1526.9800, -39.946
1527.0000, -39.925
1527.0200, -39.883
1527.0400, -39.862
1527.0600, -39.829
1527.0800, -39.790
1527.1000, -39.765
1527.1200, -39.734
1527.1400, -39.689
1527.1600, -39.650
1527.1800, -39.620
1527.2000, -39.584
1527.2200, -39.549
1527.2400, -39.529
1527.2600, -39.490
1527.2800, -39.451
1527.3000, -39.418
1527.3200, -39.403
1527.3400, -39.379
1527.3600, -39.363
1527.3800, -39.325
1527.4000, -39.288
1527.4200, -39.257
1527.4400, -39.241
1527.4600, -39.207
1527.4800, -39.151
1527.5000, -39.104
1527.5200, -39.102
1527.5400, -39.087
1527.5600, -39.033
1527.5800, -39.001
1527.6000, -38.984
1527.6200, -38.933
1527.6400, -38.918
1527.6600, -38.848
1527.6800, -38.838
1527.7000, -38.795
1527.7200, -38.754
1527.7400, -38.748
1527.7600, -38.707
1527.7800, -38.670
1527.8000, -38.639
1527.8200, -38.597
1527.8400, -38.556
1527.8600, -38.496
1527.8800, -38.479
1527.9000, -38.426
1527.9200, -38.407
1527.9400, -38.373
1527.9600, -38.363
1527.9800, -38.315
1528.0000, -38.273
1528.0200, -38.245
1528.0400, -38.219
1528.0600, -38.165
1528.0800, -38.119
1528.1000, -38.063
1528.1200, -38.068
1528.1400, -38.035
1528.1600, -38.016
1528.1800, -37.971
1528.2000, -37.928
1528.2200, -37.904
1528.2400, -37.871
1528.2600, -37.840
1528.2800, -37.838
1528.3000, -37.817
1528.3200, -37.772
1528.3400, -37.758
1528.3600, -37.716
1528.3800, -37.711
1528.4000, -37.633
1528.4200, -37.594
1528.4400, -37.559
1528.4600, -37.535
1528.4800, -37.550
1528.5000, -37.533
1528.5200, -37.486
1528.5400, -37.437
1528.5600, -37.443
1528.5800, -37.398
1528.6000, -37.357
1528.6200, -37.329
1528.6400, -37.295
1528.6600, -37.286
1528.6800, -37.243
1528.7000, -37.207
1528.7200, -37.180
1528.7400, -37.148
1528.7600, -37.097
1528.7800, -37.040
1528.8000, -37.034
1528.8200, -36.959
1528.8400, -36.935
1528.8600, -36.909
1528.8800, -36.898
1528.9000, -36.865
1528.9200, -36.818
1528.9400, -36.765
1528.9600, -36.770
1528.9800, -36.719
1529.0000, -36.668
1529.0200, -36.616
1529.0400, -36.605
1529.0600, -36.591
1529.0800, -36.566
1529.1000, -36.539
1529.1200, -36.484
1529.1400, -36.448
1529.1600, -36.426
1529.1800, -36.394
1529.2000, -36.384
1529.2200, -36.371
1529.2400, -36.321
1529.2600, -36.293
1529.2800, -36.265
1529.3000, -36.244
1529.3200, -36.192
1529.3400, -36.163
1529.3600, -36.134
1529.3800, -36.147
1529.4000, -36.096
1529.4200, -36.082
1529.4400, -36.013
1529.4600, -35.971
1529.4800, -35.954
1529.5000, -35.958
1529.5200, -35.881
1529.5400, -35.877
1529.5600, -35.840
1529.5800, -35.823
1529.6000, -35.803
1529.6200, -35.744
1529.6400, -35.703
1529.6600, -35.695
1529.6800, -35.651
1529.7000, -35.588
1529.7200, -35.584
1529.7400, -35.522
1529.7600, -35.504
1529.7800, -35.469
1529.8000, -35.449
1529.8200, -35.427
1529.8400, -35.378
1529.8600, -35.352
1529.8800, -35.347
1529.9000, -35.279
1529.9200, -35.246
1529.9400, -35.199
1529.9600, -35.151
1529.9800, -35.153
1530.0000, -35.115
1530.0200, -35.113
1530.0400, -35.043
1530.0600, -35.005
1530.0800, -34.997
1530.1000, -34.977
1530.1200, -34.931
1530.1400, -34.954
1530.1600, -34.910
1530.1800, -34.879
1530.2000, -34.870
1530.2200, -34.850
1530.2400, -34.839
1530.2600, -34.782
1530.2800, -34.737
1530.3000, -34.722
1530.3200, -34.733
1530.3400, -34.722
1530.3600, -34.679
1530.3800, -34.653
1530.4000, -34.574
1530.4200, -34.588
1530.4400, -34.506
1530.4600, -34.501
1530.4800, -34.480
1530.5000, -34.430
1530.5200, -34.445
1530.5400, -34.394
1530.5600, -34.344
1530.5800, -34.325
1530.6000, -34.286
1530.6200, -34.256
1530.6400, -34.183
1530.6600, -34.160
1530.6800, -34.126
1530.7000, -34.140
1530.7200, -34.095
1530.7400, -34.115
1530.7600, -34.084
1530.7800, -34.039
1530.8000, -34.046
1530.8200, -34.039
1530.8400, -34.002
1530.8600, -33.975
1530.8800, -33.951
1530.9000, -33.897
1530.9200, -33.891
1530.9400, -33.881
1530.9600, -33.839
1530.9800, -33.832
1531.0000, -33.834
1531.0200, -33.825
1531.0400, -33.809
1531.0600, -33.798
1531.0800, -33.778
1531.1000, -33.745
1531.1200, -33.739
1531.1400, -33.693
1531.1600, -33.714
1531.1800, -33.630
1531.2000, -33.588
1531.2200, -33.620
1531.2400, -33.640
1531.2600, -33.602
1531.2800, -33.495
1531.3000, -33.488
1531.3200, -33.480
1531.3400, -33.461
1531.3600, -33.430
1531.3800, -33.380
1531.4000, -33.391
1531.4200, -33.365
1531.4400, -33.363
1531.4600, -33.337
1531.4800, -33.336
1531.5000, -33.323
1531.5200, -33.304
1531.5400, -33.279
1531.5600, -33.241
1531.5800, -33.246
1531.6000, -33.217
1531.6200, -33.219
1531.6400, -33.218
1531.6600, -33.210
1531.6800, -33.180
1531.7000, -33.200
1531.7200, -33.171
1531.7400, -33.171
1531.7600, -33.151
1531.7800, -33.142
1531.8000, -33.140
1531.8200, -33.116
1531.8400, -33.107
1531.8600, -33.073
1531.8800, -33.061
1531.9000, -33.059
1531.9200, -33.066
1531.9400, -33.060
1531.9600, -33.108
1531.9800, -33.115
1532.0000, -33.128
1532.0200, -33.156
1532.0400, -33.178
1532.0600, -33.194
1532.0800, -33.180
1532.1000, -33.213
1532.1200, -33.194
1532.1400, -33.201
1532.1600, -33.248
1532.1800, -33.281
1532.2000, -33.182
1532.2200, -33.244
1532.2400, -33.269
1532.2600, -33.289
1532.2800, -33.253
1532.3000, -33.264
1532.3200, -33.276
1532.3400, -33.253
1532.3600, -33.268
1532.3800, -33.290
1532.4000, -33.302
1532.4200, -33.281
1532.4400, -33.274
1532.4600, -33.292
1532.4800, -33.271
1532.5000, -33.244
1532.5200, -33.235
1532.5400, -33.284
1532.5600, -33.296
1532.5800, -33.323
1532.6000, -33.348
1532.6200, -33.354
1532.6400, -33.356
1532.6600, -33.349
1532.6800, -33.352
1532.7000, -33.355
1532.7200, -33.342
1532.7400, -33.306
1532.7600, -33.350
1532.7800, -33.354
1532.8000, -33.360
1532.8200, -33.375
1532.8400, -33.393
1532.8600, -33.419
1532.8800, -33.460
1532.9000, -33.503
1532.9200, -33.541
1532.9400, -33.568
1532.9600, -33.599
1532.9800, -33.635
1533.0000, -33.643
1533.0200, -33.699
1533.0400, -33.679
1533.0600, -33.691
1533.0800, -33.750
1533.1000, -33.786
1533.1200, -33.762
1533.1400, -33.808
1533.1600, -33.850
1533.1800, -33.881
1533.2000, -33.884
1533.2200, -33.890
1533.2400, -33.921
1533.2600, -33.922
1533.2800, -33.977
1533.3000, -34.005
1533.3200, -34.023
1533.3400, -34.015
1533.3600, -34.009
1533.3800, -34.035
1533.4000, -34.108
1533.4200, -34.163
1533.4400, -34.180
1533.4600, -34.211
1533.4800, -34.246
1533.5000, -34.294
1533.5200, -34.345
1533.5400, -34.356
1533.5600, -34.392
1533.5800, -34.441
1533.6000, -34.515
1533.6200, -34.571
1533.6400, -34.595
1533.6600, -34.592
1533.6800, -34.658
1533.7000, -34.732
1533.7200, -34.762
1533.7400, -34.809
1533.7600, -34.869
1533.7800, -34.918
1533.8000, -34.933
1533.8200, -35.025
1533.8400, -35.072
1533.8600, -35.111
1533.8800, -35.183
1533.9000, -35.244
1533.9200, -35.272
1533.9400, -35.315
1533.9600, -35.336
1533.9800, -35.375
1534.0000, -35.435
1534.0200, -35.477
1534.0400, -35.498
1534.0600, -35.574
1534.0800, -35.602
1534.1000, -35.628
1534.1200, -35.686
1534.1400, -35.730
1534.1600, -35.758
1534.1800, -35.811
1534.2000, -35.845
1534.2200, -35.889
1534.2400, -35.921
1534.2600, -35.927
1534.2800, -36.019
1534.3000, -36.054
1534.3200, -36.075
1534.3400, -36.109
1534.3600, -36.173
1534.3800, -36.206
1534.4000, -36.260
1534.4200, -36.291
1534.4400, -36.336
1534.4600, -36.368
1534.4800, -36.408
1534.5000, -36.480
1534.5200, -36.519
1534.5400, -36.564
1534.5600, -36.611
1534.5800, -36.605
1534.6000, -36.674
1534.6200, -36.728
1534.6400, -36.767
1534.6600, -36.800
1534.6800, -36.842
1534.7000, -36.883
1534.7200, -36.928
1534.7400, -37.003
1534.7600, -37.065
1534.7800, -37.100
1534.8000, -37.140
1534.8200, -37.183
1534.8400, -37.252
1534.8600, -37.304
1534.8800, -37.365
1534.9000, -37.398
1534.9200, -37.417
1534.9400, -37.466
1534.9600, -37.521
1534.9800, -37.532
1535.0000, -37.594
1535.0200, -37.627
1535.0400, -37.681
1535.0600, -37.728
1535.0800, -37.766
1535.1000, -37.806
1535.1200, -37.849
1535.1400, -37.899
1535.1600, -37.923
1535.1800, -37.937
1535.2000, -38.005
1535.2200, -38.034
1535.2400, -38.077
1535.2600, -38.120
1535.2800, -38.180
1535.3000, -38.230
1535.3200, -38.260
1535.3400, -38.308
1535.3600, -38.349
1535.3800, -38.370
1535.4000, -38.401
1535.4200, -38.478
1535.4400, -38.500
1535.4600, -38.542
1535.4800, -38.614
1535.5000, -38.605
1535.5200, -38.671
1535.5400, -38.733
1535.5600, -38.768
1535.5800, -38.818
1535.6000, -38.859
1535.6200, -38.899
1535.6400, -38.945
1535.6600, -39.000
1535.6800, -39.049
1535.7000, -39.095
1535.7200, -39.139
1535.7400, -39.172
1535.7600, -39.224
1535.7800, -39.281
1535.8000, -39.328
1535.8200, -39.379
1535.8400, -39.392
1535.8600, -39.415
1535.8800, -39.473
1535.9000, -39.487
1535.9200, -39.539
1535.9400, -39.571
1535.9600, -39.614
1535.9800, -39.653
1536.0000, -39.681
1536.0200, -39.721
1536.0400, -39.762
1536.0600, -39.795
1536.0800, -39.816
1536.1000, -39.857
1536.1200, -39.895
1536.1400, -39.926
1536.1600, -39.956
1536.1800, -39.990
1536.2000, -40.028
1536.2200, -40.058
1536.2400, -40.089
1536.2600, -40.133
1536.2800, -40.157
1536.3000, -40.169
1536.3200, -40.203
1536.3400, -40.267
1536.3600, -40.275
1536.3800, -40.315
1536.4000, -40.357
1536.4200, -40.362
1536.4400, -40.419
1536.4600, -40.459
1536.4800, -40.484
1536.5000, -40.526
1536.5200, -40.550
1536.5400, -40.586
1536.5600, -40.602
1536.5800, -40.658
1536.6000, -40.685
1536.6200, -40.719
1536.6400, -40.746
1536.6600, -40.777
1536.6800, -40.808
1536.7000, -40.824
1536.7200, -40.828
1536.7400, -40.877
1536.7600, -40.929
1536.7800, -40.950
1536.8000, -40.977
1536.8200, -40.993
1536.8400, -41.034
1536.8600, -41.056
1536.8800, -41.089
1536.9000, -41.113
1536.9200, -41.140
1536.9400, -41.167
1536.9600, -41.197
1536.9800, -41.216
1537.0000, -41.223
1537.0200, -41.244
1537.0400, -41.283
1537.0600, -41.314
1537.0800, -41.328
1537.1000, -41.352
1537.1200, -41.377
1537.1400, -41.388
1537.1600, -41.418
1537.1800, -41.450
1537.2000, -41.462
1537.2200, -41.469
1537.2400, -41.494
1537.2600, -41.534
1537.2800, -41.547
1537.3000, -41.582
1537.3200, -41.601
1537.3400, -41.604
1537.3600, -41.644
1537.3800, -41.668
1537.4000, -41.680
1537.4200, -41.717
1537.4400, -41.731
1537.4600, -41.757
1537.4800, -41.779
1537.5000, -41.813
1537.5200, -41.826
1537.5400, -41.859
1537.5600, -41.873
1537.5800, -41.898
1537.6000, -41.914
1537.6200, -41.938
1537.6400, -41.948
1537.6600, -41.991
1537.6800, -41.987
1537.7000, -42.003
1537.7200, -42.023
1537.7400, -42.035
1537.7600, -42.057
1537.7800, -42.078
1537.8000, -42.096
1537.8200, -42.102
1537.8400, -42.111
1537.8600, -42.135
1537.8800, -42.154
1537.9000, -42.171
1537.9200, -42.189
1537.9400, -42.205
1537.9600, -42.212
1537.9800, -42.209
1538.0000, -42.234
1538.0200, -42.247
1538.0400, -42.261
1538.0600, -42.263
1538.0800, -42.284
1538.1000, -42.300
1538.1200, -42.313
1538.1400, -42.324
1538.1600, -42.353
1538.1800, -42.355
1538.2000, -42.366
1538.2200, -42.383
1538.2400, -42.395
1538.2600, -42.401
1538.2800, -42.411
1538.3000, -42.419
1538.3200, -42.432
1538.3400, -42.449
1538.3600, -42.464
1538.3800, -42.486
1538.4000, -42.495
1538.4200, -42.507
1538.4400, -42.522
1538.4600, -42.545
1538.4800, -42.549
1538.5000, -42.564
1538.5200, -42.582
1538.5400, -42.606
1538.5600, -42.629
1538.5800, -42.620
1538.6000, -42.604
1538.6200, -42.630
1538.6400, -42.629
1538.6600, -42.637
1538.6800, -42.652
1538.7000, -42.665
1538.7200, -42.667
1538.7400, -42.666
1538.7600, -42.672
1538.7800, -42.682
1538.8000, -42.695
1538.8200, -42.701
1538.8400, -42.711
1538.8600, -42.714
1538.8800, -42.719
1538.9000, -42.717
1538.9200, -42.719
1538.9400, -42.723
1538.9600, -42.720
1538.9800, -42.722
1539.0000, -42.733
1539.0200, -42.743
1539.0400, -42.748
1539.0600, -42.759
1539.0800, -42.769
1539.1000, -42.761
1539.1200, -42.757
1539.1400, -42.775
1539.1600, -42.758
1539.1800, -42.781
1539.2000, -42.783
1539.2200, -42.783
1539.2400, -42.795
1539.2600, -42.801
1539.2800, -42.809
1539.3000, -42.819
1539.3200, -42.829
1539.3400, -42.832
1539.3600, -42.844
1539.3800, -42.851
1539.4000, -42.849
1539.4200, -42.849
1539.4400, -42.874
1539.4600, -42.871
1539.4800, -42.877
1539.5000, -42.880
1539.5200, -42.870
1539.5400, -42.892
1539.5600, -42.873
1539.5800, -42.894
1539.6000, -42.897
1539.6200, -42.899
1539.6400, -42.897
1539.6600, -42.890
1539.6800, -42.890
1539.7000, -42.890
1539.7200, -42.899
1539.7400, -42.896
1539.7600, -42.901
1539.7800, -42.899
1539.8000, -42.891
1539.8200, -42.894
1539.8400, -42.895
1539.8600, -42.888
1539.8800, -42.894
1539.9000, -42.890
1539.9200, -42.894
1539.9400, -42.892
1539.9600, -42.898
1539.9800, -42.902
1540.0000, -42.905
1540.0200, -42.902
1540.0400, -42.887
1540.0600, -42.901
1540.0800, -42.903
1540.1000, -42.902
1540.1200, -42.899
1540.1400, -42.903
1540.1600, -42.904
1540.1800, -42.903
1540.2000, -42.919
1540.2200, -42.923
1540.2400, -42.918
1540.2600, -42.922
1540.2800, -42.919
1540.3000, -42.912
1540.3200, -42.914
1540.3400, -42.912
1540.3600, -42.910
1540.3800, -42.906
1540.4000, -42.910
1540.4200, -42.913
1540.4400, -42.912
1540.4600, -42.905
1540.4800, -42.901
1540.5000, -42.904
1540.5200, -42.903
1540.5400, -42.901
1540.5600, -42.901
1540.5800, -42.902
1540.6000, -42.896
1540.6200, -42.886
1540.6400, -42.894
1540.6600, -42.887
1540.6800, -42.888
1540.7000, -42.874
1540.7200, -42.864
1540.7400, -42.863
1540.7600, -42.862
1540.7800, -42.856
1540.8000, -42.850
1540.8200, -42.840
1540.8400, -42.843
1540.8600, -42.850
1540.8800, -42.838
1540.9000, -42.848
1540.9200, -42.849
1540.9400, -42.845
1540.9600, -42.846
1540.9800, -42.835
1541.0000, -42.835
1541.0200, -42.822
1541.0400, -42.827
1541.0600, -42.823
1541.0800, -42.820
1541.1000, -42.817
1541.1200, -42.811
1541.1400, -42.820
1541.1600, -42.827
1541.1800, -42.824
1541.2000, -42.822
1541.2200, -42.819
1541.2400, -42.819
1541.2600, -42.829
1541.2800, -42.827
1541.3000, -42.828
1541.3200, -42.822
1541.3400, -42.805
1541.3600, -42.808
1541.3800, -42.796
1541.4000, -42.793
1541.4200, -42.791
1541.4400, -42.788
1541.4600, -42.782
1541.4800, -42.781
1541.5000, -42.768
1541.5200, -42.765
1541.5400, -42.768
1541.5600, -42.766
1541.5800, -42.761
1541.6000, -42.749
1541.6200, -42.743
1541.6400, -42.732
1541.6600, -42.728
1541.6800, -42.720
1541.7000, -42.720
1541.7200, -42.707
1541.7400, -42.705
1541.7600, -42.708
1541.7800, -42.704
1541.8000, -42.702
1541.8200, -42.702
1541.8400, -42.696
1541.8600, -42.695
1541.8800, -42.691
1541.9000, -42.684
1541.9200, -42.680
1541.9400, -42.670
1541.9600, -42.671
1541.9800, -42.665
1542.0000, -42.665
1542.0200, -42.673
1542.0400, -42.672
1542.0600, -42.660
1542.0800, -42.662
1542.1000, -42.664
1542.1200, -42.658
1542.1400, -42.658
1542.1600, -42.646
1542.1800, -42.640
1542.2000, -42.636
1542.2200, -42.652
1542.2400, -42.645
1542.2600, -42.623
1542.2800, -42.633
1542.3000, -42.625
1542.3200, -42.630
1542.3400, -42.619
1542.3600, -42.614
1542.3800, -42.606
1542.4000, -42.597
1542.4200, -42.592
1542.4400, -42.599
1542.4600, -42.589
1542.4800, -42.572
1542.5000, -42.576
1542.5200, -42.561
1542.5400, -42.559
1542.5600, -42.548
1542.5800, -42.543
1542.6000, -42.541
1542.6200, -42.533
1542.6400, -42.525
1542.6600, -42.531
1542.6800, -42.520
1542.7000, -42.521
1542.7200, -42.527
1542.7400, -42.510
1542.7600, -42.508
1542.7800, -42.513
1542.8000, -42.499
1542.8200, -42.499
1542.8400, -42.488
1542.8600, -42.485
1542.8800, -42.484
1542.9000, -42.480
1542.9200, -42.480
1542.9400, -42.483
1542.9600, -42.482
1542.9800, -42.470
1543.0000, -42.471
1543.0200, -42.468
1543.0400, -42.465
1543.0600, -42.458
1543.0800, -42.478
1543.1000, -42.487
1543.1200, -42.481
1543.1400, -42.455
1543.1600, -42.443
1543.1800, -42.446
1543.2000, -42.426
1543.2200, -42.438
1543.2400, -42.428
1543.2600, -42.429
1543.2800, -42.426
1543.3000, -42.417
1543.3200, -42.413
1543.3400, -42.411
1543.3600, -42.419
1543.3800, -42.410
1543.4000, -42.406
1543.4200, -42.393
1543.4400, -42.379
1543.4600, -42.375
1543.4800, -42.370
1543.5000, -42.366
1543.5200, -42.361
1543.5400, -42.354
1543.5600, -42.358
1543.5800, -42.355
1543.6000, -42.351
1543.6200, -42.360
1543.6400, -42.350
1543.6600, -42.339
1543.6800, -42.353
1543.7000, -42.340
1543.7200, -42.337
1543.7400, -42.328
1543.7600, -42.316
1543.7800, -42.318
1543.8000, -42.313
1543.8200, -42.317
1543.8400, -42.317
1543.8600, -42.330
1543.8800, -42.322
1543.9000, -42.325
1543.9200, -42.320
1543.9400, -42.321
1543.9600, -42.320
1543.9800, -42.335
1544.0000, -42.331
1544.0200, -42.320
1544.0400, -42.329
1544.0600, -42.313
1544.0800, -42.309
1544.1000, -42.304
1544.1200, -42.302
1544.1400, -42.294
1544.1600, -42.297
1544.1800, -42.293
1544.2000, -42.301
1544.2200, -42.292
1544.2400, -42.289
1544.2600, -42.294
1544.2800, -42.294
1544.3000, -42.274
1544.3200, -42.279
1544.3400, -42.263
1544.3600, -42.260
1544.3800, -42.258
1544.4000, -42.255
1544.4200, -42.266
1544.4400, -42.254
1544.4600, -42.250
1544.4800, -42.255
1544.5000, -42.242
1544.5200, -42.228
1544.5400, -42.238
1544.5600, -42.232
1544.5800, -42.231
1544.6000, -42.215
1544.6200, -42.226
1544.6400, -42.232
1544.6600, -42.229
1544.6800, -42.233
1544.7000, -42.225
1544.7200, -42.224
1544.7400, -42.223
1544.7600, -42.231
1544.7800, -42.240
1544.8000, -42.242
1544.8200, -42.237
1544.8400, -42.226
1544.8600, -42.243
1544.8800, -42.227
1544.9000, -42.220
1544.9200, -42.221
1544.9400, -42.223
1544.9600, -42.233
1544.9800, -42.242
1545.0000, -42.222
1545.0200, -42.216
1545.0400, -42.223
1545.0600, -42.213
1545.0800, -42.222
1545.1000, -42.220
1545.1200, -42.227
1545.1400, -42.222
1545.1600, -42.217
1545.1800, -42.211
1545.2000, -42.208
1545.2200, -42.212
1545.2400, -42.197
1545.2600, -42.187
1545.2800, -42.184
1545.3000, -42.193
1545.3200, -42.200
1545.3400, -42.199
1545.3600, -42.198
1545.3800, -42.196
1545.4000, -42.182
1545.4200, -42.192
1545.4400, -42.204
1545.4600, -42.203
1545.4800, -42.197
1545.5000, -42.190
1545.5200, -42.173
1545.5400, -42.177
1545.5600, -42.182
1545.5800, -42.182
1545.6000, -42.171
1545.6200, -42.171
1545.6400, -42.193
1545.6600, -42.193
1545.6800, -42.196
1545.7000, -42.201
1545.7200, -42.191
1545.7400, -42.191
1545.7600, -42.194
1545.7800, -42.197
1545.8000, -42.191
1545.8200, -42.180
1545.8400, -42.186
1545.8600, -42.197
1545.8800, -42.189
1545.9000, -42.204
1545.9200, -42.187
1545.9400, -42.183
1545.9600, -42.176
1545.9800, -42.185
1546.0000, -42.197
1546.0200, -42.189
1546.0400, -42.187
1546.0600, -42.182
1546.0800, -42.185
1546.1000, -42.168
1546.1200, -42.181
1546.1400, -42.174
1546.1600, -42.156
1546.1800, -42.155
1546.2000, -42.161
1546.2200, -42.173
1546.2400, -42.168
1546.2600, -42.169
1546.2800, -42.165
1546.3000, -42.161
1546.3200, -42.145
1546.3400, -42.177
1546.3600, -42.168
1546.3800, -42.159
1546.4000, -42.169
1546.4200, -42.156
1546.4400, -42.171
1546.4600, -42.168
1546.4800, -42.173
1546.5000, -42.162
1546.5200, -42.153
1546.5400, -42.164
1546.5600, -42.170
1546.5800, -42.183
1546.6000, -42.186
1546.6200, -42.179
1546.6400, -42.174
1546.6600, -42.188
1546.6800, -42.188
1546.7000, -42.181
1546.7200, -42.186
1546.7400, -42.202
1546.7600, -42.197
1546.7800, -42.188
1546.8000, -42.181
1546.8200, -42.174
1546.8400, -42.173
1546.8600, -42.171
1546.8800, -42.179
1546.9000, -42.181
1546.9200, -42.191
1546.9400, -42.181
1546.9600, -42.182
1546.9800, -42.182
1547.0000, -42.170
1547.0200, -42.180
1547.0400, -42.180
1547.0600, -42.164
1547.0800, -42.150
1547.1000, -42.158
1547.1200, -42.161
1547.1400, -42.175
1547.1600, -42.164
1547.1800, -42.167
1547.2000, -42.159
1547.2200, -42.151
1547.2400, -42.147
1547.2600, -42.160
1547.2800, -42.162
1547.3000, -42.147
1547.3200, -42.146
1547.3400, -42.169
1547.3600, -42.167
1547.3800, -42.176
1547.4000, -42.168
1547.4200, -42.155
1547.4400, -42.167
1547.4600, -42.157
1547.4800, -42.177
1547.5000, -42.187
1547.5200, -42.182
1547.5400, -42.183
1547.5600, -42.192
1547.5800, -42.194
1547.6000, -42.184
1547.6200, -42.187
1547.6400, -42.192
1547.6600, -42.208
1547.6800, -42.215
1547.7000, -42.199
1547.7200, -42.204
1547.7400, -42.206
1547.7600, -42.199
1547.7800, -42.205
1547.8000, -42.199
1547.8200, -42.210
1547.8400, -42.200
1547.8600, -42.200
1547.8800, -42.202
1547.9000, -42.191
1547.9200, -42.189
1547.9400, -42.200
1547.9600, -42.194
1547.9800, -42.186
1548.0000, -42.197
1548.0200, -42.190
1548.0400, -42.198
1548.0600, -42.193
1548.0800, -42.195
1548.1000, -42.198
1548.1200, -42.178
1548.1400, -42.188
1548.1600, -42.200
1548.1800, -42.203
1548.2000, -42.190
1548.2200, -42.186
1548.2400, -42.205
1548.2600, -42.200
1548.2800, -42.206
1548.3000, -42.204
1548.3200, -42.201
1548.3400, -42.206
1548.3600, -42.218
1548.3800, -42.218
1548.4000, -42.222
1548.4200, -42.224
1548.4400, -42.224
1548.4600, -42.222
1548.4800, -42.232
1548.5000, -42.229
1548.5200, -42.228
1548.5400, -42.227
1548.5600, -42.239
1548.5800, -42.236
1548.6000, -42.226
1548.6200, -42.233
1548.6400, -42.235
1548.6600, -42.228
1548.6800, -42.236
1548.7000, -42.226
1548.7200, -42.240
1548.7400, -42.235
1548.7600, -42.225
1548.7800, -42.240
1548.8000, -42.237
1548.8200, -42.234
1548.8400, -42.243
1548.8600, -42.236
1548.8800, -42.222
1548.9000, -42.236
1548.9200, -42.230
1548.9400, -42.238
1548.9600, -42.231
1548.9800, -42.232
1549.0000, -42.236
1549.0200, -42.236
1549.0400, -42.242
1549.0600, -42.227
1549.0800, -42.227
1549.1000, -42.226
1549.1200, -42.217
1549.1400, -42.238
1549.1600, -42.235
1549.1800, -42.243
1549.2000, -42.240
1549.2200, -42.237
1549.2400, -42.240
1549.2600, -42.235
1549.2800, -42.235
1549.3000, -42.254
1549.3200, -42.255
1549.3400, -42.258
1549.3600, -42.259
1549.3800, -42.266
1549.4000, -42.262
1549.4200, -42.270
1549.4400, -42.272
1549.4600, -42.282
1549.4800, -42.285
1549.5000, -42.272
1549.5200, -42.286
1549.5400, -42.291
1549.5600, -42.283
1549.5800, -42.292
1549.6000, -42.279
1549.6200, -42.295
1549.6400, -42.290
1549.6600, -42.287
1549.6800, -42.296
1549.7000, -42.289
1549.7200, -42.294
1549.7400, -42.285
1549.7600, -42.286
1549.7800, -42.277
1549.8000, -42.292
1549.8200, -42.287
1549.8400, -42.299
1549.8600, -42.295
1549.8800, -42.299
1549.9000, -42.299
1549.9200, -42.302
1549.9400, -42.310
1549.9600, -42.312
1549.9800, -42.308
1550.0000, -42.296
1550.0200, -42.298
1550.0400, -42.306
1550.0600, -42.303
1550.0800, -42.304
1550.1000, -42.304
1550.1200, -42.304
1550.1400, -42.306
1550.1600, -42.318
1550.1800, -42.321
1550.2000, -42.326
1550.2200, -42.327
1550.2400, -42.330
1550.2600, -42.330
1550.2800, -42.340
1550.3000, -42.350
1550.3200, -42.355
1550.3400, -42.348
1550.3600, -42.353
1550.3800, -42.347
1550.4000, -42.350
1550.4200, -42.354
1550.4400, -42.350
1550.4600, -42.349
1550.4800, -42.354
1550.5000, -42.345
1550.5200, -42.351
1550.5400, -42.350
1550.5600, -42.348
1550.5800, -42.357
1550.6000, -42.355
1550.6200, -42.359
1550.6400, -42.347
1550.6600, -42.357
1550.6800, -42.349
1550.7000, -42.361
1550.7200, -42.360
1550.7400, -42.367
1550.7600, -42.365
1550.7800, -42.363
1550.8000, -42.371
1550.8200, -42.378
1550.8400, -42.377
1550.8600, -42.391
1550.8800, -42.389
1550.9000, -42.383
1550.9200, -42.386
1550.9400, -42.384
1550.9600, -42.386
1550.9800, -42.390
1551.0000, -42.395
1551.0200, -42.402
1551.0400, -42.410
1551.0600, -42.418
1551.0800, -42.419
1551.1000, -42.422
1551.1200, -42.430
1551.1400, -42.435
1551.1600, -42.426
1551.1800, -42.443
1551.2000, -42.450
1551.2200, -42.455
1551.2400, -42.449
1551.2600, -42.449
1551.2800, -42.459
1551.3000, -42.446
1551.3200, -42.457
1551.3400, -42.451
1551.3600, -42.454
1551.3800, -42.455
1551.4000, -42.444
1551.4200, -42.448
1551.4400, -42.444
1551.4600, -42.435
1551.4800, -42.452
1551.5000, -42.447
1551.5200, -42.452
1551.5400, -42.459
1551.5600, -42.459
1551.5800, -42.445
1551.6000, -42.454
1551.6200, -42.446
1551.6400, -42.451
1551.6600, -42.450
1551.6800, -42.462
1551.7000, -42.461
1551.7200, -42.461
1551.7400, -42.462
1551.7600, -42.461
1551.7800, -42.470
1551.8000, -42.480
1551.8200, -42.481
1551.8400, -42.471
1551.8600, -42.474
1551.8800, -42.482
1551.9000, -42.484
1551.9200, -42.486
1551.9400, -42.491
1551.9600, -42.499
1551.9800, -42.496
1552.0000, -42.507
1552.0200, -42.511
1552.0400, -42.511
1552.0600, -42.531
1552.0800, -42.534
1552.1000, -42.535
1552.1200, -42.538
1552.1400, -42.548
1552.1600, -42.550
1552.1800, -42.521
1552.2000, -42.531
1552.2200, -42.549
1552.2400, -42.535
1552.2600, -42.543
1552.2800, -42.542
1552.3000, -42.537
1552.3200, -42.533
1552.3400, -42.543
1552.3600, -42.548
1552.3800, -42.550
1552.4000, -42.560
1552.4200, -42.538
1552.4400, -42.546
1552.4600, -42.542
1552.4800, -42.541
1552.5000, -42.543
1552.5200, -42.542
1552.5400, -42.546
1552.5600, -42.553
1552.5800, -42.564
1552.6000, -42.558
1552.6200, -42.563
1552.6400, -42.571
1552.6600, -42.572
1552.6800, -42.591
1552.7000, -42.580
1552.7200, -42.582
1552.7400, -42.575
1552.7600, -42.574
1552.7800, -42.579
1552.8000, -42.580
1552.8200, -42.584
1552.8400, -42.601
1552.8600, -42.602
1552.8800, -42.599
1552.9000, -42.602
1552.9200, -42.607
1552.9400, -42.604
1552.9600, -42.613
1552.9800, -42.639
1553.0000, -42.644
1553.0200, -42.647
1553.0400, -42.627
1553.0600, -42.620
1553.0800, -42.613
1553.1000, -42.624
1553.1200, -42.628
1553.1400, -42.613
1553.1600, -42.622
1553.1800, -42.623
1553.2000, -42.626
1553.2200, -42.625
1553.2400, -42.633
1553.2600, -42.644
1553.2800, -42.633
1553.3000, -42.634
1553.3200, -42.620
1553.3400, -42.640
1553.3600, -42.623
1553.3800, -42.626
1553.4000, -42.627
1553.4200, -42.626
1553.4400, -42.631
1553.4600, -42.631
1553.4800, -42.638
1553.5000, -42.640
1553.5200, -42.650
1553.5400, -42.637
1553.5600, -42.635
1553.5800, -42.656
1553.6000, -42.648
1553.6200, -42.644
1553.6400, -42.648
1553.6600, -42.646
1553.6800, -42.645
1553.7000, -42.653
1553.7200, -42.653
1553.7400, -42.668
1553.7600, -42.666
1553.7800, -42.667
1553.8000, -42.666
1553.8200, -42.681
1553.8400, -42.676
1553.8600, -42.685
1553.8800, -42.699
1553.9000, -42.714
1553.9200, -42.702
1553.9400, -42.701
1553.9600, -42.689
1553.9800, -42.695
1554.0000, -42.707
1554.0200, -42.705
1554.0400, -42.697
1554.0600, -42.709
1554.0800, -42.713
1554.1000, -42.710
1554.1200, -42.721
1554.1400, -42.720
1554.1600, -42.735
1554.1800, -42.723
1554.2000, -42.716
1554.2200, -42.716
1554.2400, -42.718
1554.2600, -42.703
1554.2800, -42.716
1554.3000, -42.713
1554.3200, -42.713
1554.3400, -42.719
1554.3600, -42.723
1554.3800, -42.721
1554.4000, -42.736
1554.4200, -42.722
1554.4400, -42.718
1554.4600, -42.718
1554.4800, -42.728
1554.5000, -42.730
1554.5200, -42.725
1554.5400, -42.726
1554.5600, -42.729
1554.5800, -42.724
1554.6000, -42.734
1554.6200, -42.744
1554.6400, -42.752
1554.6600, -42.750
1554.6800, -42.751
1554.7000, -42.756
1554.7200, -42.756
1554.7400, -42.760
1554.7600, -42.767
1554.7800, -42.790
1554.8000, -42.793
1554.8200, -42.772
1554.8400, -42.769
1554.8600, -42.761
1554.8800, -42.778
1554.9000, -42.775
1554.9200, -42.766
1554.9400, -42.764
1554.9600, -42.764
1554.9800, -42.765
1555.0000, -42.770
1555.0200, -42.768
1555.0400, -42.773
1555.0600, -42.777
1555.0800, -42.779
1555.1000, -42.755
1555.1200, -42.770
1555.1400, -42.764
1555.1600, -42.770
1555.1800, -42.768
1555.2000, -42.771
1555.2200, -42.775
1555.2400, -42.775
1555.2600, -42.790
1555.2800, -42.790
1555.3000, -42.802
1555.3200, -42.788
1555.3400, -42.784
1555.3600, -42.795
1555.3800, -42.793
1555.4000, -42.790
1555.4200, -42.793
1555.4400, -42.792
1555.4600, -42.792
1555.4800, -42.800
1555.5000, -42.799
1555.5200, -42.807
1555.5400, -42.818
1555.5600, -42.821
1555.5800, -42.822
1555.6000, -42.833
1555.6200, -42.804
1555.6400, -42.833
1555.6600, -42.836
1555.6800, -42.848
1555.7000, -42.851
1555.7200, -42.855
1555.7400, -42.837
1555.7600, -42.848
1555.7800, -42.857
1555.8000, -42.853
1555.8200, -42.848
1555.8400, -42.852
1555.8600, -42.860
1555.8800, -42.857
1555.9000, -42.868
1555.9200, -42.865
1555.9400, -42.873
1555.9600, -42.871
1555.9800, -42.867
1556.0000, -42.868
1556.0200, -42.870
1556.0400, -42.867
1556.0600, -42.869
1556.0800, -42.875
1556.1000, -42.876
1556.1200, -42.886
1556.1400, -42.884
1556.1600, -42.880
1556.1800, -42.886
1556.2000, -42.889
1556.2200, -42.887
1556.2400, -42.893
1556.2600, -42.885
1556.2800, -42.892
1556.3000, -42.892
1556.3200, -42.902
1556.3400, -42.898
1556.3600, -42.898
1556.3800, -42.896
1556.4000, -42.899
1556.4200, -42.908
1556.4400, -42.917
1556.4600, -42.915
1556.4800, -42.926
1556.5000, -42.923
1556.5200, -42.929
1556.5400, -42.927
1556.5600, -42.935
1556.5800, -42.938
1556.6000, -42.942
1556.6200, -42.939
1556.6400, -42.943
1556.6600, -42.938
1556.6800, -42.955
1556.7000, -42.963
1556.7200, -42.947
1556.7400, -42.952
1556.7600, -42.958
1556.7800, -42.966
1556.8000, -42.970
1556.8200, -42.975
1556.8400, -42.972
1556.8600, -42.970
1556.8800, -42.962
1556.9000, -42.963
1556.9200, -42.973
1556.9400, -42.962
1556.9600, -42.964
1556.9800, -42.971
1557.0000, -42.985
1557.0200, -42.979
1557.0400, -42.980
1557.0600, -42.986
1557.0800, -42.988
1557.1000, -42.985
1557.1200, -42.990
1557.1400, -42.997
1557.1600, -43.000
1557.1800, -43.007
1557.2000, -43.009
1557.2200, -43.006
1557.2400, -43.008
1557.2600, -43.015
1557.2800, -43.023
1557.3000, -43.025
1557.3200, -43.039
1557.3400, -43.045
1557.3600, -43.050
1557.3800, -43.054
1557.4000, -43.068
1557.4200, -43.079
1557.4400, -43.076
1557.4600, -43.082
1557.4800, -43.091
1557.5000, -43.095
1557.5200, -43.090
1557.5400, -43.089
1557.5600, -43.095
1557.5800, -43.103
1557.6000, -43.098
1557.6200, -43.101
1557.6400, -43.107
1557.6600, -43.108
1557.6800, -43.120
1557.7000, -43.128
1557.7200, -43.131
1557.7400, -43.134
1557.7600, -43.133
1557.7800, -43.125
1557.8000, -43.134
1557.8200, -43.126
1557.8400, -43.134
1557.8600, -43.134
1557.8800, -43.134
1557.9000, -43.138
1557.9200, -43.148
1557.9400, -43.156
1557.9600, -43.162
1557.9800, -43.163
1558.0000, -43.169
1558.0200, -43.176
1558.0400, -43.182
1558.0600, -43.192
1558.0800, -43.190
1558.1000, -43.192
1558.1200, -43.200
1558.1400, -43.207
1558.1600, -43.210
1558.1800, -43.222
1558.2000, -43.226
1558.2200, -43.228
1558.2400, -43.236
1558.2600, -43.240
1558.2800, -43.249
1558.3000, -43.250
1558.3200, -43.261
1558.3400, -43.266
1558.3600, -43.287
1558.3800, -43.274
1558.4000, -43.283
1558.4200, -43.282
1558.4400, -43.277
1558.4600, -43.296
1558.4800, -43.296
1558.5000, -43.304
1558.5200, -43.305
1558.5400, -43.302
1558.5600, -43.308
1558.5800, -43.317
1558.6000, -43.325
1558.6200, -43.328
1558.6400, -43.332
1558.6600, -43.322
1558.6800, -43.335
1558.7000, -43.338
1558.7200, -43.349
1558.7400, -43.345
1558.7600, -43.346
1558.7800, -43.359
1558.8000, -43.367
1558.8200, -43.377
1558.8400, -43.382
1558.8600, -43.384
1558.8800, -43.381
1558.9000, -43.384
1558.9200, -43.401
1558.9400, -43.411
1558.9600, -43.416
1558.9800, -43.415
1559.0000, -43.431
1559.0200, -43.440
1559.0400, -43.450
1559.0600, -43.463
1559.0800, -43.471
1559.1000, -43.471
1559.1200, -43.487
1559.1400, -43.496
1559.1600, -43.499
1559.1800, -43.508
1559.2000, -43.507
1559.2200, -43.514
1559.2400, -43.526
1559.2600, -43.532
1559.2800, -43.549
1559.3000, -43.554
1559.3200, -43.548
1559.3400, -43.574
1559.3600, -43.579
1559.3800, -43.588
1559.4000, -43.587
1559.4200, -43.588
1559.4400, -43.596
1559.4600, -43.609
1559.4800, -43.616
1559.5000, -43.626
1559.5200, -43.633
1559.5400, -43.639
1559.5600, -43.646
1559.5800, -43.649
1559.6000, -43.656
1559.6200, -43.659
1559.6400, -43.660
1559.6600, -43.671
1559.6800, -43.682
1559.7000, -43.695
1559.7200, -43.702
1559.7400, -43.705
1559.7600, -43.703
1559.7800, -43.711
1559.8000, -43.720
1559.8200, -43.744
1559.8400, -43.747
1559.8600, -43.745
1559.8800, -43.758
1559.9000, -43.768
1559.9200, -43.782
1559.9400, -43.795
1559.9600, -43.806
1559.9800, -43.808
1560.0000, -43.828
1560.0200, -43.841
1560.0400, -43.839
1560.0600, -43.856
1560.0800, -43.856
1560.1000, -43.867
1560.1200, -43.885
1560.1400, -43.889
1560.1600, -43.895
1560.1800, -43.912
1560.2000, -43.902
1560.2200, -43.929
1560.2400, -43.937
1560.2600, -43.948
1560.2800, -43.954
1560.3000, -43.957
1560.3200, -43.966
1560.3400, -43.979
1560.3600, -43.988
1560.3800, -43.997
1560.4000, -44.002
1560.4200, -44.009
1560.4400, -44.018
1560.4600, -44.020
1560.4800, -44.030
1560.5000, -44.040
1560.5200, -44.042
1560.5400, -44.058
1560.5600, -44.071
1560.5800, -44.084
1560.6000, -44.091
1560.6200, -44.106
1560.6400, -44.110
1560.6600, -44.118
1560.6800, -44.135
1560.7000, -44.149
1560.7200, -44.155
1560.7400, -44.156
1560.7600, -44.173
1560.7800, -44.186
1560.8000, -44.193
1560.8200, -44.203
1560.8400, -44.224
1560.8600, -44.229
1560.8800, -44.248
1560.9000, -44.263
1560.9200, -44.270
1560.9400, -44.283
1560.9600, -44.292
1560.9800, -44.299
1561.0000, -44.304
1561.0200, -44.325
1561.0400, -44.332
1561.0600, -44.354
1561.0800, -44.353
1561.1000, -44.375
1561.1200, -44.388
1561.1400, -44.398
1561.1600, -44.407
1561.1800, -44.415
1561.2000, -44.418
1561.2200, -44.439
1561.2400, -44.454
1561.2600, -44.465
1561.2800, -44.478
1561.3000, -44.488
1561.3200, -44.487
1561.3400, -44.508
1561.3600, -44.522
1561.3800, -44.533
1561.4000, -44.537
1561.4200, -44.552
1561.4400, -44.569
1561.4600, -44.583
1561.4800, -44.593
1561.5000, -44.609
1561.5200, -44.618
1561.5400, -44.634
1561.5600, -44.648
1561.5800, -44.662
1561.6000, -44.670
1561.6200, -44.676
1561.6400, -44.696
1561.6600, -44.711
1561.6800, -44.723
1561.7000, -44.742
1561.7200, -44.763
1561.7400, -44.768
1561.7600, -44.785
1561.7800, -44.802
1561.8000, -44.811
1561.8200, -44.827
1561.8400, -44.846
1561.8600, -44.860
1561.8800, -44.867
1561.9000, -44.870
1561.9200, -44.887
1561.9400, -44.907
1561.9600, -44.906
1561.9800, -44.925
1562.0000, -44.940
1562.0200, -44.954
1562.0400, -44.967
1562.0600, -44.980
1562.0800, -44.987
1562.1000, -45.008
1562.1200, -45.023
1562.1400, -45.041
1562.1600, -45.052
1562.1800, -45.062
1562.2000, -45.069
1562.2200, -45.088
1562.2400, -45.100
1562.2600, -45.115
1562.2800, -45.124
1562.3000, -45.141
1562.3200, -45.161
1562.3400, -45.178
1562.3600, -45.189
1562.3800, -45.202
1562.4000, -45.210
1562.4200, -45.225
1562.4400, -45.233
1562.4600, -45.258
1562.4800, -45.274
1562.5000, -45.281
1562.5200, -45.298
1562.5400, -45.315
1562.5600, -45.326
1562.5800, -45.342
1562.6000, -45.367
1562.6200, -45.380
1562.6400, -45.398
1562.6600, -45.414
1562.6800, -45.425
1562.7000, -45.441
1562.7200, -45.459
1562.7400, -45.479
1562.7600, -45.492
1562.7800, -45.505
1562.8000, -45.525
1562.8200, -45.535
1562.8400, -45.536
1562.8600, -45.564
1562.8800, -45.581
1562.9000, -45.596
1562.9200, -45.610
1562.9400, -45.622
1562.9600, -45.637
1562.9800, -45.656
1563.0000, -45.671
1563.0200, -45.686
1563.0400, -45.703
1563.0600, -45.714
1563.0800, -45.727
1563.1000, -45.745
1563.1200, -45.761
1563.1400, -45.774
1563.1600, -45.782
1563.1800, -45.804
1563.2000, -45.820
1563.2200, -45.841
1563.2400, -45.851
1563.2600, -45.872
1563.2800, -45.878
1563.3000, -45.895
1563.3200, -45.914
1563.3400, -45.932
1563.3600, -45.949
1563.3800, -45.963
1563.4000, -45.977
1563.4200, -46.002
1563.4400, -46.021
1563.4600, -46.041
1563.4800, -46.058
1563.5000, -46.073
1563.5200, -46.090
1563.5400, -46.110
1563.5600, -46.117
1563.5800, -46.140
1563.6000, -46.153
1563.6200, -46.173
1563.6400, -46.198
1563.6600, -46.213
1563.6800, -46.231
1563.7000, -46.246
1563.7200, -46.250
1563.7400, -46.283
1563.7600, -46.296
1563.7800, -46.316
1563.8000, -46.326
1563.8200, -46.340
1563.8400, -46.361
1563.8600, -46.387
1563.8800, -46.396
1563.9000, -46.419
1563.9200, -46.433
1563.9400, -46.446
1563.9600, -46.463
1563.9800, -46.479
1564.0000, -46.495
1564.0200, -46.504
1564.0400, -46.518
1564.0600, -46.543
1564.0800, -46.552
1564.1000, -46.575
1564.1200, -46.588
1564.1400, -46.606
1564.1600, -46.616
1564.1800, -46.632
1564.2000, -46.655
1564.2200, -46.676
1564.2400, -46.687
1564.2600, -46.707
1564.2800, -46.722
1564.3000, -46.744
1564.3200, -46.759
1564.3400, -46.777
1564.3600, -46.803
1564.3800, -46.822
1564.4000, -46.839
1564.4200, -46.859
1564.4400, -46.865
1564.4600, -46.895
1564.4800, -46.909
1564.5000, -46.935
1564.5200, -46.960
1564.5400, -46.973
1564.5600, -46.987
1564.5800, -47.001
1564.6000, -47.022
1564.6200, -47.045
1564.6400, -47.061
1564.6600, -47.083
1564.6800, -47.094
1564.7000, -47.107
1564.7200, -47.128
1564.7400, -47.149
1564.7600, -47.164
1564.7800, -47.179
1564.8000, -47.193
1564.8200, -47.202
1564.8400, -47.229
1564.8600, -47.245
1564.8800, -47.262
1564.9000, -47.276
1564.9200, -47.297
1564.9400, -47.323
1564.9600, -47.337
1564.9800, -47.362
1565.0000, -47.377
1565.0200, -47.391
1565.0400, -47.397
1565.0600, -47.425
1565.0800, -47.447
1565.1000, -47.465
1565.1200, -47.484
1565.1400, -47.501
1565.1600, -47.517
1565.1800, -47.540
1565.2000, -47.551
1565.2200, -47.580
1565.2400, -47.603
1565.2600, -47.618
1565.2800, -47.643
1565.3000, -47.661
1565.3200, -47.671
1565.3400, -47.700
1565.3600, -47.729
1565.3800, -47.751
1565.4000, -47.767
1565.4200, -47.775
1565.4400, -47.799
1565.4600, -47.811
1565.4800, -47.833
1565.5000, -47.853
1565.5200, -47.875
1565.5400, -47.892
1565.5600, -47.901
1565.5800, -47.923
1565.6000, -47.948
1565.6200, -47.962
1565.6400, -47.975
1565.6600, -47.991
1565.6800, -48.013
1565.7000, -48.029
1565.7200, -48.043
1565.7400, -48.062
1565.7600, -48.080
1565.7800, -48.090
1565.8000, -48.114
1565.8200, -48.136
1565.8400, -48.152
1565.8600, -48.169
1565.8800, -48.194
1565.9000, -48.206
1565.9200, -48.223
1565.9400, -48.237
1565.9600, -48.251
1565.9800, -48.280
1566.0000, -48.303
1566.0200, -48.316
1566.0400, -48.338
1566.0600, -48.356
1566.0800, -48.373
1566.1000, -48.394
1566.1200, -48.422
1566.1400, -48.438
1566.1600, -48.462
1566.1800, -48.479
1566.2000, -48.494
1566.2200, -48.520
1566.2400, -48.526
1566.2600, -48.559
1566.2800, -48.586
1566.3000, -48.597
1566.3200, -48.616
1566.3400, -48.620
1566.3600, -48.647
1566.3800, -48.665
1566.4000, -48.691
1566.4200, -48.707
1566.4400, -48.717
1566.4600, -48.741
1566.4800, -48.763
1566.5000, -48.779
1566.5200, -48.798
1566.5400, -48.815
1566.5600, -48.839
1566.5800, -48.846
1566.6000, -48.871
1566.6200, -48.889
1566.6400, -48.898
1566.6600, -48.920
1566.6800, -48.942
1566.7000, -48.958
1566.7200, -48.977
1566.7400, -48.986
1566.7600, -49.008
1566.7800, -49.033
1566.8000, -49.054
1566.8200, -49.076
1566.8400, -49.090
1566.8600, -49.106
1566.8800, -49.132
1566.9000, -49.140
1566.9200, -49.163
1566.9400, -49.180
1566.9600, -49.195
1566.9800, -49.223
1567.0000, -49.246
1567.0200, -49.264
1567.0400, -49.288
1567.0600, -49.306
1567.0800, -49.325
1567.1000, -49.347
1567.1200, -49.355
1567.1400, -49.372
1567.1600, -49.408
1567.1800, -49.420
1567.2000, -49.440
1567.2200, -49.446
1567.2400, -49.476
1567.2600, -49.498
1567.2800, -49.522
1567.3000, -49.528
1567.3200, -49.548
1567.3400, -49.570
1567.3600, -49.594
1567.3800, -49.625
1567.4000, -49.636
1567.4200, -49.656
1567.4400, -49.669
1567.4600, -49.676
1567.4800, -49.698
1567.5000, -49.722
1567.5200, -49.730
1567.5400, -49.754
1567.5600, -49.778
1567.5800, -49.795
1567.6000, -49.811
1567.6200, -49.820
1567.6400, -49.851
1567.6600, -49.862
1567.6800, -49.886
1567.7000, -49.900
1567.7200, -49.927
1567.7400, -49.945
1567.7600, -49.964
1567.7800, -49.981
1567.8000, -50.005
1567.8200, -50.014
1567.8400, -50.039
1567.8600, -50.060
1567.8800, -50.081
1567.9000, -50.099
1567.9200, -50.125
1567.9400, -50.132
1567.9600, -50.158
1567.9800, -50.179
1568.0000, -50.210
1568.0200, -50.228
1568.0400, -50.233
1568.0600, -50.250
1568.0800, -50.261
1568.1000, -50.282
1568.1200, -50.305
1568.1400, -50.324
1568.1600, -50.348
1568.1800, -50.352
1568.2000, -50.376
1568.2200, -50.399
1568.2400, -50.416
1568.2600, -50.438
1568.2800, -50.443
1568.3000, -50.469
1568.3200, -50.479
1568.3400, -50.503
1568.3600, -50.526
1568.3800, -50.539
1568.4000, -50.558
1568.4200, -50.580
1568.4400, -50.600
1568.4600, -50.617
1568.4800, -50.636
1568.5000, -50.662
1568.5200, -50.673
1568.5400, -50.691
1568.5600, -50.706
1568.5800, -50.713
1568.6000, -50.745
1568.6200, -50.766
1568.6400, -50.784
1568.6600, -50.800
1568.6800, -50.820
1568.7000, -50.839
1568.7200, -50.860
1568.7400, -50.886
1568.7600, -50.897
1568.7800, -50.928
1568.8000, -50.940
1568.8200, -50.959
1568.8400, -50.981
1568.8600, -50.993
1568.8800, -51.013
1568.9000, -51.033
1568.9200, -51.054
1568.9400, -51.077
1568.9600, -51.089
1568.9800, -51.104
1569.0000, -51.124
1569.0200, -51.148
1569.0400, -51.162
1569.0600, -51.184
1569.0800, -51.200
1569.1000, -51.220
1569.1200, -51.243
1569.1400, -51.251
1569.1600, -51.276
1569.1800, -51.295
1569.2000, -51.307
1569.2200, -51.322
1569.2400, -51.342
1569.2600, -51.355
1569.2800, -51.379
1569.3000, -51.392
1569.3200, -51.412
1569.3400, -51.431
1569.3600, -51.454
1569.3800, -51.470
1569.4000, -51.489
1569.4200, -51.505
1569.4400, -51.520
1569.4600, -51.537
1569.4800, -51.561
1569.5000, -51.576
1569.5200, -51.590
1569.5400, -51.607
1569.5600, -51.628
1569.5800, -51.642
1569.6000, -51.669
1569.6200, -51.689
1569.6400, -51.709
1569.6600, -51.728
1569.6800, -51.749
1569.7000, -51.768
1569.7200, -51.779
1569.7400, -51.807
1569.7600, -51.816
1569.7800, -51.843
1569.8000, -51.864
1569.8200, -51.880
1569.8400, -51.885
1569.8600, -51.904
1569.8800, -51.921
1569.9000, -51.940
1569.9200, -51.959
1569.9400, -51.979
1569.9600, -51.993
1569.9800, -52.014
1570.0000, -52.031
1570.0200, -52.045
1570.0400, -52.063
1570.0600, -52.078
1570.0800, -52.092
1570.1000, -52.112
1570.1200, -52.128
1570.1400, -52.150
1570.1600, -52.166
1570.1800, -52.185
1570.2000, -52.204
1570.2200, -52.218
1570.2400, -52.242
1570.2600, -52.258
1570.2800, -52.277
1570.3000, -52.291
1570.3200, -52.294
1570.3400, -52.319
1570.3600, -52.344
1570.3800, -52.359
1570.4000, -52.377
1570.4200, -52.391
1570.4400, -52.412
1570.4600, -52.433
1570.4800, -52.453
1570.5000, -52.468
1570.5200, -52.488
1570.5400, -52.505
1570.5600, -52.529
1570.5800, -52.540
1570.6000, -52.558
1570.6200, -52.569
1570.6400, -52.593
1570.6600, -52.609
1570.6800, -52.642
1570.7000, -52.646
1570.7200, -52.665
1570.7400, -52.687
1570.7600, -52.700
1570.7800, -52.719
1570.8000, -52.737
1570.8200, -52.754
1570.8400, -52.768
1570.8600, -52.792
1570.8800, -52.805
1570.9000, -52.829
1570.9200, -52.838
1570.9400, -52.845
1570.9600, -52.870
1570.9800, -52.884
1571.0000, -52.905
1571.0200, -52.916
1571.0400, -52.934
1571.0600, -52.955
1571.0800, -52.964
1571.1000, -52.980
1571.1200, -53.009
1571.1400, -53.022
1571.1600, -53.043
1571.1800, -53.054
1571.2000, -53.066
1571.2200, -53.088
1571.2400, -53.105
1571.2600, -53.120
1571.2800, -53.138
1571.3000, -53.158
1571.3200, -53.177
1571.3400, -53.196
1571.3600, -53.221
1571.3800, -53.230
1571.4000, -53.243
1571.4200, -53.272
1571.4400, -53.283
1571.4600, -53.302
1571.4800, -53.320
1571.5000, -53.334
1571.5200, -53.351
1571.5400, -53.366
1571.5600, -53.397
1571.5800, -53.398
1571.6000, -53.430
1571.6200, -53.435
1571.6400, -53.452
1571.6600, -53.475
1571.6800, -53.481
1571.7000, -53.500
1571.7200, -53.527
1571.7400, -53.533
1571.7600, -53.554
1571.7800, -53.564
1571.8000, -53.577
1571.8200, -53.592
1571.8400, -53.611
1571.8600, -53.632
1571.8800, -53.648
1571.9000, -53.666
1571.9200, -53.669
1571.9400, -53.695
1571.9600, -53.709
1571.9800, -53.734
1572.0000, -53.751
1572.0200, -53.766
1572.0400, -53.776
1572.0600, -53.803
1572.0800, -53.812
1572.1000, -53.827
1572.1200, -53.840
1572.1400, -53.860
1572.1600, -53.876
1572.1800, -53.883
1572.2000, -53.907
1572.2200, -53.932
1572.2400, -53.936
1572.2600, -53.959
1572.2800, -53.982
1572.3000, -53.998
1572.3200, -54.000
1572.3400, -54.018
1572.3600, -54.053
1572.3800, -54.055
1572.4000, -54.085
1572.4200, -54.082
1572.4400, -54.102
1572.4600, -54.130
1572.4800, -54.141
1572.5000, -54.149
1572.5200, -54.164
1572.5400, -54.188
1572.5600, -54.204
1572.5800, -54.224
1572.6000, -54.228
1572.6200, -54.248
1572.6400, -54.265
1572.6600, -54.274
1572.6800, -54.286
1572.7000, -54.301
1572.7200, -54.316
1572.7400, -54.335
1572.7600, -54.345
1572.7800, -54.368
1572.8000, -54.376
1572.8200, -54.403
1572.8400, -54.405
1572.8600, -54.421
1572.8800, -54.445
1572.9000, -54.451
1572.9200, -54.468
1572.9400, -54.490
1572.9600, -54.499
1572.9800, -54.525
1573.0000, -54.535
1573.0200, -54.549
1573.0400, -54.570
1573.0600, -54.584
1573.0800, -54.604
1573.1000, -54.625
1573.1200, -54.635
1573.1400, -54.647
1573.1600, -54.674
1573.1800, -54.669
1573.2000, -54.690
1573.2200, -54.705
1573.2400, -54.716
1573.2600, -54.739
1573.2800, -54.771
1573.3000, -54.761
1573.3200, -54.778
1573.3400, -54.801
1573.3600, -54.808
1573.3800, -54.833
1573.4000, -54.841
1573.4200, -54.855
1573.4400, -54.883
1573.4600, -54.883
1573.4800, -54.899
1573.5000, -54.908
1573.5200, -54.932
1573.5400, -54.939
1573.5600, -54.949
1573.5800, -54.972
1573.6000, -54.986
1573.6200, -55.000
1573.6400, -55.022
1573.6600, -55.036
1573.6800, -55.044
1573.7000, -55.055
1573.7200, -55.073
1573.7400, -55.089
1573.7600, -55.103
1573.7800, -55.130
1573.8000, -55.135
1573.8200, -55.146
1573.8400, -55.162
1573.8600, -55.163
1573.8800, -55.191
1573.9000, -55.209
1573.9200, -55.221
1573.9400, -55.235
1573.9600, -55.256
1573.9800, -55.263
1574.0000, -55.281
1574.0200, -55.300
1574.0400, -55.303
1574.0600, -55.323
1574.0800, -55.338
1574.1000, -55.365
1574.1200, -55.366
1574.1400, -55.391
1574.1600, -55.390
1574.1800, -55.410
1574.2000, -55.423
1574.2200, -55.436
1574.2400, -55.450
1574.2600, -55.461
1574.2800, -55.473
1574.3000, -55.492
1574.3200, -55.513
1574.3400, -55.520
1574.3600, -55.532
1574.3800, -55.545
1574.4000, -55.553
1574.4200, -55.572
1574.4400, -55.580
1574.4600, -55.600
1574.4800, -55.609
1574.5000, -55.626
1574.5200, -55.639
1574.5400, -55.653
1574.5600, -55.664
1574.5800, -55.680
1574.6000, -55.692
1574.6200, -55.717
1574.6400, -55.726
1574.6600, -55.736
1574.6800, -55.741
1574.7000, -55.769
1574.7200, -55.776
1574.7400, -55.791
1574.7600, -55.806
1574.7800, -55.817
1574.8000, -55.840
1574.8200, -55.844
1574.8400, -55.865
1574.8600, -55.881
1574.8800, -55.896
1574.9000, -55.904
1574.9200, -55.919
1574.9400, -55.929
1574.9600, -55.948
1574.9800, -55.950
1575.0000, -55.976
1575.0200, -55.980
1575.0400, -55.994
1575.0600, -56.018
1575.0800, -56.032
1575.1000, -56.046
1575.1200, -56.053
1575.1400, -56.058
1575.1600, -56.080
1575.1800, -56.099
1575.2000, -56.114
1575.2200, -56.113
1575.2400, -56.135
1575.2600, -56.134
1575.2800, -56.148
1575.3000, -56.164
1575.3200, -56.179
1575.3400, -56.184
1575.3600, -56.206
1575.3800, -56.209
1575.4000, -56.227
1575.4200, -56.237
1575.4400, -56.260
1575.4600, -56.268
1575.4800, -56.273
1575.5000, -56.290
1575.5200, -56.303
1575.5400, -56.311
1575.5600, -56.326
1575.5800, -56.345
1575.6000, -56.356
1575.6200, -56.365
1575.6400, -56.373
1575.6600, -56.399
1575.6800, -56.406
1575.7000, -56.425
1575.7200, -56.429
1575.7400, -56.449
1575.7600, -56.460
1575.7800, -56.462
1575.8000, -56.486
1575.8200, -56.492
1575.8400, -56.508
1575.8600, -56.528
1575.8800, -56.519
1575.9000, -56.554
1575.9200, -56.563
1575.9400, -56.565
1575.9600, -56.590
1575.9800, -56.602
1576.0000, -56.614
1576.0200, -56.620
1576.0400, -56.629
1576.0600, -56.645
1576.0800, -56.654
1576.1000, -56.671
1576.1200, -56.680
1576.1400, -56.679
1576.1600, -56.704
1576.1800, -56.711
1576.2000, -56.735
1576.2200, -56.739
1576.2400, -56.741
1576.2600, -56.755
1576.2800, -56.766
1576.3000, -56.776
1576.3200, -56.786
1576.3400, -56.811
1576.3600, -56.816
1576.3800, -56.831
1576.4000, -56.840
1576.4200, -56.853
1576.4400, -56.858
1576.4600, -56.868
1576.4800, -56.886
1576.5000, -56.895
1576.5200, -56.916
1576.5400, -56.919
1576.5600, -56.938
1576.5800, -56.942
1576.6000, -56.958
1576.6200, -56.979
1576.6400, -56.977
1576.6600, -56.977
1576.6800, -57.008
1576.7000, -57.009
1576.7200, -57.032
1576.7400, -57.037
1576.7600, -57.052
1576.7800, -57.060
1576.8000, -57.080
1576.8200, -57.079
1576.8400, -57.100
1576.8600, -57.099
1576.8800, -57.111
1576.9000, -57.120
1576.9200, -57.135
1576.9400, -57.144
1576.9600, -57.155
1576.9800, -57.165
1577.0000, -57.166
1577.0200, -57.188
1577.0400, -57.200
1577.0600, -57.200
1577.0800, -57.221
1577.1000, -57.236
1577.1200, -57.230
1577.1400, -57.244
1577.1600, -57.255
1577.1800, -57.288
1577.2000, -57.271
1577.2200, -57.285
1577.2400, -57.289
1577.2600, -57.306
1577.2800, -57.318
1577.3000, -57.333
1577.3200, -57.341
1577.3400, -57.356
1577.3600, -57.363
1577.3800, -57.395
1577.4000, -57.384
1577.4200, -57.406
1577.4400, -57.409
1577.4600, -57.423
1577.4800, -57.433
1577.5000, -57.462
1577.5200, -57.460
1577.5400, -57.461
1577.5600, -57.490
1577.5800, -57.474
1577.6000, -57.501
1577.6200, -57.508
1577.6400, -57.507
1577.6600, -57.514
1577.6800, -57.549
1577.7000, -57.543
1577.7200, -57.562
1577.7400, -57.576
1577.7600, -57.596
1577.7800, -57.569
1577.8000, -57.596
1577.8200, -57.599
1577.8400, -57.611
1577.8600, -57.644
1577.8800, -57.652
1577.9000, -57.642
1577.9200, -57.652
1577.9400, -57.679
1577.9600, -57.685
1577.9800, -57.691
1578.0000, -57.699
1578.0200, -57.718
1578.0400, -57.714
1578.0600, -57.724
1578.0800, -57.752
1578.1000, -57.756
1578.1200, -57.763
1578.1400, -57.762
1578.1600, -57.778
1578.1800, -57.800
1578.2000, -57.811
1578.2200, -57.810
1578.2400, -57.826
1578.2600, -57.833
1578.2800, -57.840
1578.3000, -57.846
1578.3200, -57.864
1578.3400, -57.888
1578.3600, -57.891
1578.3800, -57.902
1578.4000, -57.911
1578.4200, -57.914
1578.4400, -57.940
1578.4600, -57.918
1578.4800, -57.937
1578.5000, -57.953
1578.5200, -57.957
1578.5400, -57.983
1578.5600, -57.979
1578.5800, -57.983
1578.6000, -58.007
1578.6200, -58.003
1578.6400, -58.018
1578.6600, -58.030
1578.6800, -58.031
1578.7000, -58.042
1578.7200, -58.051
1578.7400, -58.061
1578.7600, -58.071
1578.7800, -58.082
1578.8000, -58.079
1578.8200, -58.104
1578.8400, -58.104
1578.8600, -58.118
1578.8800, -58.146
1578.9000, -58.122
1578.9200, -58.161
1578.9400, -58.164
1578.9600, -58.173
1578.9800, -58.170
1579.0000, -58.195
1579.0200, -58.180
1579.0400, -58.201
1579.0600, -58.224
1579.0800, -58.227
1579.1000, -58.234
1579.1200, -58.241
1579.1400, -58.236
1579.1600, -58.253
1579.1800, -58.276
1579.2000, -58.282
1579.2200, -58.299
1579.2400, -58.303
1579.2600, -58.323
1579.2800, -58.299
1579.3000, -58.361
1579.3200, -58.317
1579.3400, -58.345
1579.3600, -58.339
1579.3800, -58.379
1579.4000, -58.375
1579.4200, -58.395
1579.4400, -58.377
1579.4600, -58.393
1579.4800, -58.426
1579.5000, -58.426
1579.5200, -58.410
1579.5400, -58.412
1579.5600, -58.450
1579.5800, -58.447
1579.6000, -58.459
1579.6200, -58.458
1579.6400, -58.488
1579.6600, -58.466
1579.6800, -58.486
1579.7000, -58.504
1579.7200, -58.506
1579.7400, -58.533
1579.7600, -58.523
1579.7800, -58.531
1579.8000, -58.532
1579.8200, -58.547
1579.8400, -58.567
1579.8600, -58.586
1579.8800, -58.574
1579.9000, -58.575
1579.9200, -58.591
1579.9400, -58.597
1579.9600, -58.603
1579.9800, -58.624
1580.0000, -58.629
1580.0200, -58.634
1580.0400, -58.650
1580.0600, -58.663
1580.0800, -58.659
1580.1000, -58.666
1580.1200, -58.677
1580.1400, -58.678
1580.1600, -58.709
1580.1800, -58.699
1580.2000, -58.718
1580.2200, -58.714
1580.2400, -58.732
1580.2600, -58.735
1580.2800, -58.761
1580.3000, -58.756
1580.3200, -58.751
1580.3400, -58.775
1580.3600, -58.797
1580.3800, -58.788
1580.4000, -58.783
1580.4200, -58.772
1580.4400, -58.824
1580.4600, -58.802
1580.4800, -58.834
1580.5000, -58.825
1580.5200, -58.844
1580.5400, -58.846
1580.5600, -58.867
1580.5800, -58.862
1580.6000, -58.881
1580.6200, -58.869
1580.6400, -58.890
1580.6600, -58.899
1580.6800, -58.898
1580.7000, -58.892
1580.7200, -58.925
1580.7400, -58.923
1580.7600, -58.915
1580.7800, -58.938
1580.8000, -58.956
1580.8200, -58.945
1580.8400, -58.972
1580.8600, -58.957
1580.8800, -58.983
1580.9000, -58.967
1580.9200, -59.022
1580.9400, -58.984
1580.9600, -59.016
1580.9800, -59.016
1581.0000, -59.027
1581.0200, -59.030
1581.0400, -59.041
1581.0600, -59.048
1581.0800, -59.052
1581.1000, -59.056
1581.1200, -59.064
1581.1400, -59.069
1581.1600, -59.096
1581.1800, -59.106
1581.2000, -59.077
1581.2200, -59.085
1581.2400, -59.116
1581.2600, -59.104
1581.2800, -59.142
1581.3000, -59.127
1581.3200, -59.143
1581.3400, -59.144
1581.3600, -59.173
1581.3800, -59.159
1581.4000, -59.165
1581.4200, -59.177
1581.4400, -59.183
1581.4600, -59.180
1581.4800, -59.205
1581.5000, -59.214
1581.5200, -59.222
1581.5400, -59.204
1581.5600, -59.218
1581.5800, -59.216
1581.6000, -59.250
1581.6200, -59.232
1581.6400, -59.246
1581.6600, -59.269
1581.6800, -59.285
1581.7000, -59.269
1581.7200, -59.285
1581.7400, -59.305
1581.7600, -59.295
1581.7800, -59.312
1581.8000, -59.311
1581.8200, -59.327
1581.8400, -59.340
1581.8600, -59.318
1581.8800, -59.347
1581.9000, -59.365
1581.9200, -59.371
1581.9400, -59.335
1581.9600, -59.377
1581.9800, -59.377
1582.0000, -59.396
1582.0200, -59.375
1582.0400, -59.430
1582.0600, -59.426
1582.0800, -59.427
1582.1000, -59.415
1582.1200, -59.443
1582.1400, -59.441
1582.1600, -59.434
1582.1800, -59.456
1582.2000, -59.456
1582.2200, -59.465
1582.2400, -59.469
1582.2600, -59.471
1582.2800, -59.474
1582.3000, -59.460
1582.3200, -59.500
1582.3400, -59.493
1582.3600, -59.491
1582.3800, -59.514
1582.4000, -59.524
1582.4200, -59.534
1582.4400, -59.538
1582.4600, -59.529
1582.4800, -59.550
1582.5000, -59.521
1582.5200, -59.557
1582.5400, -59.575
1582.5600, -59.574
1582.5800, -59.574
1582.6000, -59.558
1582.6200, -59.581
1582.6400, -59.583
1582.6600, -59.609
1582.6800, -59.605
1582.7000, -59.624
1582.7200, -59.647
1582.7400, -59.616
1582.7600, -59.641
1582.7800, -59.650
1582.8000, -59.659
1582.8200, -59.660
1582.8400, -59.659
1582.8600, -59.663
1582.8800, -59.681
1582.9000, -59.690
1582.9200, -59.692
1582.9400, -59.681
1582.9600, -59.719
1582.9800, -59.694
1583.0000, -59.728
1583.0200, -59.748
1583.0400, -59.708
1583.0600, -59.747
1583.0800, -59.730
1583.1000, -59.738
1583.1200, -59.768
1583.1400, -59.768
1583.1600, -59.755
1583.1800, -59.774
1583.2000, -59.771
1583.2200, -59.788
1583.2400, -59.779
1583.2600, -59.791
1583.2800, -59.803
1583.3000, -59.810
1583.3200, -59.814
1583.3400, -59.797
1583.3600, -59.825
1583.3800, -59.837
1583.4000, -59.871
1583.4200, -59.847
1583.4400, -59.880
1583.4600, -59.853
1583.4800, -59.879
1583.5000, -59.881
1583.5200, -59.897
1583.5400, -59.887
1583.5600, -59.905
1583.5800, -59.904
1583.6000, -59.892
1583.6200, -59.940
1583.6400, -59.915
1583.6600, -59.911
1583.6800, -59.925
1583.7000, -59.958
1583.7200, -59.938
1583.7400, -59.958
1583.7600, -59.953
1583.7800, -59.946
1583.8000, -59.957
1583.8200, -59.970
1583.8400, -59.986
1583.8600, -59.973
1583.8800, -59.984
1583.9000, -59.998
1583.9200, -59.995
1583.9400, -59.991
1583.9600, -60.027
1583.9800, -60.009
1584.0000, -60.011
1584.0200, -60.033
1584.0400, -60.009
1584.0600, -60.054
1584.0800, -60.049
1584.1000, -60.060
1584.1200, -60.051
1584.1400, -60.067
1584.1600, -60.070
1584.1800, -60.074
1584.2000, -60.087
1584.2200, -60.072
1584.2400, -60.129
1584.2600, -60.060
1584.2800, -60.111
1584.3000, -60.120
1584.3200, -60.121
1584.3400, -60.123
1584.3600, -60.113
1584.3800, -60.118
1584.4000, -60.145
1584.4200, -60.174
1584.4400, -60.129
1584.4600, -60.180
1584.4800, -60.151
1584.5000, -60.139
1584.5200, -60.159
1584.5400, -60.166
1584.5600, -60.204
1584.5800, -60.210
1584.6000, -60.183
1584.6200, -60.188
1584.6400, -60.210
1584.6600, -60.203
1584.6800, -60.197
1584.7000, -60.212
1584.7200, -60.232
1584.7400, -60.242
1584.7600, -60.233
1584.7800, -60.259
1584.8000, -60.220
1584.8200, -60.251
1584.8400, -60.275
1584.8600, -60.247
1584.8800, -60.254
1584.9000, -60.268
1584.9200, -60.275
1584.9400, -60.263
1584.9600, -60.285
1584.9800, -60.282
1585.0000, -60.300
1585.0200, -60.304
1585.0400, -60.302
1585.0600, -60.316
1585.0800, -60.326
1585.1000, -60.329
1585.1200, -60.326
1585.1400, -60.326
1585.1600, -60.371
1585.1800, -60.343
1585.2000, -60.367
1585.2200, -60.372
1585.2400, -60.356
1585.2600, -60.354
1585.2800, -60.344
1585.3000, -60.370
1585.3200, -60.390
1585.3400, -60.389
1585.3600, -60.417
1585.3800, -60.401
1585.4000, -60.404
1585.4200, -60.380
1585.4400, -60.429
1585.4600, -60.390
1585.4800, -60.424
1585.5000, -60.432
1585.5200, -60.461
1585.5400, -60.457
1585.5600, -60.402
1585.5800, -60.456
1585.6000, -60.442
1585.6200, -60.460
1585.6400, -60.443
1585.6600, -60.452
1585.6800, -60.476
1585.7000, -60.478
1585.7200, -60.460
1585.7400, -60.498
1585.7600, -60.488
1585.7800, -60.514
1585.8000, -60.493
1585.8200, -60.473
1585.8400, -60.551
1585.8600, -60.471
1585.8800, -60.514
1585.9000, -60.535
1585.9200, -60.516
1585.9400, -60.563
1585.9600, -60.549
1585.9800, -60.558
1586.0000, -60.524
1586.0200, -60.543
1586.0400, -60.569
1586.0600, -60.568
1586.0800, -60.572
1586.1000, -60.602
1586.1200, -60.585
1586.1400, -60.587
1586.1600, -60.566
1586.1800, -60.595
1586.2000, -60.621
1586.2200, -60.586
1586.2400, -60.614
1586.2600, -60.645
1586.2800, -60.634
1586.3000, -60.618
1586.3200, -60.590
1586.3400, -60.653
1586.3600, -60.653
1586.3800, -60.635
1586.4000, -60.650
1586.4200, -60.642
1586.4400, -60.643
1586.4600, -60.648
1586.4800, -60.699
1586.5000, -60.686
1586.5200, -60.672
1586.5400, -60.655
1586.5600, -60.692
1586.5800, -60.685
1586.6000, -60.684
1586.6200, -60.720
1586.6400, -60.693
1586.6600, -60.714
1586.6800, -60.712
1586.7000, -60.702
1586.7200, -60.739
1586.7400, -60.720
1586.7600, -60.763
1586.7800, -60.724
1586.8000, -60.753
1586.8200, -60.788
1586.8400, -60.766
1586.8600, -60.741
1586.8800, -60.774
1586.9000, -60.763
1586.9200, -60.800
1586.9400, -60.764
1586.9600, -60.795
1586.9800, -60.800
1587.0000, -60.808
1587.0200, -60.820
1587.0400, -60.809
1587.0600, -60.809
1587.0800, -60.805
1587.1000, -60.858
1587.1200, -60.815
1587.1400, -60.822
1587.1600, -60.840
1587.1800, -60.803
1587.2000, -60.896
1587.2200, -60.823
1587.2400, -60.843
1587.2600, -60.839
1587.2800, -60.883
1587.3000, -60.866
1587.3200, -60.868
1587.3400, -60.890
1587.3600, -60.875
1587.3800, -60.879
1587.4000, -60.889
1587.4200, -60.891
1587.4400, -60.889
1587.4600, -60.899
1587.4800, -60.919
1587.5000, -60.935
1587.5200, -60.888
1587.5400, -60.935
1587.5600, -60.919
1587.5800, -60.937
1587.6000, -60.879
1587.6200, -60.980
1587.6400, -60.957
1587.6600, -60.919
1587.6800, -60.978
1587.7000, -60.971
1587.7200, -60.940
1587.7400, -60.998
1587.7600, -61.011
1587.7800, -61.002
1587.8000, -60.998
1587.8200, -60.946
1587.8400, -61.014
1587.8600, -61.017
1587.8800, -61.021
1587.9000, -60.992
1587.9200, -61.025
1587.9400, -61.011
1587.9600, -61.029
1587.9800, -61.026
1588.0000, -61.045
1588.0200, -61.049
1588.0400, -61.056
1588.0600, -61.035
1588.0800, -61.062
1588.1000, -61.039
1588.1200, -61.070
1588.1400, -61.060
1588.1600, -61.047
1588.1800, -61.066
1588.2000, -61.081
1588.2200, -61.100
1588.2400, -61.068
1588.2600, -61.092
1588.2800, -61.095
1588.3000, -61.122
1588.3200, -61.102
1588.3400, -61.069
1588.3600, -61.142
1588.3800, -61.091
1588.4000, -61.112
1588.4200, -61.145
1588.4400, -61.118
1588.4600, -61.154
1588.4800, -61.123
1588.5000, -61.149
1588.5200, -61.153
1588.5400, -61.144
1588.5600, -61.159
1588.5800, -61.161
1588.6000, -61.157
1588.6200, -61.201
1588.6400, -61.184
1588.6600, -61.188
1588.6800, -61.185
1588.7000, -61.203
1588.7200, -61.196
1588.7400, -61.202
1588.7600, -61.202
1588.7800, -61.182
1588.8000, -61.201
1588.8200, -61.206
1588.8400, -61.237
1588.8600, -61.199
1588.8800, -61.211
1588.9000, -61.220
1588.9200, -61.244
1588.9400, -61.248
1588.9600, -61.223
1588.9800, -61.247
1589.0000, -61.237
1589.0200, -61.273
1589.0400, -61.252
1589.0600, -61.280
1589.0800, -61.258
1589.1000, -61.280
1589.1200, -61.276
1589.1400, -61.289
1589.1600, -61.304
1589.1800, -61.253
1589.2000, -61.305
1589.2200, -61.295
1589.2400, -61.293
1589.2600, -61.289
1589.2800, -61.320
1589.3000, -61.310
1589.3200, -61.313
1589.3400, -61.349
1589.3600, -61.313
1589.3800, -61.302
1589.4000, -61.320
1589.4200, -61.356
1589.4400, -61.329
1589.4600, -61.363
1589.4800, -61.343
1589.5000, -61.339
1589.5200, -61.385
1589.5400, -61.354
1589.5600, -61.425
1589.5800, -61.387
1589.6000, -61.361
1589.6200, -61.403
1589.6400, -61.398
1589.6600, -61.371
1589.6800, -61.394
1589.7000, -61.415
1589.7200, -61.400
1589.7400, -61.423
1589.7600, -61.398
1589.7800, -61.427
1589.8000, -61.419
1589.8200, -61.411
1589.8400, -61.407
1589.8600, -61.440
1589.8800, -61.428
1589.9000, -61.436
1589.9200, -61.439
1589.9400, -61.439
1589.9600, -61.451
1589.9800, -61.462
1590.0000, -61.461
1590.0200, -61.468
1590.0400, -61.475
1590.0600, -61.460
1590.0800, -61.511
1590.1000, -61.497
1590.1200, -61.485
1590.1400, -61.509
1590.1600, -61.482
1590.1800, -61.509
1590.2000, -61.490
1590.2200, -61.526
1590.2400, -61.508
1590.2600, -61.554
1590.2800, -61.509
1590.3000, -61.510
1590.3200, -61.527
1590.3400, -61.545
1590.3600, -61.570
1590.3800, -61.516
1590.4000, -61.569
1590.4200, -61.542
1590.4400, -61.572
1590.4600, -61.565
1590.4800, -61.560
1590.5000, -61.592
1590.5200, -61.574
1590.5400, -61.589
1590.5600, -61.588
1590.5800, -61.581
1590.6000, -61.591
1590.6200, -61.562
1590.6400, -61.598
1590.6600, -61.618
1590.6800, -61.600
1590.7000, -61.593
1590.7200, -61.596
1590.7400, -61.632
1590.7600, -61.612
1590.7800, -61.648
1590.8000, -61.628
1590.8200, -61.634
1590.8400, -61.625
1590.8600, -61.632
1590.8800, -61.685
1590.9000, -61.666
1590.9200, -61.648
1590.9400, -61.647
1590.9600, -61.658
1590.9800, -61.627
1591.0000, -61.684
1591.0200, -61.719
1591.0400, -61.644
1591.0600, -61.750
1591.0800, -61.696
1591.1000, -61.630
1591.1200, -61.762
1591.1400, -61.680
1591.1600, -61.722
1591.1800, -61.656
1591.2000, -61.751
1591.2200, -61.723
1591.2400, -61.742
1591.2600, -61.676
1591.2800, -61.798
1591.3000, -61.741
1591.3200, -61.744
1591.3400, -61.751
1591.3600, -61.734
1591.3800, -61.747
1591.4000, -61.755
1591.4200, -61.775
1591.4400, -61.768
1591.4600, -61.776
1591.4800, -61.842
1591.5000, -61.741
1591.5200, -61.825
1591.5400, -61.759
1591.5600, -61.813
1591.5800, -61.752
1591.6000, -61.814
1591.6200, -61.837
1591.6400, -61.856
1591.6600, -61.794
1591.6800, -61.829
1591.7000, -61.845
1591.7200, -61.850
1591.7400, -61.842
1591.7600, -61.815
1591.7800, -61.883
1591.8000, -61.814
1591.8200, -61.921
1591.8400, -61.833
1591.8600, -61.859
1591.8800, -61.921
1591.9000, -61.821
1591.9200, -61.875
1591.9400, -61.872
1591.9600, -61.904
1591.9800, -61.878
1592.0000, -61.914
1592.0200, -61.880
1592.0400, -61.889
1592.0600, -61.902
1592.0800, -61.919
1592.1000, -61.888
1592.1200, -61.952
1592.1400, -61.930
1592.1600, -61.903
1592.1800, -61.984
1592.2000, -61.925
1592.2200, -61.944
1592.2400, -61.935
1592.2600, -61.945
1592.2800, -61.974
1592.3000, -61.944
1592.3200, -61.959
1592.3400, -61.958
1592.3600, -61.977
1592.3800, -61.977
1592.4000, -61.934
1592.4200, -61.980
1592.4400, -61.975
1592.4600, -61.984
1592.4800, -62.010
1592.5000, -61.969
1592.5200, -62.022
1592.5400, -62.020
1592.5600, -61.967
1592.5800, -61.979
1592.6000, -62.015
1592.6200, -62.030
1592.6400, -62.020
1592.6600, -62.025
1592.6800, -62.038
1592.7000, -62.056
1592.7200, -62.041
1592.7400, -62.043
1592.7600, -62.037
1592.7800, -62.048
1592.8000, -62.062
1592.8200, -62.074
1592.8400, -62.035
1592.8600, -62.102
1592.8800, -62.062
1592.9000, -62.024
1592.9200, -62.090
1592.9400, -62.086
1592.9600, -62.129
1592.9800, -62.095
1593.0000, -62.093
1593.0200, -62.114
1593.0400, -62.093
1593.0600, -62.083
1593.0800, -62.138
1593.1000, -62.104
1593.1200, -62.072
1593.1400, -62.142
1593.1600, -62.105
1593.1800, -62.141
1593.2000, -62.139
1593.2200, -62.148
1593.2400, -62.175
1593.2600, -62.127
1593.2800, -62.116
1593.3000, -62.162
1593.3200, -62.142
1593.3400, -62.144
1593.3600, -62.157
1593.3800, -62.103
1593.4000, -62.170
1593.4200, -62.156
1593.4400, -62.166
1593.4600, -62.198
1593.4800, -62.193
1593.5000, -62.220
1593.5200, -62.174
1593.5400, -62.222
1593.5600, -62.239
1593.5800, -62.190
1593.6000, -62.219
1593.6200, -62.194
1593.6400, -62.219
1593.6600, -62.202
1593.6800, -62.249
1593.7000, -62.258
1593.7200, -62.262
1593.7400, -62.233
1593.7600, -62.229
1593.7800, -62.219
1593.8000, -62.267
1593.8200, -62.270
1593.8400, -62.276
1593.8600, -62.277
1593.8800, -62.210
1593.9000, -62.308
1593.9200, -62.288
1593.9400, -62.239
1593.9600, -62.323
1593.9800, -62.267
1594.0000, -62.291
1594.0200, -62.326
1594.0400, -62.306
1594.0600, -62.278
1594.0800, -62.327
1594.1000, -62.326
1594.1200, -62.296
1594.1400, -62.352
1594.1600, -62.308
1594.1800, -62.339
1594.2000, -62.356
1594.2200, -62.334
1594.2400, -62.307
1594.2600, -62.355
1594.2800, -62.367
1594.3000, -62.358
1594.3200, -62.366
1594.3400, -62.357
1594.3600, -62.344
1594.3800, -62.399
1594.4000, -62.354
1594.4200, -62.374
1594.4400, -62.385
1594.4600, -62.388
1594.4800, -62.364
1594.5000, -62.400
1594.5200, -62.394
1594.5400, -62.431
1594.5600, -62.421
1594.5800, -62.418
1594.6000, -62.434
1594.6200, -62.393
1594.6400, -62.457
1594.6600, -62.412
1594.6800, -62.426
1594.7000, -62.450
1594.7200, -62.456
1594.7400, -62.437
1594.7600, -62.417
1594.7800, -62.470
1594.8000, -62.447
1594.8200, -62.477
1594.8400, -62.438
1594.8600, -62.449
1594.8800, -62.478
1594.9000, -62.475
1594.9200, -62.468
1594.9400, -62.497
1594.9600, -62.502
1594.9800, -62.484
1595.0000, -62.499
1595.0200, -62.526
1595.0400, -62.466
1595.0600, -62.484
1595.0800, -62.518
1595.1000, -62.525
1595.1200, -62.509
1595.1400, -62.543
1595.1600, -62.508
1595.1800, -62.565
1595.2000, -62.530
1595.2200, -62.539
1595.2400, -62.577
1595.2600, -62.551
1595.2800, -62.553
1595.3000, -62.552
1595.3200, -62.539
1595.3400, -62.551
1595.3600, -62.581
1595.3800, -62.550
1595.4000, -62.583
1595.4200, -62.591
1595.4400, -62.616
1595.4600, -62.576
1595.4800, -62.603
1595.5000, -62.579
1595.5200, -62.594
1595.5400, -62.672
1595.5600, -62.621
1595.5800, -62.591
1595.6000, -62.590
1595.6200, -62.581
1595.6400, -62.626
1595.6600, -62.652
1595.6800, -62.672
1595.7000, -62.620
1595.7200, -62.670
1595.7400, -62.632
1595.7600, -62.626
1595.7800, -62.650
1595.8000, -62.639
1595.8200, -62.662
1595.8400, -62.660
1595.8600, -62.708
1595.8800, -62.697
1595.9000, -62.702
1595.9200, -62.694
1595.9400, -62.675
1595.9600, -62.747
1595.9800, -62.690
1596.0000, -62.691
1596.0200, -62.774
1596.0400, -62.672
1596.0600, -62.674
1596.0800, -62.768
1596.1000, -62.729
1596.1200, -62.701
1596.1400, -62.765
1596.1600, -62.714
1596.1800, -62.779
1596.2000, -62.746
1596.2200, -62.784
1596.2400, -62.722
1596.2600, -62.788
1596.2800, -62.795
1596.3000, -62.737
1596.3200, -62.784
1596.3400, -62.749
1596.3600, -62.809
1596.3800, -62.747
1596.4000, -62.764
1596.4200, -62.852
1596.4400, -62.762
1596.4600, -62.798
1596.4800, -62.803
1596.5000, -62.760
1596.5200, -62.858
1596.5400, -62.812
1596.5600, -62.759
1596.5800, -62.775
1596.6000, -62.865
1596.6200, -62.831
1596.6400, -62.821
1596.6600, -62.839
1596.6800, -62.839
1596.7000, -62.856
1596.7200, -62.851
1596.7400, -62.846
1596.7600, -62.837
1596.7800, -62.861
1596.8000, -62.876
1596.8200, -62.943
1596.8400, -62.879
1596.8600, -62.868
1596.8800, -62.871
1596.9000, -62.858
1596.9200, -62.860
1596.9400, -62.909
1596.9600, -62.935
1596.9800, -62.935
1597.0000, -62.850
1597.0200, -62.929
1597.0400, -62.898
1597.0600, -62.892
1597.0800, -62.904
1597.1000, -62.913
1597.1200, -62.843
1597.1400, -62.984
1597.1600, -62.939
1597.1800, -62.946
1597.2000, -62.914
1597.2200, -62.921
1597.2400, -62.928
1597.2600, -62.947
1597.2800, -62.960
1597.3000, -62.961
1597.3200, -62.933
1597.3400, -62.959
1597.3600, -62.929
1597.3800, -62.990
1597.4000, -63.007
1597.4200, -63.007
1597.4400, -62.949
1597.4600, -62.985
1597.4800, -63.001
1597.5000, -62.977
1597.5200, -63.047
1597.5400, -63.025
1597.5600, -62.948
1597.5800, -63.070
1597.6000, -62.901
1597.6200, -63.136
1597.6400, -63.004
1597.6600, -63.144
1597.6800, -62.935
1597.7000, -63.119
1597.7200, -63.010
1597.7400, -62.989
1597.7600, -63.059
1597.7800, -63.081
1597.8000, -63.080
1597.8200, -63.049
1597.8400, -63.062
1597.8600, -63.069
1597.8800, -63.079
1597.9000, -63.046
1597.9200, -63.104
1597.9400, -63.082
1597.9600, -63.089
1597.9800, -63.036
1598.0000, -63.095
1598.0200, -63.163
1598.0400, -63.101
1598.0600, -63.081
1598.0800, -63.096
1598.1000, -63.143
1598.1200, -63.120
1598.1400, -63.075
1598.1600, -63.062
1598.1800, -63.127
1598.2000, -63.150
1598.2200, -63.068
1598.2400, -63.143
1598.2600, -63.099
1598.2800, -63.199
1598.3000, -63.229
1598.3200, -63.168
1598.3400, -63.158
1598.3600, -63.183
1598.3800, -63.150
1598.4000, -63.152
1598.4200, -63.203
1598.4400, -63.173
1598.4600, -63.233
1598.4800, -63.177
1598.5000, -63.191
1598.5200, -63.185
1598.5400, -63.241
1598.5600, -63.145
1598.5800, -63.232
1598.6000, -63.224
1598.6200, -63.197
1598.6400, -63.192
1598.6600, -63.231
1598.6800, -63.202
1598.7000, -63.278
1598.7200, -63.278
1598.7400, -63.233
1598.7600, -63.239
1598.7800, -63.244
1598.8000, -63.304
1598.8200, -63.290
1598.8400, -63.216
1598.8600, -63.308
1598.8800, -63.231
1598.9000, -63.294
1598.9200, -63.246
1598.9400, -63.264
1598.9600, -63.317
1598.9800, -63.327
1599.0000, -63.308
1599.0200, -63.249
1599.0400, -63.284
1599.0600, -63.295
1599.0800, -63.332
1599.1000, -63.327
1599.1200, -63.317
1599.1400, -63.324
1599.1600, -63.346
1599.1800, -63.321
1599.2000, -63.375
1599.2200, -63.313
1599.2400, -63.336
1599.2600, -63.381
1599.2800, -63.314
1599.3000, -63.366
1599.3200, -63.369
1599.3400, -63.389
1599.3600, -63.378
1599.3800, -63.389
1599.4000, -63.374
1599.4200, -63.313
1599.4400, -63.377
1599.4600, -63.425
1599.4800, -63.339
1599.5000, -63.364
1599.5200, -63.395
1599.5400, -63.391
1599.5600, -63.468
1599.5800, -63.421
1599.6000, -63.413
1599.6200, -63.429
1599.6400, -63.419
1599.6600, -63.396
1599.6800, -63.496
1599.7000, -63.439
1599.7200, -63.446
1599.7400, -63.454
1599.7600, -63.450
1599.7800, -63.450
1599.8000, -63.457
1599.8200, -63.476
1599.8400, -63.462
1599.8600, -63.450
1599.8800, -63.533
1599.9000, -63.438
1599.9200, -63.448
1599.9400, -63.487
1599.9600, -63.479
1599.9800, -63.504
1600.0000, -63.474
