70BCSV 	
// AQ6370B OPTICAL SPECTRUM ANALYZER //                 
25
"CTRWL",1550.000000
"SPAN", 100.000000
"START WL",1500.000000
"STOP WL",1600.000000
"WLFREQ", 0
"REFL",-28.8
"LSCL", 5.0
"RESLN",0.100
"AVG",   1
"SMPLAUTO",      0
"SMPL",       5001
"SMPLINTVL",0.0200
"HIGH1"
"MEAS"
"LSUNT",0
"NMSKH","OFF"
"RESCOR",0
"RESPARM", 9050
"FREQPARM", 9050






"[TRACE DATA]"
1500.0000, -63.179
1500.0200, -63.235
1500.0400, -63.107
1500.0600, -63.175
1500.0800, -63.140
1500.1000, -63.194
1500.1200, -63.075
1500.1400, -63.164
1500.1600, -63.141
1500.1800, -63.100
1500.2000, -63.160
1500.2200, -63.078
1500.2400, -63.134
1500.2600, -63.069
1500.2800, -63.113
1500.3000, -63.075
1500.3200, -63.067
1500.3400, -63.040
1500.3600, -63.081
1500.3800, -63.056
1500.4000, -63.035
1500.4200, -63.026
1500.4400, -63.076
1500.4600, -63.079
1500.4800, -63.041
1500.5000, -63.017
1500.5200, -63.011
1500.5400, -63.007
1500.5600, -62.985
1500.5800, -63.031
1500.6000, -63.012
1500.6200, -62.995
1500.6400, -62.997
1500.6600, -63.007
1500.6800, -62.982
1500.7000, -63.034
1500.7200, -62.961
1500.7400, -63.024
1500.7600, -62.952
1500.7800, -62.976
1500.8000, -62.958
1500.8200, -62.971
1500.8400, -62.978
1500.8600, -62.964
1500.8800, -62.963
1500.9000, -62.959
1500.9200, -62.927
1500.9400, -62.939
1500.9600, -62.883
1500.9800, -62.932
1501.0000, -62.913
1501.0200, -62.930
1501.0400, -62.916
1501.0600, -62.866
1501.0800, -62.880
1501.1000, -62.887
1501.1200, -62.868
1501.1400, -62.866
1501.1600, -62.858
1501.1800, -62.833
1501.2000, -62.873
1501.2200, -62.851
1501.2400, -62.868
1501.2600, -62.831
1501.2800, -62.788
1501.3000, -62.825
1501.3200, -62.816
1501.3400, -62.836
1501.3600, -62.810
1501.3800, -62.813
1501.4000, -62.764
1501.4200, -62.818
1501.4400, -62.739
1501.4600, -62.843
1501.4800, -62.729
1501.5000, -62.755
1501.5200, -62.787
1501.5400, -62.756
1501.5600, -62.754
1501.5800, -62.744
1501.6000, -62.752
1501.6200, -62.764
1501.6400, -62.720
1501.6600, -62.757
1501.6800, -62.694
1501.7000, -62.736
1501.7200, -62.768
1501.7400, -62.721
1501.7600, -62.694
1501.7800, -62.713
1501.8000, -62.733
1501.8200, -62.704
1501.8400, -62.660
1501.8600, -62.745
1501.8800, -62.662
1501.9000, -62.730
1501.9200, -62.657
1501.9400, -62.661
1501.9600, -62.677
1501.9800, -62.655
1502.0000, -62.663
1502.0200, -62.639
1502.0400, -62.647
1502.0600, -62.655
1502.0800, -62.579
1502.1000, -62.609
1502.1200, -62.609
1502.1400, -62.589
1502.1600, -62.599
1502.1800, -62.605
1502.2000, -62.585
1502.2200, -62.556
1502.2400, -62.537
1502.2600, -62.602
1502.2800, -62.512
1502.3000, -62.546
1502.3200, -62.549
1502.3400, -62.552
1502.3600, -62.522
1502.3800, -62.515
1502.4000, -62.509
1502.4200, -62.508
1502.4400, -62.493
1502.4600, -62.517
1502.4800, -62.480
1502.5000, -62.467
1502.5200, -62.517
1502.5400, -62.477
1502.5600, -62.492
1502.5800, -62.429
1502.6000, -62.439
1502.6200, -62.458
1502.6400, -62.446
1502.6600, -62.500
1502.6800, -62.439
1502.7000, -62.461
1502.7200, -62.440
1502.7400, -62.437
1502.7600, -62.401
1502.7800, -62.426
1502.8000, -62.383
1502.8200, -62.403
1502.8400, -62.413
1502.8600, -62.377
1502.8800, -62.387
1502.9000, -62.376
1502.9200, -62.371
1502.9400, -62.352
1502.9600, -62.379
1502.9800, -62.317
1503.0000, -62.368
1503.0200, -62.328
1503.0400, -62.312
1503.0600, -62.312
1503.0800, -62.307
1503.1000, -62.357
1503.1200, -62.249
1503.1400, -62.293
1503.1600, -62.290
1503.1800, -62.269
1503.2000, -62.284
1503.2200, -62.271
1503.2400, -62.242
1503.2600, -62.278
1503.2800, -62.267
1503.3000, -62.247
1503.3200, -62.237
1503.3400, -62.222
1503.3600, -62.222
1503.3800, -62.203
1503.4000, -62.177
1503.4200, -62.225
1503.4400, -62.212
1503.4600, -62.195
1503.4800, -62.212
1503.5000, -62.221
1503.5200, -62.189
1503.5400, -62.167
1503.5600, -62.175
1503.5800, -62.144
1503.6000, -62.134
1503.6200, -62.161
1503.6400, -62.151
1503.6600, -62.154
1503.6800, -62.103
1503.7000, -62.124
1503.7200, -62.162
1503.7400, -62.106
1503.7600, -62.110
1503.7800, -62.093
1503.8000, -62.099
1503.8200, -62.112
1503.8400, -62.076
1503.8600, -62.080
1503.8800, -62.095
1503.9000, -62.049
1503.9200, -62.062
1503.9400, -62.050
1503.9600, -62.075
1503.9800, -62.028
1504.0000, -62.040
1504.0200, -62.048
1504.0400, -62.031
1504.0600, -62.007
1504.0800, -62.008
1504.1000, -61.993
1504.1200, -61.967
1504.1400, -61.974
1504.1600, -62.000
1504.1800, -61.916
1504.2000, -61.967
1504.2200, -61.923
1504.2400, -61.957
1504.2600, -61.974
1504.2800, -61.954
1504.3000, -61.915
1504.3200, -61.904
1504.3400, -61.864
1504.3600, -61.884
1504.3800, -61.921
1504.4000, -61.860
1504.4200, -61.899
1504.4400, -61.893
1504.4600, -61.865
1504.4800, -61.900
1504.5000, -61.871
1504.5200, -61.835
1504.5400, -61.813
1504.5600, -61.822
1504.5800, -61.854
1504.6000, -61.860
1504.6200, -61.807
1504.6400, -61.796
1504.6600, -61.830
1504.6800, -61.806
1504.7000, -61.847
1504.7200, -61.799
1504.7400, -61.778
1504.7600, -61.776
1504.7800, -61.813
1504.8000, -61.769
1504.8200, -61.762
1504.8400, -61.733
1504.8600, -61.731
1504.8800, -61.721
1504.9000, -61.722
1504.9200, -61.732
1504.9400, -61.746
1504.9600, -61.667
1504.9800, -61.673
1505.0000, -61.682
1505.0200, -61.674
1505.0400, -61.666
1505.0600, -61.670
1505.0800, -61.659
1505.1000, -61.658
1505.1200, -61.667
1505.1400, -61.628
1505.1600, -61.632
1505.1800, -61.626
1505.2000, -61.619
1505.2200, -61.579
1505.2400, -61.617
1505.2600, -61.572
1505.2800, -61.608
1505.3000, -61.551
1505.3200, -61.524
1505.3400, -61.603
1505.3600, -61.531
1505.3800, -61.574
1505.4000, -61.528
1505.4200, -61.540
1505.4400, -61.495
1505.4600, -61.503
1505.4800, -61.509
1505.5000, -61.522
1505.5200, -61.519
1505.5400, -61.510
1505.5600, -61.512
1505.5800, -61.471
1505.6000, -61.492
1505.6200, -61.478
1505.6400, -61.474
1505.6600, -61.478
1505.6800, -61.481
1505.7000, -61.471
1505.7200, -61.428
1505.7400, -61.437
1505.7600, -61.408
1505.7800, -61.430
1505.8000, -61.409
1505.8200, -61.393
1505.8400, -61.400
1505.8600, -61.453
1505.8800, -61.394
1505.9000, -61.368
1505.9200, -61.375
1505.9400, -61.335
1505.9600, -61.328
1505.9800, -61.330
1506.0000, -61.346
1506.0200, -61.334
1506.0400, -61.323
1506.0600, -61.280
1506.0800, -61.302
1506.1000, -61.297
1506.1200, -61.256
1506.1400, -61.280
1506.1600, -61.294
1506.1800, -61.266
1506.2000, -61.253
1506.2200, -61.210
1506.2400, -61.248
1506.2600, -61.223
1506.2800, -61.189
1506.3000, -61.202
1506.3200, -61.232
1506.3400, -61.190
1506.3600, -61.208
1506.3800, -61.202
1506.4000, -61.209
1506.4200, -61.151
1506.4400, -61.181
1506.4600, -61.166
1506.4800, -61.187
1506.5000, -61.158
1506.5200, -61.154
1506.5400, -61.156
1506.5600, -61.147
1506.5800, -61.153
1506.6000, -61.157
1506.6200, -61.105
1506.6400, -61.118
1506.6600, -61.058
1506.6800, -61.112
1506.7000, -61.096
1506.7200, -61.075
1506.7400, -61.066
1506.7600, -61.051
1506.7800, -61.072
1506.8000, -61.058
1506.8200, -61.041
1506.8400, -61.063
1506.8600, -61.044
1506.8800, -61.030
1506.9000, -61.009
1506.9200, -60.984
1506.9400, -61.017
1506.9600, -60.982
1506.9800, -60.932
1507.0000, -60.996
1507.0200, -60.934
1507.0400, -60.963
1507.0600, -60.948
1507.0800, -60.936
1507.1000, -60.936
1507.1200, -60.950
1507.1400, -60.922
1507.1600, -60.897
1507.1800, -60.904
1507.2000, -60.900
1507.2200, -60.902
1507.2400, -60.850
1507.2600, -60.906
1507.2800, -60.866
1507.3000, -60.885
1507.3200, -60.875
1507.3400, -60.838
1507.3600, -60.836
1507.3800, -60.863
1507.4000, -60.806
1507.4200, -60.856
1507.4400, -60.789
1507.4600, -60.848
1507.4800, -60.806
1507.5000, -60.799
1507.5200, -60.806
1507.5400, -60.796
1507.5600, -60.773
1507.5800, -60.760
1507.6000, -60.770
1507.6200, -60.783
1507.6400, -60.726
1507.6600, -60.736
1507.6800, -60.728
1507.7000, -60.714
1507.7200, -60.717
1507.7400, -60.711
1507.7600, -60.702
1507.7800, -60.684
1507.8000, -60.688
1507.8200, -60.687
1507.8400, -60.639
1507.8600, -60.670
1507.8800, -60.629
1507.9000, -60.630
1507.9200, -60.644
1507.9400, -60.618
1507.9600, -60.581
1507.9800, -60.607
1508.0000, -60.585
1508.0200, -60.601
1508.0400, -60.598
1508.0600, -60.567
1508.0800, -60.585
1508.1000, -60.567
1508.1200, -60.551
1508.1400, -60.503
1508.1600, -60.536
1508.1800, -60.498
1508.2000, -60.528
1508.2200, -60.498
1508.2400, -60.529
1508.2600, -60.503
1508.2800, -60.503
1508.3000, -60.505
1508.3200, -60.483
1508.3400, -60.487
1508.3600, -60.468
1508.3800, -60.472
1508.4000, -60.481
1508.4200, -60.431
1508.4400, -60.437
1508.4600, -60.453
1508.4800, -60.429
1508.5000, -60.431
1508.5200, -60.437
1508.5400, -60.426
1508.5600, -60.436
1508.5800, -60.396
1508.6000, -60.387
1508.6200, -60.368
1508.6400, -60.351
1508.6600, -60.363
1508.6800, -60.368
1508.7000, -60.341
1508.7200, -60.330
1508.7400, -60.341
1508.7600, -60.309
1508.7800, -60.336
1508.8000, -60.298
1508.8200, -60.305
1508.8400, -60.298
1508.8600, -60.273
1508.8800, -60.271
1508.9000, -60.250
1508.9200, -60.260
1508.9400, -60.211
1508.9600, -60.242
1508.9800, -60.225
1509.0000, -60.194
1509.0200, -60.228
1509.0400, -60.174
1509.0600, -60.189
1509.0800, -60.200
1509.1000, -60.165
1509.1200, -60.180
1509.1400, -60.139
1509.1600, -60.160
1509.1800, -60.147
1509.2000, -60.152
1509.2200, -60.146
1509.2400, -60.110
1509.2600, -60.098
1509.2800, -60.103
1509.3000, -60.118
1509.3200, -60.081
1509.3400, -60.128
1509.3600, -60.055
1509.3800, -60.086
1509.4000, -60.062
1509.4200, -60.044
1509.4400, -60.063
1509.4600, -60.050
1509.4800, -60.059
1509.5000, -60.044
1509.5200, -60.002
1509.5400, -60.025
1509.5600, -60.015
1509.5800, -60.012
1509.6000, -59.977
1509.6200, -59.947
1509.6400, -59.944
1509.6600, -59.975
1509.6800, -59.952
1509.7000, -59.943
1509.7200, -59.931
1509.7400, -59.949
1509.7600, -59.913
1509.7800, -59.897
1509.8000, -59.894
1509.8200, -59.888
1509.8400, -59.877
1509.8600, -59.834
1509.8800, -59.840
1509.9000, -59.850
1509.9200, -59.837
1509.9400, -59.843
1509.9600, -59.824
1509.9800, -59.815
1510.0000, -59.808
1510.0200, -59.793
1510.0400, -59.795
1510.0600, -59.766
1510.0800, -59.770
1510.1000, -59.744
1510.1200, -59.779
1510.1400, -59.755
1510.1600, -59.732
1510.1800, -59.739
1510.2000, -59.734
1510.2200, -59.709
1510.2400, -59.695
1510.2600, -59.706
1510.2800, -59.690
1510.3000, -59.679
1510.3200, -59.670
1510.3400, -59.661
1510.3600, -59.642
1510.3800, -59.639
1510.4000, -59.642
1510.4200, -59.623
1510.4400, -59.628
1510.4600, -59.583
1510.4800, -59.596
1510.5000, -59.600
1510.5200, -59.555
1510.5400, -59.575
1510.5600, -59.552
1510.5800, -59.540
1510.6000, -59.531
1510.6200, -59.542
1510.6400, -59.517
1510.6600, -59.509
1510.6800, -59.520
1510.7000, -59.492
1510.7200, -59.441
1510.7400, -59.471
1510.7600, -59.439
1510.7800, -59.453
1510.8000, -59.425
1510.8200, -59.395
1510.8400, -59.403
1510.8600, -59.388
1510.8800, -59.387
1510.9000, -59.386
1510.9200, -59.367
1510.9400, -59.350
1510.9600, -59.352
1510.9800, -59.348
1511.0000, -59.331
1511.0200, -59.339
1511.0400, -59.291
1511.0600, -59.286
1511.0800, -59.289
1511.1000, -59.284
1511.1200, -59.264
1511.1400, -59.260
1511.1600, -59.258
1511.1800, -59.238
1511.2000, -59.236
1511.2200, -59.241
1511.2400, -59.227
1511.2600, -59.210
1511.2800, -59.210
1511.3000, -59.189
1511.3200, -59.192
1511.3400, -59.162
1511.3600, -59.180
1511.3800, -59.173
1511.4000, -59.134
1511.4200, -59.132
1511.4400, -59.116
1511.4600, -59.113
1511.4800, -59.078
1511.5000, -59.105
1511.5200, -59.037
1511.5400, -59.079
1511.5600, -59.041
1511.5800, -59.041
1511.6000, -59.031
1511.6200, -59.039
1511.6400, -59.016
1511.6600, -58.999
1511.6800, -58.999
1511.7000, -58.952
1511.7200, -58.980
1511.7400, -58.940
1511.7600, -58.929
1511.7800, -58.921
1511.8000, -58.928
1511.8200, -58.907
1511.8400, -58.895
1511.8600, -58.882
1511.8800, -58.859
1511.9000, -58.849
1511.9200, -58.831
1511.9400, -58.848
1511.9600, -58.833
1511.9800, -58.800
1512.0000, -58.808
1512.0200, -58.807
1512.0400, -58.812
1512.0600, -58.801
1512.0800, -58.796
1512.1000, -58.767
1512.1200, -58.746
1512.1400, -58.738
1512.1600, -58.749
1512.1800, -58.748
1512.2000, -58.713
1512.2200, -58.724
1512.2400, -58.719
1512.2600, -58.696
1512.2800, -58.681
1512.3000, -58.666
1512.3200, -58.663
1512.3400, -58.652
1512.3600, -58.646
1512.3800, -58.644
1512.4000, -58.627
1512.4200, -58.614
1512.4400, -58.614
1512.4600, -58.576
1512.4800, -58.589
1512.5000, -58.574
1512.5200, -58.548
1512.5400, -58.539
1512.5600, -58.540
1512.5800, -58.542
1512.6000, -58.505
1512.6200, -58.515
1512.6400, -58.477
1512.6600, -58.462
1512.6800, -58.475
1512.7000, -58.444
1512.7200, -58.425
1512.7400, -58.431
1512.7600, -58.430
1512.7800, -58.396
1512.8000, -58.391
1512.8200, -58.376
1512.8400, -58.349
1512.8600, -58.359
1512.8800, -58.356
1512.9000, -58.355
1512.9200, -58.325
1512.9400, -58.319
1512.9600, -58.310
1512.9800, -58.303
1513.0000, -58.312
1513.0200, -58.296
1513.0400, -58.283
1513.0600, -58.247
1513.0800, -58.265
1513.1000, -58.244
1513.1200, -58.249
1513.1400, -58.219
1513.1600, -58.214
1513.1800, -58.210
1513.2000, -58.204
1513.2200, -58.201
1513.2400, -58.180
1513.2600, -58.157
1513.2800, -58.160
1513.3000, -58.141
1513.3200, -58.144
1513.3400, -58.094
1513.3600, -58.117
1513.3800, -58.103
1513.4000, -58.079
1513.4200, -58.065
1513.4400, -58.060
1513.4600, -58.043
1513.4800, -58.039
1513.5000, -58.013
1513.5200, -58.018
1513.5400, -57.996
1513.5600, -57.984
1513.5800, -57.956
1513.6000, -57.957
1513.6200, -57.957
1513.6400, -57.922
1513.6600, -57.918
1513.6800, -57.909
1513.7000, -57.895
1513.7200, -57.880
1513.7400, -57.872
1513.7600, -57.859
1513.7800, -57.858
1513.8000, -57.826
1513.8200, -57.835
1513.8400, -57.813
1513.8600, -57.808
1513.8800, -57.783
1513.9000, -57.782
1513.9200, -57.775
1513.9400, -57.787
1513.9600, -57.761
1513.9800, -57.741
1514.0000, -57.732
1514.0200, -57.725
1514.0400, -57.725
1514.0600, -57.712
1514.0800, -57.687
1514.1000, -57.679
1514.1200, -57.673
1514.1400, -57.659
1514.1600, -57.643
1514.1800, -57.649
1514.2000, -57.639
1514.2200, -57.624
1514.2400, -57.599
1514.2600, -57.597
1514.2800, -57.582
1514.3000, -57.560
1514.3200, -57.535
1514.3400, -57.542
1514.3600, -57.510
1514.3800, -57.507
1514.4000, -57.498
1514.4200, -57.493
1514.4400, -57.471
1514.4600, -57.475
1514.4800, -57.447
1514.5000, -57.433
1514.5200, -57.412
1514.5400, -57.396
1514.5600, -57.401
1514.5800, -57.375
1514.6000, -57.355
1514.6200, -57.349
1514.6400, -57.350
1514.6600, -57.319
1514.6800, -57.312
1514.7000, -57.298
1514.7200, -57.284
1514.7400, -57.272
1514.7600, -57.262
1514.7800, -57.231
1514.8000, -57.235
1514.8200, -57.233
1514.8400, -57.215
1514.8600, -57.217
1514.8800, -57.216
1514.9000, -57.188
1514.9200, -57.174
1514.9400, -57.164
1514.9600, -57.142
1514.9800, -57.138
1515.0000, -57.143
1515.0200, -57.128
1515.0400, -57.106
1515.0600, -57.090
1515.0800, -57.072
1515.1000, -57.082
1515.1200, -57.061
1515.1400, -57.055
1515.1600, -57.051
1515.1800, -57.025
1515.2000, -57.004
1515.2200, -56.979
1515.2400, -56.980
1515.2600, -56.959
1515.2800, -56.941
1515.3000, -56.927
1515.3200, -56.915
1515.3400, -56.900
1515.3600, -56.902
1515.3800, -56.880
1515.4000, -56.868
1515.4200, -56.866
1515.4400, -56.817
1515.4600, -56.824
1515.4800, -56.784
1515.5000, -56.796
1515.5200, -56.771
1515.5400, -56.741
1515.5600, -56.739
1515.5800, -56.736
1515.6000, -56.703
1515.6200, -56.708
1515.6400, -56.701
1515.6600, -56.686
1515.6800, -56.655
1515.7000, -56.647
1515.7200, -56.646
1515.7400, -56.609
1515.7600, -56.601
1515.7800, -56.589
1515.8000, -56.589
1515.8200, -56.594
1515.8400, -56.557
1515.8600, -56.557
1515.8800, -56.538
1515.9000, -56.521
1515.9200, -56.503
1515.9400, -56.490
1515.9600, -56.503
1515.9800, -56.482
1516.0000, -56.459
1516.0200, -56.437
1516.0400, -56.430
1516.0600, -56.426
1516.0800, -56.411
1516.1000, -56.401
1516.1200, -56.405
1516.1400, -56.355
1516.1600, -56.342
1516.1800, -56.320
1516.2000, -56.307
1516.2200, -56.282
1516.2400, -56.287
1516.2600, -56.257
1516.2800, -56.245
1516.3000, -56.241
1516.3200, -56.232
1516.3400, -56.212
1516.3600, -56.212
1516.3800, -56.173
1516.4000, -56.153
1516.4200, -56.133
1516.4400, -56.117
1516.4600, -56.111
1516.4800, -56.082
1516.5000, -56.057
1516.5200, -56.054
1516.5400, -56.047
1516.5600, -56.026
1516.5800, -56.026
1516.6000, -56.004
1516.6200, -55.981
1516.6400, -55.963
1516.6600, -55.949
1516.6800, -55.920
1516.7000, -55.914
1516.7200, -55.901
1516.7400, -55.881
1516.7600, -55.874
1516.7800, -55.868
1516.8000, -55.860
1516.8200, -55.826
1516.8400, -55.816
1516.8600, -55.810
1516.8800, -55.791
1516.9000, -55.784
1516.9200, -55.770
1516.9400, -55.761
1516.9600, -55.730
1516.9800, -55.727
1517.0000, -55.709
1517.0200, -55.687
1517.0400, -55.682
1517.0600, -55.684
1517.0800, -55.637
1517.1000, -55.606
1517.1200, -55.590
1517.1400, -55.576
1517.1600, -55.570
1517.1800, -55.537
1517.2000, -55.523
1517.2200, -55.498
1517.2400, -55.494
1517.2600, -55.477
1517.2800, -55.451
1517.3000, -55.468
1517.3200, -55.428
1517.3400, -55.403
1517.3600, -55.381
1517.3800, -55.348
1517.4000, -55.334
1517.4200, -55.306
1517.4400, -55.291
1517.4600, -55.293
1517.4800, -55.286
1517.5000, -55.248
1517.5200, -55.238
1517.5400, -55.220
1517.5600, -55.210
1517.5800, -55.194
1517.6000, -55.175
1517.6200, -55.143
1517.6400, -55.132
1517.6600, -55.110
1517.6800, -55.090
1517.7000, -55.099
1517.7200, -55.079
1517.7400, -55.042
1517.7600, -55.027
1517.7800, -55.018
1517.8000, -54.997
1517.8200, -54.970
1517.8400, -54.956
1517.8600, -54.956
1517.8800, -54.940
1517.9000, -54.929
1517.9200, -54.899
1517.9400, -54.887
1517.9600, -54.862
1517.9800, -54.834
1518.0000, -54.822
1518.0200, -54.790
1518.0400, -54.768
1518.0600, -54.755
1518.0800, -54.735
1518.1000, -54.717
1518.1200, -54.697
1518.1400, -54.683
1518.1600, -54.658
1518.1800, -54.650
1518.2000, -54.624
1518.2200, -54.602
1518.2400, -54.602
1518.2600, -54.562
1518.2800, -54.538
1518.3000, -54.517
1518.3200, -54.476
1518.3400, -54.475
1518.3600, -54.452
1518.3800, -54.419
1518.4000, -54.416
1518.4200, -54.385
1518.4400, -54.368
1518.4600, -54.359
1518.4800, -54.327
1518.5000, -54.309
1518.5200, -54.284
1518.5400, -54.268
1518.5600, -54.238
1518.5800, -54.214
1518.6000, -54.192
1518.6200, -54.175
1518.6400, -54.171
1518.6600, -54.164
1518.6800, -54.144
1518.7000, -54.101
1518.7200, -54.098
1518.7400, -54.061
1518.7600, -54.051
1518.7800, -54.031
1518.8000, -54.014
1518.8200, -54.004
1518.8400, -53.986
1518.8600, -53.974
1518.8800, -53.947
1518.9000, -53.904
1518.9200, -53.887
1518.9400, -53.891
1518.9600, -53.856
1518.9800, -53.810
1519.0000, -53.795
1519.0200, -53.766
1519.0400, -53.762
1519.0600, -53.736
1519.0800, -53.702
1519.1000, -53.683
1519.1200, -53.651
1519.1400, -53.639
1519.1600, -53.610
1519.1800, -53.610
1519.2000, -53.556
1519.2200, -53.526
1519.2400, -53.501
1519.2600, -53.482
1519.2800, -53.470
1519.3000, -53.447
1519.3200, -53.403
1519.3400, -53.378
1519.3600, -53.359
1519.3800, -53.331
1519.4000, -53.306
1519.4200, -53.280
1519.4400, -53.266
1519.4600, -53.227
1519.4800, -53.209
1519.5000, -53.179
1519.5200, -53.163
1519.5400, -53.155
1519.5600, -53.103
1519.5800, -53.084
1519.6000, -53.078
1519.6200, -53.052
1519.6400, -53.031
1519.6600, -52.992
1519.6800, -52.965
1519.7000, -52.950
1519.7200, -52.940
1519.7400, -52.929
1519.7600, -52.905
1519.7800, -52.869
1519.8000, -52.847
1519.8200, -52.837
1519.8400, -52.802
1519.8600, -52.789
1519.8800, -52.738
1519.9000, -52.701
1519.9200, -52.658
1519.9400, -52.638
1519.9600, -52.625
1519.9800, -52.576
1520.0000, -52.574
1520.0200, -52.543
1520.0400, -52.518
1520.0600, -52.501
1520.0800, -52.469
1520.1000, -52.441
1520.1200, -52.401
1520.1400, -52.362
1520.1600, -52.324
1520.1800, -52.294
1520.2000, -52.275
1520.2200, -52.257
1520.2400, -52.219
1520.2600, -52.196
1520.2800, -52.169
1520.3000, -52.143
1520.3200, -52.120
1520.3400, -52.090
1520.3600, -52.059
1520.3800, -52.037
1520.4000, -52.004
1520.4200, -51.971
1520.4400, -51.942
1520.4600, -51.913
1520.4800, -51.882
1520.5000, -51.845
1520.5200, -51.822
1520.5400, -51.805
1520.5600, -51.790
1520.5800, -51.744
1520.6000, -51.717
1520.6200, -51.679
1520.6400, -51.656
1520.6600, -51.635
1520.6800, -51.622
1520.7000, -51.594
1520.7200, -51.555
1520.7400, -51.539
1520.7600, -51.506
1520.7800, -51.457
1520.8000, -51.419
1520.8200, -51.391
1520.8400, -51.354
1520.8600, -51.324
1520.8800, -51.276
1520.9000, -51.249
1520.9200, -51.216
1520.9400, -51.200
1520.9600, -51.164
1520.9800, -51.142
1521.0000, -51.110
1521.0200, -51.075
1521.0400, -51.039
1521.0600, -50.998
1521.0800, -50.949
1521.1000, -50.922
1521.1200, -50.874
1521.1400, -50.838
1521.1600, -50.820
1521.1800, -50.790
1521.2000, -50.758
1521.2200, -50.734
1521.2400, -50.696
1521.2600, -50.667
1521.2800, -50.629
1521.3000, -50.592
1521.3200, -50.565
1521.3400, -50.531
1521.3600, -50.504
1521.3800, -50.459
1521.4000, -50.428
1521.4200, -50.386
1521.4400, -50.353
1521.4600, -50.320
1521.4800, -50.308
1521.5000, -50.280
1521.5200, -50.233
1521.5400, -50.198
1521.5600, -50.170
1521.5800, -50.144
1521.6000, -50.113
1521.6200, -50.091
1521.6400, -50.057
1521.6600, -50.012
1521.6800, -49.992
1521.7000, -49.955
1521.7200, -49.915
1521.7400, -49.879
1521.7600, -49.850
1521.7800, -49.805
1521.8000, -49.772
1521.8200, -49.717
1521.8400, -49.668
1521.8600, -49.640
1521.8800, -49.604
1521.9000, -49.584
1521.9200, -49.556
1521.9400, -49.522
1521.9600, -49.484
1521.9800, -49.443
1522.0000, -49.402
1522.0200, -49.353
1522.0400, -49.339
1522.0600, -49.278
1522.0800, -49.242
1522.1000, -49.217
1522.1200, -49.175
1522.1400, -49.141
1522.1600, -49.115
1522.1800, -49.069
1522.2000, -49.037
1522.2200, -48.996
1522.2400, -48.961
1522.2600, -48.931
1522.2800, -48.895
1522.3000, -48.855
1522.3200, -48.815
1522.3400, -48.780
1522.3600, -48.752
1522.3800, -48.710
1522.4000, -48.685
1522.4200, -48.656
1522.4400, -48.622
1522.4600, -48.573
1522.4800, -48.529
1522.5000, -48.506
1522.5200, -48.468
1522.5400, -48.443
1522.5600, -48.424
1522.5800, -48.375
1522.6000, -48.341
1522.6200, -48.318
1522.6400, -48.264
1522.6600, -48.222
1522.6800, -48.196
1522.7000, -48.149
1522.7200, -48.106
1522.7400, -48.080
1522.7600, -48.026
1522.7800, -47.979
1522.8000, -47.945
1522.8200, -47.913
1522.8400, -47.890
1522.8600, -47.856
1522.8800, -47.822
1522.9000, -47.782
1522.9200, -47.747
1522.9400, -47.694
1522.9600, -47.665
1522.9800, -47.620
1523.0000, -47.560
1523.0200, -47.542
1523.0400, -47.510
1523.0600, -47.471
1523.0800, -47.439
1523.1000, -47.412
1523.1200, -47.366
1523.1400, -47.329
1523.1600, -47.288
1523.1800, -47.257
1523.2000, -47.223
1523.2200, -47.194
1523.2400, -47.149
1523.2600, -47.108
1523.2800, -47.076
1523.3000, -47.026
1523.3200, -47.001
1523.3400, -46.971
1523.3600, -46.950
1523.3800, -46.912
1523.4000, -46.857
1523.4200, -46.834
1523.4400, -46.805
1523.4600, -46.770
1523.4800, -46.749
1523.5000, -46.715
1523.5200, -46.677
1523.5400, -46.645
1523.5600, -46.617
1523.5800, -46.568
1523.6000, -46.519
1523.6200, -46.497
1523.6400, -46.452
1523.6600, -46.412
1523.6800, -46.377
1523.7000, -46.343
1523.7200, -46.299
1523.7400, -46.277
1523.7600, -46.237
1523.7800, -46.210
1523.8000, -46.177
1523.8200, -46.143
1523.8400, -46.103
1523.8600, -46.059
1523.8800, -46.013
1523.9000, -45.988
1523.9200, -45.949
1523.9400, -45.906
1523.9600, -45.876
1523.9800, -45.832
1524.0000, -45.802
1524.0200, -45.774
1524.0400, -45.737
1524.0600, -45.704
1524.0800, -45.666
1524.1000, -45.625
1524.1200, -45.584
1524.1400, -45.556
1524.1600, -45.530
1524.1800, -45.486
1524.2000, -45.454
1524.2200, -45.426
1524.2400, -45.373
1524.2600, -45.361
1524.2800, -45.338
1524.3000, -45.304
1524.3200, -45.265
1524.3400, -45.221
1524.3600, -45.188
1524.3800, -45.165
1524.4000, -45.141
1524.4200, -45.121
1524.4400, -45.087
1524.4600, -45.041
1524.4800, -45.021
1524.5000, -44.979
1524.5200, -44.943
1524.5400, -44.889
1524.5600, -44.869
1524.5800, -44.840
1524.6000, -44.803
1524.6200, -44.763
1524.6400, -44.737
1524.6600, -44.695
1524.6800, -44.675
1524.7000, -44.645
1524.7200, -44.606
1524.7400, -44.573
1524.7600, -44.528
1524.7800, -44.499
1524.8000, -44.460
1524.8200, -44.410
1524.8400, -44.378
1524.8600, -44.342
1524.8800, -44.301
1524.9000, -44.282
1524.9200, -44.235
1524.9400, -44.202
1524.9600, -44.185
1524.9800, -44.136
1525.0000, -44.106
1525.0200, -44.061
1525.0400, -44.036
1525.0600, -44.003
1525.0800, -43.976
1525.1000, -43.935
1525.1200, -43.900
1525.1400, -43.879
1525.1600, -43.847
1525.1800, -43.818
1525.2000, -43.799
1525.2200, -43.763
1525.2400, -43.733
1525.2600, -43.699
1525.2800, -43.673
1525.3000, -43.641
1525.3200, -43.623
1525.3400, -43.588
1525.3600, -43.563
1525.3800, -43.530
1525.4000, -43.498
1525.4200, -43.467
1525.4400, -43.423
1525.4600, -43.394
1525.4800, -43.396
1525.5000, -43.337
1525.5200, -43.271
1525.5400, -43.244
1525.5600, -43.217
1525.5800, -43.185
1525.6000, -43.153
1525.6200, -43.125
1525.6400, -43.086
1525.6600, -43.056
1525.6800, -43.030
1525.7000, -42.986
1525.7200, -42.984
1525.7400, -42.934
1525.7600, -42.885
1525.7800, -42.849
1525.8000, -42.803
1525.8200, -42.775
1525.8400, -42.736
1525.8600, -42.697
1525.8800, -42.672
1525.9000, -42.628
1525.9200, -42.602
1525.9400, -42.574
1525.9600, -42.538
1525.9800, -42.512
1526.0000, -42.481
1526.0200, -42.456
1526.0400, -42.415
1526.0600, -42.377
1526.0800, -42.345
1526.1000, -42.313
1526.1200, -42.306
1526.1400, -42.279
1526.1600, -42.250
1526.1800, -42.210
1526.2000, -42.180
1526.2200, -42.149
1526.2400, -42.121
1526.2600, -42.078
1526.2800, -42.072
1526.3000, -42.053
1526.3200, -42.025
1526.3400, -41.993
1526.3600, -41.956
1526.3800, -41.906
1526.4000, -41.871
1526.4200, -41.855
1526.4400, -41.806
1526.4600, -41.770
1526.4800, -41.758
1526.5000, -41.721
1526.5200, -41.689
1526.5400, -41.656
1526.5600, -41.616
1526.5800, -41.593
1526.6000, -41.575
1526.6200, -41.534
1526.6400, -41.496
1526.6600, -41.508
1526.6800, -41.446
1526.7000, -41.399
1526.7200, -41.370
1526.7400, -41.330
1526.7600, -41.300
1526.7800, -41.260
1526.8000, -41.224
1526.8200, -41.204
1526.8400, -41.169
1526.8600, -41.130
1526.8800, -41.088
1526.9000, -41.060
1526.9200, -41.037
1526.9400, -41.019
1526.9600, -40.973
1526.9800, -40.931
1527.0000, -40.905
1527.0200, -40.871
1527.0400, -40.845
1527.0600, -40.819
1527.0800, -40.813
1527.1000, -40.778
1527.1200, -40.747
1527.1400, -40.718
1527.1600, -40.691
1527.1800, -40.668
1527.2000, -40.613
1527.2200, -40.610
1527.2400, -40.588
1527.2600, -40.567
1527.2800, -40.531
1527.3000, -40.490
1527.3200, -40.454
1527.3400, -40.476
1527.3600, -40.423
1527.3800, -40.360
1527.4000, -40.337
1527.4200, -40.296
1527.4400, -40.272
1527.4600, -40.230
1527.4800, -40.197
1527.5000, -40.158
1527.5200, -40.123
1527.5400, -40.094
1527.5600, -40.060
1527.5800, -40.062
1527.6000, -40.042
1527.6200, -39.974
1527.6400, -39.937
1527.6600, -39.889
1527.6800, -39.863
1527.7000, -39.837
1527.7200, -39.780
1527.7400, -39.760
1527.7600, -39.718
1527.7800, -39.694
1527.8000, -39.653
1527.8200, -39.608
1527.8400, -39.596
1527.8600, -39.569
1527.8800, -39.546
1527.9000, -39.497
1527.9200, -39.473
1527.9400, -39.444
1527.9600, -39.410
1527.9800, -39.433
1528.0000, -39.378
1528.0200, -39.349
1528.0400, -39.306
1528.0600, -39.278
1528.0800, -39.248
1528.1000, -39.217
1528.1200, -39.206
1528.1400, -39.174
1528.1600, -39.156
1528.1800, -39.127
1528.2000, -39.096
1528.2200, -39.062
1528.2400, -39.007
1528.2600, -38.984
1528.2800, -38.957
1528.3000, -38.910
1528.3200, -38.877
1528.3400, -38.874
1528.3600, -38.849
1528.3800, -38.794
1528.4000, -38.791
1528.4200, -38.739
1528.4400, -38.716
1528.4600, -38.688
1528.4800, -38.652
1528.5000, -38.643
1528.5200, -38.609
1528.5400, -38.533
1528.5600, -38.529
1528.5800, -38.494
1528.6000, -38.473
1528.6200, -38.455
1528.6400, -38.403
1528.6600, -38.364
1528.6800, -38.350
1528.7000, -38.303
1528.7200, -38.281
1528.7400, -38.239
1528.7600, -38.214
1528.7800, -38.181
1528.8000, -38.175
1528.8200, -38.122
1528.8400, -38.096
1528.8600, -38.083
1528.8800, -38.042
1528.9000, -38.053
1528.9200, -38.033
1528.9400, -37.987
1528.9600, -37.949
1528.9800, -37.922
1529.0000, -37.892
1529.0200, -37.872
1529.0400, -37.882
1529.0600, -37.816
1529.0800, -37.794
1529.1000, -37.757
1529.1200, -37.729
1529.1400, -37.716
1529.1600, -37.687
1529.1800, -37.646
1529.2000, -37.675
1529.2200, -37.626
1529.2400, -37.542
1529.2600, -37.507
1529.2800, -37.496
1529.3000, -37.438
1529.3200, -37.439
1529.3400, -37.385
1529.3600, -37.376
1529.3800, -37.354
1529.4000, -37.314
1529.4200, -37.287
1529.4400, -37.291
1529.4600, -37.238
1529.4800, -37.198
1529.5000, -37.182
1529.5200, -37.129
1529.5400, -37.123
1529.5600, -37.094
1529.5800, -37.030
1529.6000, -37.035
1529.6200, -36.977
1529.6400, -36.959
1529.6600, -36.948
1529.6800, -36.919
1529.7000, -36.874
1529.7200, -36.864
1529.7400, -36.822
1529.7600, -36.790
1529.7800, -36.779
1529.8000, -36.731
1529.8200, -36.718
1529.8400, -36.713
1529.8600, -36.710
1529.8800, -36.676
1529.9000, -36.627
1529.9200, -36.597
1529.9400, -36.559
1529.9600, -36.558
1529.9800, -36.537
1530.0000, -36.521
1530.0200, -36.483
1530.0400, -36.459
1530.0600, -36.456
1530.0800, -36.439
1530.1000, -36.376
1530.1200, -36.401
1530.1400, -36.333
1530.1600, -36.270
1530.1800, -36.268
1530.2000, -36.261
1530.2200, -36.217
1530.2400, -36.174
1530.2600, -36.164
1530.2800, -36.177
1530.3000, -36.166
1530.3200, -36.153
1530.3400, -36.105
1530.3600, -36.101
1530.3800, -36.031
1530.4000, -35.944
1530.4200, -35.915
1530.4400, -35.885
1530.4600, -35.857
1530.4800, -35.883
1530.5000, -35.837
1530.5200, -35.834
1530.5400, -35.809
1530.5600, -35.768
1530.5800, -35.736
1530.6000, -35.703
1530.6200, -35.695
1530.6400, -35.669
1530.6600, -35.656
1530.6800, -35.609
1530.7000, -35.566
1530.7200, -35.551
1530.7400, -35.535
1530.7600, -35.561
1530.7800, -35.575
1530.8000, -35.573
1530.8200, -35.523
1530.8400, -35.505
1530.8600, -35.483
1530.8800, -35.503
1530.9000, -35.478
1530.9200, -35.482
1530.9400, -35.453
1530.9600, -35.437
1530.9800, -35.447
1531.0000, -35.425
1531.0200, -35.407
1531.0400, -35.414
1531.0600, -35.371
1531.0800, -35.312
1531.1000, -35.335
1531.1200, -35.277
1531.1400, -35.213
1531.1600, -35.208
1531.1800, -35.190
1531.2000, -35.191
1531.2200, -35.174
1531.2400, -35.177
1531.2600, -35.116
1531.2800, -35.109
1531.3000, -35.068
1531.3200, -35.017
1531.3400, -35.027
1531.3600, -34.976
1531.3800, -34.984
1531.4000, -34.941
1531.4200, -34.926
1531.4400, -34.903
1531.4600, -34.947
1531.4800, -34.899
1531.5000, -34.889
1531.5200, -34.870
1531.5400, -34.880
1531.5600, -34.873
1531.5800, -34.883
1531.6000, -34.842
1531.6200, -34.831
1531.6400, -34.854
1531.6600, -34.822
1531.6800, -34.857
1531.7000, -34.820
1531.7200, -34.868
1531.7400, -34.825
1531.7600, -34.836
1531.7800, -34.817
1531.8000, -34.871
1531.8200, -34.817
1531.8400, -34.844
1531.8600, -34.820
1531.8800, -34.811
1531.9000, -34.823
1531.9200, -34.832
1531.9400, -34.819
1531.9600, -34.862
1531.9800, -34.880
1532.0000, -34.828
1532.0200, -34.869
1532.0400, -34.858
1532.0600, -34.791
1532.0800, -34.830
1532.1000, -34.838
1532.1200, -34.838
1532.1400, -34.853
1532.1600, -34.895
1532.1800, -34.858
1532.2000, -34.881
1532.2200, -34.886
1532.2400, -34.850
1532.2600, -34.872
1532.2800, -34.792
1532.3000, -34.857
1532.3200, -34.848
1532.3400, -34.819
1532.3600, -34.836
1532.3800, -34.864
1532.4000, -34.863
1532.4200, -34.872
1532.4400, -34.873
1532.4600, -34.881
1532.4800, -34.874
1532.5000, -34.908
1532.5200, -34.871
1532.5400, -34.890
1532.5600, -34.888
1532.5800, -34.937
1532.6000, -35.002
1532.6200, -35.008
1532.6400, -34.985
1532.6600, -34.980
1532.6800, -34.975
1532.7000, -34.993
1532.7200, -35.026
1532.7400, -35.054
1532.7600, -35.056
1532.7800, -35.052
1532.8000, -35.066
1532.8200, -35.062
1532.8400, -35.100
1532.8600, -35.125
1532.8800, -35.151
1532.9000, -35.203
1532.9200, -35.173
1532.9400, -35.159
1532.9600, -35.209
1532.9800, -35.170
1533.0000, -35.234
1533.0200, -35.251
1533.0400, -35.238
1533.0600, -35.256
1533.0800, -35.318
1533.1000, -35.317
1533.1200, -35.353
1533.1400, -35.375
1533.1600, -35.359
1533.1800, -35.379
1533.2000, -35.343
1533.2200, -35.402
1533.2400, -35.416
1533.2600, -35.399
1533.2800, -35.430
1533.3000, -35.484
1533.3200, -35.461
1533.3400, -35.523
1533.3600, -35.556
1533.3800, -35.572
1533.4000, -35.586
1533.4200, -35.645
1533.4400, -35.655
1533.4600, -35.685
1533.4800, -35.759
1533.5000, -35.771
1533.5200, -35.818
1533.5400, -35.851
1533.5600, -35.895
1533.5800, -35.921
1533.6000, -35.985
1533.6200, -36.041
1533.6400, -36.090
1533.6600, -36.136
1533.6800, -36.157
1533.7000, -36.162
1533.7200, -36.202
1533.7400, -36.220
1533.7600, -36.309
1533.7800, -36.349
1533.8000, -36.395
1533.8200, -36.442
1533.8400, -36.434
1533.8600, -36.457
1533.8800, -36.526
1533.9000, -36.515
1533.9200, -36.589
1533.9400, -36.627
1533.9600, -36.629
1533.9800, -36.661
1534.0000, -36.704
1534.0200, -36.738
1534.0400, -36.796
1534.0600, -36.861
1534.0800, -36.819
1534.1000, -36.873
1534.1200, -36.884
1534.1400, -36.948
1534.1600, -36.999
1534.1800, -37.001
1534.2000, -37.025
1534.2200, -37.095
1534.2400, -37.092
1534.2600, -37.149
1534.2800, -37.204
1534.3000, -37.236
1534.3200, -37.205
1534.3400, -37.315
1534.3600, -37.325
1534.3800, -37.378
1534.4000, -37.442
1534.4200, -37.474
1534.4400, -37.524
1534.4600, -37.571
1534.4800, -37.603
1534.5000, -37.635
1534.5200, -37.689
1534.5400, -37.738
1534.5600, -37.786
1534.5800, -37.821
1534.6000, -37.867
1534.6200, -37.870
1534.6400, -37.932
1534.6600, -37.937
1534.6800, -38.013
1534.7000, -38.056
1534.7200, -38.106
1534.7400, -38.158
1534.7600, -38.165
1534.7800, -38.187
1534.8000, -38.252
1534.8200, -38.257
1534.8400, -38.313
1534.8600, -38.367
1534.8800, -38.377
1534.9000, -38.410
1534.9200, -38.480
1534.9400, -38.499
1534.9600, -38.559
1534.9800, -38.591
1535.0000, -38.597
1535.0200, -38.664
1535.0400, -38.703
1535.0600, -38.736
1535.0800, -38.786
1535.1000, -38.790
1535.1200, -38.815
1535.1400, -38.860
1535.1600, -38.905
1535.1800, -38.952
1535.2000, -39.000
1535.2200, -39.032
1535.2400, -39.046
1535.2600, -39.114
1535.2800, -39.130
1535.3000, -39.199
1535.3200, -39.252
1535.3400, -39.282
1535.3600, -39.330
1535.3800, -39.364
1535.4000, -39.403
1535.4200, -39.436
1535.4400, -39.492
1535.4600, -39.535
1535.4800, -39.578
1535.5000, -39.627
1535.5200, -39.672
1535.5400, -39.686
1535.5600, -39.723
1535.5800, -39.758
1535.6000, -39.827
1535.6200, -39.867
1535.6400, -39.906
1535.6600, -39.953
1535.6800, -39.968
1535.7000, -40.002
1535.7200, -40.050
1535.7400, -40.081
1535.7600, -40.116
1535.7800, -40.168
1535.8000, -40.193
1535.8200, -40.210
1535.8400, -40.268
1535.8600, -40.269
1535.8800, -40.344
1535.9000, -40.367
1535.9200, -40.385
1535.9400, -40.424
1535.9600, -40.427
1535.9800, -40.487
1536.0000, -40.540
1536.0200, -40.544
1536.0400, -40.572
1536.0600, -40.610
1536.0800, -40.638
1536.1000, -40.685
1536.1200, -40.725
1536.1400, -40.754
1536.1600, -40.756
1536.1800, -40.822
1536.2000, -40.830
1536.2200, -40.879
1536.2400, -40.926
1536.2600, -40.955
1536.2800, -41.004
1536.3000, -41.030
1536.3200, -41.058
1536.3400, -41.086
1536.3600, -41.127
1536.3800, -41.158
1536.4000, -41.206
1536.4200, -41.233
1536.4400, -41.265
1536.4600, -41.259
1536.4800, -41.291
1536.5000, -41.349
1536.5200, -41.391
1536.5400, -41.415
1536.5600, -41.445
1536.5800, -41.473
1536.6000, -41.475
1536.6200, -41.510
1536.6400, -41.531
1536.6600, -41.546
1536.6800, -41.589
1536.7000, -41.613
1536.7200, -41.626
1536.7400, -41.653
1536.7600, -41.692
1536.7800, -41.718
1536.8000, -41.759
1536.8200, -41.769
1536.8400, -41.795
1536.8600, -41.814
1536.8800, -41.813
1536.9000, -41.861
1536.9200, -41.899
1536.9400, -41.895
1536.9600, -41.928
1536.9800, -41.954
1537.0000, -41.957
1537.0200, -42.004
1537.0400, -42.028
1537.0600, -42.028
1537.0800, -42.058
1537.1000, -42.088
1537.1200, -42.102
1537.1400, -42.131
1537.1600, -42.170
1537.1800, -42.186
1537.2000, -42.218
1537.2200, -42.247
1537.2400, -42.257
1537.2600, -42.280
1537.2800, -42.318
1537.3000, -42.331
1537.3200, -42.370
1537.3400, -42.386
1537.3600, -42.390
1537.3800, -42.424
1537.4000, -42.445
1537.4200, -42.472
1537.4400, -42.493
1537.4600, -42.516
1537.4800, -42.547
1537.5000, -42.554
1537.5200, -42.555
1537.5400, -42.565
1537.5600, -42.582
1537.5800, -42.594
1537.6000, -42.628
1537.6200, -42.655
1537.6400, -42.652
1537.6600, -42.662
1537.6800, -42.672
1537.7000, -42.705
1537.7200, -42.724
1537.7400, -42.734
1537.7600, -42.741
1537.7800, -42.749
1537.8000, -42.761
1537.8200, -42.797
1537.8400, -42.812
1537.8600, -42.807
1537.8800, -42.826
1537.9000, -42.837
1537.9200, -42.862
1537.9400, -42.882
1537.9600, -42.895
1537.9800, -42.893
1538.0000, -42.924
1538.0200, -42.921
1538.0400, -42.936
1538.0600, -42.958
1538.0800, -42.987
1538.1000, -42.991
1538.1200, -43.023
1538.1400, -43.033
1538.1600, -43.039
1538.1800, -43.053
1538.2000, -43.064
1538.2200, -43.092
1538.2400, -43.116
1538.2600, -43.118
1538.2800, -43.134
1538.3000, -43.139
1538.3200, -43.115
1538.3400, -43.163
1538.3600, -43.174
1538.3800, -43.189
1538.4000, -43.217
1538.4200, -43.206
1538.4400, -43.200
1538.4600, -43.226
1538.4800, -43.212
1538.5000, -43.229
1538.5200, -43.249
1538.5400, -43.244
1538.5600, -43.244
1538.5800, -43.277
1538.6000, -43.276
1538.6200, -43.292
1538.6400, -43.317
1538.6600, -43.303
1538.6800, -43.311
1538.7000, -43.290
1538.7200, -43.305
1538.7400, -43.326
1538.7600, -43.315
1538.7800, -43.317
1538.8000, -43.350
1538.8200, -43.315
1538.8400, -43.348
1538.8600, -43.359
1538.8800, -43.360
1538.9000, -43.358
1538.9200, -43.383
1538.9400, -43.369
1538.9600, -43.377
1538.9800, -43.400
1539.0000, -43.395
1539.0200, -43.420
1539.0400, -43.416
1539.0600, -43.417
1539.0800, -43.422
1539.1000, -43.429
1539.1200, -43.442
1539.1400, -43.458
1539.1600, -43.468
1539.1800, -43.467
1539.2000, -43.460
1539.2200, -43.465
1539.2400, -43.476
1539.2600, -43.476
1539.2800, -43.489
1539.3000, -43.507
1539.3200, -43.518
1539.3400, -43.501
1539.3600, -43.491
1539.3800, -43.506
1539.4000, -43.491
1539.4200, -43.513
1539.4400, -43.513
1539.4600, -43.499
1539.4800, -43.505
1539.5000, -43.527
1539.5200, -43.516
1539.5400, -43.531
1539.5600, -43.532
1539.5800, -43.526
1539.6000, -43.520
1539.6200, -43.505
1539.6400, -43.534
1539.6600, -43.521
1539.6800, -43.510
1539.7000, -43.521
1539.7200, -43.523
1539.7400, -43.506
1539.7600, -43.520
1539.7800, -43.520
1539.8000, -43.524
1539.8200, -43.535
1539.8400, -43.532
1539.8600, -43.529
1539.8800, -43.534
1539.9000, -43.527
1539.9200, -43.539
1539.9400, -43.565
1539.9600, -43.562
1539.9800, -43.558
1540.0000, -43.552
1540.0200, -43.553
1540.0400, -43.557
1540.0600, -43.583
1540.0800, -43.569
1540.1000, -43.573
1540.1200, -43.556
1540.1400, -43.575
1540.1600, -43.575
1540.1800, -43.572
1540.2000, -43.578
1540.2200, -43.597
1540.2400, -43.582
1540.2600, -43.574
1540.2800, -43.571
1540.3000, -43.555
1540.3200, -43.556
1540.3400, -43.555
1540.3600, -43.546
1540.3800, -43.544
1540.4000, -43.549
1540.4200, -43.545
1540.4400, -43.543
1540.4600, -43.560
1540.4800, -43.536
1540.5000, -43.519
1540.5200, -43.516
1540.5400, -43.517
1540.5600, -43.522
1540.5800, -43.516
1540.6000, -43.505
1540.6200, -43.523
1540.6400, -43.507
1540.6600, -43.503
1540.6800, -43.491
1540.7000, -43.492
1540.7200, -43.496
1540.7400, -43.508
1540.7600, -43.495
1540.7800, -43.489
1540.8000, -43.495
1540.8200, -43.491
1540.8400, -43.481
1540.8600, -43.489
1540.8800, -43.500
1540.9000, -43.493
1540.9200, -43.490
1540.9400, -43.490
1540.9600, -43.492
1540.9800, -43.501
1541.0000, -43.492
1541.0200, -43.493
1541.0400, -43.486
1541.0600, -43.488
1541.0800, -43.484
1541.1000, -43.477
1541.1200, -43.478
1541.1400, -43.486
1541.1600, -43.460
1541.1800, -43.467
1541.2000, -43.458
1541.2200, -43.455
1541.2400, -43.451
1541.2600, -43.438
1541.2800, -43.447
1541.3000, -43.438
1541.3200, -43.453
1541.3400, -43.429
1541.3600, -43.433
1541.3800, -43.416
1541.4000, -43.408
1541.4200, -43.418
1541.4400, -43.401
1541.4600, -43.391
1541.4800, -43.388
1541.5000, -43.386
1541.5200, -43.387
1541.5400, -43.387
1541.5600, -43.371
1541.5800, -43.359
1541.6000, -43.354
1541.6200, -43.352
1541.6400, -43.356
1541.6600, -43.365
1541.6800, -43.354
1541.7000, -43.342
1541.7200, -43.339
1541.7400, -43.334
1541.7600, -43.358
1541.7800, -43.347
1541.8000, -43.352
1541.8200, -43.341
1541.8400, -43.347
1541.8600, -43.327
1541.8800, -43.335
1541.9000, -43.341
1541.9200, -43.341
1541.9400, -43.327
1541.9600, -43.321
1541.9800, -43.330
1542.0000, -43.322
1542.0200, -43.317
1542.0400, -43.316
1542.0600, -43.290
1542.0800, -43.276
1542.1000, -43.300
1542.1200, -43.300
1542.1400, -43.291
1542.1600, -43.274
1542.1800, -43.283
1542.2000, -43.283
1542.2200, -43.283
1542.2400, -43.272
1542.2600, -43.261
1542.2800, -43.271
1542.3000, -43.251
1542.3200, -43.241
1542.3400, -43.229
1542.3600, -43.226
1542.3800, -43.225
1542.4000, -43.222
1542.4200, -43.203
1542.4400, -43.217
1542.4600, -43.190
1542.4800, -43.190
1542.5000, -43.184
1542.5200, -43.183
1542.5400, -43.171
1542.5600, -43.184
1542.5800, -43.168
1542.6000, -43.165
1542.6200, -43.160
1542.6400, -43.156
1542.6600, -43.168
1542.6800, -43.169
1542.7000, -43.168
1542.7200, -43.162
1542.7400, -43.158
1542.7600, -43.150
1542.7800, -43.158
1542.8000, -43.162
1542.8200, -43.152
1542.8400, -43.150
1542.8600, -43.145
1542.8800, -43.140
1542.9000, -43.139
1542.9200, -43.134
1542.9400, -43.127
1542.9600, -43.108
1542.9800, -43.101
1543.0000, -43.103
1543.0200, -43.104
1543.0400, -43.115
1543.0600, -43.089
1543.0800, -43.083
1543.1000, -43.091
1543.1200, -43.070
1543.1400, -43.082
1543.1600, -43.069
1543.1800, -43.068
1543.2000, -43.072
1543.2200, -43.054
1543.2400, -43.046
1543.2600, -43.052
1543.2800, -43.047
1543.3000, -43.039
1543.3200, -43.025
1543.3400, -43.023
1543.3600, -43.028
1543.3800, -43.019
1543.4000, -43.003
1543.4200, -43.002
1543.4400, -43.010
1543.4600, -43.010
1543.4800, -42.992
1543.5000, -42.990
1543.5200, -42.988
1543.5400, -43.001
1543.5600, -42.999
1543.5800, -42.999
1543.6000, -42.998
1543.6200, -42.995
1543.6400, -43.000
1543.6600, -42.999
1543.6800, -42.995
1543.7000, -43.005
1543.7200, -42.981
1543.7400, -43.006
1543.7600, -42.986
1543.7800, -42.976
1543.8000, -42.965
1543.8200, -42.974
1543.8400, -42.974
1543.8600, -42.986
1543.8800, -42.981
1543.9000, -42.967
1543.9200, -42.961
1543.9400, -42.971
1543.9600, -42.952
1543.9800, -42.957
1544.0000, -42.943
1544.0200, -42.938
1544.0400, -42.944
1544.0600, -42.947
1544.0800, -42.930
1544.1000, -42.943
1544.1200, -42.932
1544.1400, -42.921
1544.1600, -42.920
1544.1800, -42.904
1544.2000, -42.906
1544.2200, -42.901
1544.2400, -42.897
1544.2600, -42.901
1544.2800, -42.911
1544.3000, -42.895
1544.3200, -42.884
1544.3400, -42.895
1544.3600, -42.898
1544.3800, -42.885
1544.4000, -42.877
1544.4200, -42.888
1544.4400, -42.890
1544.4600, -42.895
1544.4800, -42.899
1544.5000, -42.893
1544.5200, -42.885
1544.5400, -42.890
1544.5600, -42.891
1544.5800, -42.889
1544.6000, -42.904
1544.6200, -42.884
1544.6400, -42.907
1544.6600, -42.957
1544.6800, -42.960
1544.7000, -42.910
1544.7200, -42.894
1544.7400, -42.877
1544.7600, -42.887
1544.7800, -42.861
1544.8000, -42.865
1544.8200, -42.870
1544.8400, -42.865
1544.8600, -42.859
1544.8800, -42.852
1544.9000, -42.858
1544.9200, -42.845
1544.9400, -42.853
1544.9600, -42.866
1544.9800, -42.862
1545.0000, -42.847
1545.0200, -42.857
1545.0400, -42.848
1545.0600, -42.841
1545.0800, -42.828
1545.1000, -42.839
1545.1200, -42.824
1545.1400, -42.808
1545.1600, -42.828
1545.1800, -42.837
1545.2000, -42.826
1545.2200, -42.817
1545.2400, -42.821
1545.2600, -42.835
1545.2800, -42.826
1545.3000, -42.807
1545.3200, -42.816
1545.3400, -42.814
1545.3600, -42.821
1545.3800, -42.838
1545.4000, -42.829
1545.4200, -42.830
1545.4400, -42.830
1545.4600, -42.829
1545.4800, -42.825
1545.5000, -42.832
1545.5200, -42.833
1545.5400, -42.852
1545.5600, -42.848
1545.5800, -42.844
1545.6000, -42.867
1545.6200, -42.842
1545.6400, -42.860
1545.6600, -42.843
1545.6800, -42.840
1545.7000, -42.846
1545.7200, -42.831
1545.7400, -42.822
1545.7600, -42.819
1545.7800, -42.806
1545.8000, -42.814
1545.8200, -42.812
1545.8400, -42.799
1545.8600, -42.825
1545.8800, -42.827
1545.9000, -42.817
1545.9200, -42.813
1545.9400, -42.800
1545.9600, -42.789
1545.9800, -42.785
1546.0000, -42.783
1546.0200, -42.787
1546.0400, -42.770
1546.0600, -42.793
1546.0800, -42.795
1546.1000, -42.796
1546.1200, -42.778
1546.1400, -42.785
1546.1600, -42.795
1546.1800, -42.800
1546.2000, -42.769
1546.2200, -42.777
1546.2400, -42.790
1546.2600, -42.788
1546.2800, -42.790
1546.3000, -42.796
1546.3200, -42.803
1546.3400, -42.789
1546.3600, -42.793
1546.3800, -42.810
1546.4000, -42.816
1546.4200, -42.821
1546.4400, -42.826
1546.4600, -42.828
1546.4800, -42.819
1546.5000, -42.828
1546.5200, -42.825
1546.5400, -42.823
1546.5600, -42.824
1546.5800, -42.799
1546.6000, -42.797
1546.6200, -42.811
1546.6400, -42.806
1546.6600, -42.804
1546.6800, -42.810
1546.7000, -42.798
1546.7200, -42.803
1546.7400, -42.787
1546.7600, -42.815
1546.7800, -42.808
1546.8000, -42.818
1546.8200, -42.788
1546.8400, -42.798
1546.8600, -42.791
1546.8800, -42.797
1546.9000, -42.790
1546.9200, -42.773
1546.9400, -42.765
1546.9600, -42.783
1546.9800, -42.789
1547.0000, -42.788
1547.0200, -42.786
1547.0400, -42.786
1547.0600, -42.785
1547.0800, -42.788
1547.1000, -42.763
1547.1200, -42.767
1547.1400, -42.783
1547.1600, -42.794
1547.1800, -42.779
1547.2000, -42.786
1547.2200, -42.798
1547.2400, -42.789
1547.2600, -42.790
1547.2800, -42.810
1547.3000, -42.793
1547.3200, -42.808
1547.3400, -42.803
1547.3600, -42.827
1547.3800, -42.831
1547.4000, -42.832
1547.4200, -42.820
1547.4400, -42.825
1547.4600, -42.829
1547.4800, -42.805
1547.5000, -42.799
1547.5200, -42.805
1547.5400, -42.823
1547.5600, -42.807
1547.5800, -42.810
1547.6000, -42.803
1547.6200, -42.805
1547.6400, -42.794
1547.6600, -42.823
1547.6800, -42.822
1547.7000, -42.832
1547.7200, -42.816
1547.7400, -42.816
1547.7600, -42.816
1547.7800, -42.803
1547.8000, -42.806
1547.8200, -42.796
1547.8400, -42.783
1547.8600, -42.795
1547.8800, -42.804
1547.9000, -42.806
1547.9200, -42.795
1547.9400, -42.794
1547.9600, -42.812
1547.9800, -42.809
1548.0000, -42.789
1548.0200, -42.799
1548.0400, -42.809
1548.0600, -42.816
1548.0800, -42.817
1548.1000, -42.828
1548.1200, -42.827
1548.1400, -42.816
1548.1600, -42.816
1548.1800, -42.837
1548.2000, -42.842
1548.2200, -42.839
1548.2400, -42.840
1548.2600, -42.862
1548.2800, -42.860
1548.3000, -42.864
1548.3200, -42.856
1548.3400, -42.843
1548.3600, -42.860
1548.3800, -42.841
1548.4000, -42.829
1548.4200, -42.843
1548.4400, -42.858
1548.4600, -42.839
1548.4800, -42.849
1548.5000, -42.833
1548.5200, -42.837
1548.5400, -42.820
1548.5600, -42.840
1548.5800, -42.843
1548.6000, -42.836
1548.6200, -42.827
1548.6400, -42.839
1548.6600, -42.845
1548.6800, -42.829
1548.7000, -42.831
1548.7200, -42.825
1548.7400, -42.813
1548.7600, -42.820
1548.7800, -42.837
1548.8000, -42.845
1548.8200, -42.823
1548.8400, -42.827
1548.8600, -42.851
1548.8800, -42.841
1548.9000, -42.830
1548.9200, -42.837
1548.9400, -42.846
1548.9600, -42.849
1548.9800, -42.833
1549.0000, -42.848
1549.0200, -42.861
1549.0400, -42.851
1549.0600, -42.853
1549.0800, -42.863
1549.1000, -42.850
1549.1200, -42.865
1549.1400, -42.857
1549.1600, -42.887
1549.1800, -42.893
1549.2000, -42.899
1549.2200, -42.891
1549.2400, -42.879
1549.2600, -42.891
1549.2800, -42.872
1549.3000, -42.854
1549.3200, -42.857
1549.3400, -42.878
1549.3600, -42.871
1549.3800, -42.865
1549.4000, -42.869
1549.4200, -42.873
1549.4400, -42.863
1549.4600, -42.885
1549.4800, -42.889
1549.5000, -42.881
1549.5200, -42.860
1549.5400, -42.869
1549.5600, -42.884
1549.5800, -42.873
1549.6000, -42.871
1549.6200, -42.871
1549.6400, -42.862
1549.6600, -42.871
1549.6800, -42.884
1549.7000, -42.888
1549.7200, -42.867
1549.7400, -42.861
1549.7600, -42.895
1549.7800, -42.892
1549.8000, -42.875
1549.8200, -42.888
1549.8400, -42.893
1549.8600, -42.900
1549.8800, -42.885
1549.9000, -42.905
1549.9200, -42.916
1549.9400, -42.908
1549.9600, -42.915
1549.9800, -42.920
1550.0000, -42.913
1550.0200, -42.922
1550.0400, -42.928
1550.0600, -42.956
1550.0800, -42.951
1550.1000, -42.964
1550.1200, -42.944
1550.1400, -42.922
1550.1600, -42.939
1550.1800, -42.925
1550.2000, -42.914
1550.2200, -42.924
1550.2400, -42.940
1550.2600, -42.937
1550.2800, -42.930
1550.3000, -42.935
1550.3200, -42.936
1550.3400, -42.930
1550.3600, -42.951
1550.3800, -42.948
1550.4000, -42.937
1550.4200, -42.918
1550.4400, -42.945
1550.4600, -42.943
1550.4800, -42.926
1550.5000, -42.926
1550.5200, -42.931
1550.5400, -42.915
1550.5600, -42.935
1550.5800, -42.939
1550.6000, -42.947
1550.6200, -42.916
1550.6400, -42.928
1550.6600, -42.956
1550.6800, -42.951
1550.7000, -42.937
1550.7200, -42.950
1550.7400, -42.961
1550.7600, -42.958
1550.7800, -42.952
1550.8000, -42.966
1550.8200, -42.978
1550.8400, -42.980
1550.8600, -42.988
1550.8800, -42.987
1550.9000, -42.991
1550.9200, -42.984
1550.9400, -43.007
1550.9600, -43.019
1550.9800, -43.019
1551.0000, -43.036
1551.0200, -43.022
1551.0400, -43.019
1551.0600, -43.020
1551.0800, -43.013
1551.1000, -43.014
1551.1200, -43.034
1551.1400, -43.027
1551.1600, -43.021
1551.1800, -43.020
1551.2000, -43.023
1551.2200, -43.017
1551.2400, -43.022
1551.2600, -43.037
1551.2800, -43.031
1551.3000, -43.021
1551.3200, -43.022
1551.3400, -43.032
1551.3600, -43.024
1551.3800, -43.013
1551.4000, -43.013
1551.4200, -43.014
1551.4400, -42.998
1551.4600, -43.019
1551.4800, -43.031
1551.5000, -43.022
1551.5200, -42.996
1551.5400, -43.005
1551.5600, -43.030
1551.5800, -43.026
1551.6000, -43.013
1551.6200, -43.027
1551.6400, -43.036
1551.6600, -43.031
1551.6800, -43.029
1551.7000, -43.047
1551.7200, -43.054
1551.7400, -43.058
1551.7600, -43.066
1551.7800, -43.062
1551.8000, -43.069
1551.8200, -43.056
1551.8400, -43.091
1551.8600, -43.099
1551.8800, -43.099
1551.9000, -43.114
1551.9200, -43.093
1551.9400, -43.091
1551.9600, -43.093
1551.9800, -43.072
1552.0000, -43.086
1552.0200, -43.106
1552.0400, -43.100
1552.0600, -43.092
1552.0800, -43.090
1552.1000, -43.097
1552.1200, -43.091
1552.1400, -43.095
1552.1600, -43.112
1552.1800, -43.104
1552.2000, -43.096
1552.2200, -43.098
1552.2400, -43.091
1552.2600, -43.102
1552.2800, -43.094
1552.3000, -43.095
1552.3200, -43.095
1552.3400, -43.088
1552.3600, -43.105
1552.3800, -43.118
1552.4000, -43.099
1552.4200, -43.093
1552.4400, -43.112
1552.4600, -43.119
1552.4800, -43.107
1552.5000, -43.106
1552.5200, -43.114
1552.5400, -43.126
1552.5600, -43.112
1552.5800, -43.127
1552.6000, -43.145
1552.6200, -43.139
1552.6400, -43.150
1552.6600, -43.159
1552.6800, -43.148
1552.7000, -43.161
1552.7200, -43.148
1552.7400, -43.173
1552.7600, -43.185
1552.7800, -43.196
1552.8000, -43.188
1552.8200, -43.163
1552.8400, -43.177
1552.8600, -43.177
1552.8800, -43.161
1552.9000, -43.181
1552.9200, -43.179
1552.9400, -43.183
1552.9600, -43.172
1552.9800, -43.169
1553.0000, -43.178
1553.0200, -43.160
1553.0400, -43.181
1553.0600, -43.187
1553.0800, -43.177
1553.1000, -43.155
1553.1200, -43.154
1553.1400, -43.172
1553.1600, -43.172
1553.1800, -43.166
1553.2000, -43.171
1553.2200, -43.165
1553.2400, -43.178
1553.2600, -43.186
1553.2800, -43.195
1553.3000, -43.174
1553.3200, -43.174
1553.3400, -43.199
1553.3600, -43.193
1553.3800, -43.173
1553.4000, -43.183
1553.4200, -43.186
1553.4400, -43.194
1553.4600, -43.181
1553.4800, -43.200
1553.5000, -43.208
1553.5200, -43.205
1553.5400, -43.208
1553.5600, -43.216
1553.5800, -43.209
1553.6000, -43.214
1553.6200, -43.233
1553.6400, -43.243
1553.6600, -43.242
1553.6800, -43.251
1553.7000, -43.238
1553.7200, -43.231
1553.7400, -43.232
1553.7600, -43.224
1553.7800, -43.218
1553.8000, -43.222
1553.8200, -43.249
1553.8400, -43.238
1553.8600, -43.230
1553.8800, -43.238
1553.9000, -43.239
1553.9200, -43.226
1553.9400, -43.248
1553.9600, -43.245
1553.9800, -43.244
1554.0000, -43.239
1554.0200, -43.257
1554.0400, -43.254
1554.0600, -43.241
1554.0800, -43.241
1554.1000, -43.251
1554.1200, -43.237
1554.1400, -43.259
1554.1600, -43.269
1554.1800, -43.258
1554.2000, -43.246
1554.2200, -43.258
1554.2400, -43.269
1554.2600, -43.262
1554.2800, -43.249
1554.3000, -43.257
1554.3200, -43.263
1554.3400, -43.265
1554.3600, -43.275
1554.3800, -43.272
1554.4000, -43.273
1554.4200, -43.279
1554.4400, -43.283
1554.4600, -43.282
1554.4800, -43.283
1554.5000, -43.279
1554.5200, -43.291
1554.5400, -43.312
1554.5600, -43.313
1554.5800, -43.316
1554.6000, -43.301
1554.6200, -43.315
1554.6400, -43.308
1554.6600, -43.292
1554.6800, -43.292
1554.7000, -43.311
1554.7200, -43.315
1554.7400, -43.299
1554.7600, -43.294
1554.7800, -43.307
1554.8000, -43.289
1554.8200, -43.296
1554.8400, -43.309
1554.8600, -43.311
1554.8800, -43.301
1554.9000, -43.307
1554.9200, -43.311
1554.9400, -43.298
1554.9600, -43.289
1554.9800, -43.293
1555.0000, -43.285
1555.0200, -43.287
1555.0400, -43.297
1555.0600, -43.303
1555.0800, -43.289
1555.1000, -43.291
1555.1200, -43.306
1555.1400, -43.310
1555.1600, -43.295
1555.1800, -43.306
1555.2000, -43.313
1555.2200, -43.324
1555.2400, -43.319
1555.2600, -43.322
1555.2800, -43.334
1555.3000, -43.329
1555.3200, -43.338
1555.3400, -43.349
1555.3600, -43.328
1555.3800, -43.343
1555.4000, -43.343
1555.4200, -43.364
1555.4400, -43.371
1555.4600, -43.373
1555.4800, -43.362
1555.5000, -43.366
1555.5200, -43.375
1555.5400, -43.359
1555.5600, -43.354
1555.5800, -43.361
1555.6000, -43.381
1555.6200, -43.368
1555.6400, -43.373
1555.6600, -43.370
1555.6800, -43.371
1555.7000, -43.361
1555.7200, -43.380
1555.7400, -43.373
1555.7600, -43.367
1555.7800, -43.367
1555.8000, -43.367
1555.8200, -43.379
1555.8400, -43.378
1555.8600, -43.372
1555.8800, -43.376
1555.9000, -43.365
1555.9200, -43.384
1555.9400, -43.393
1555.9600, -43.387
1555.9800, -43.381
1556.0000, -43.387
1556.0200, -43.405
1556.0400, -43.398
1556.0600, -43.401
1556.0800, -43.395
1556.1000, -43.397
1556.1200, -43.410
1556.1400, -43.418
1556.1600, -43.411
1556.1800, -43.416
1556.2000, -43.420
1556.2200, -43.439
1556.2400, -43.433
1556.2600, -43.433
1556.2800, -43.428
1556.3000, -43.446
1556.3200, -43.453
1556.3400, -43.455
1556.3600, -43.455
1556.3800, -43.447
1556.4000, -43.464
1556.4200, -43.453
1556.4400, -43.442
1556.4600, -43.439
1556.4800, -43.459
1556.5000, -43.459
1556.5200, -43.467
1556.5400, -43.448
1556.5600, -43.455
1556.5800, -43.442
1556.6000, -43.456
1556.6200, -43.465
1556.6400, -43.476
1556.6600, -43.462
1556.6800, -43.459
1556.7000, -43.469
1556.7200, -43.466
1556.7400, -43.472
1556.7600, -43.463
1556.7800, -43.461
1556.8000, -43.467
1556.8200, -43.479
1556.8400, -43.478
1556.8600, -43.474
1556.8800, -43.475
1556.9000, -43.484
1556.9200, -43.491
1556.9400, -43.474
1556.9600, -43.483
1556.9800, -43.481
1557.0000, -43.498
1557.0200, -43.493
1557.0400, -43.515
1557.0600, -43.516
1557.0800, -43.510
1557.1000, -43.509
1557.1200, -43.530
1557.1400, -43.522
1557.1600, -43.542
1557.1800, -43.549
1557.2000, -43.555
1557.2200, -43.561
1557.2400, -43.565
1557.2600, -43.562
1557.2800, -43.574
1557.3000, -43.579
1557.3200, -43.560
1557.3400, -43.558
1557.3600, -43.575
1557.3800, -43.582
1557.4000, -43.577
1557.4200, -43.574
1557.4400, -43.581
1557.4600, -43.584
1557.4800, -43.583
1557.5000, -43.602
1557.5200, -43.611
1557.5400, -43.606
1557.5600, -43.594
1557.5800, -43.605
1557.6000, -43.605
1557.6200, -43.614
1557.6400, -43.602
1557.6600, -43.605
1557.6800, -43.598
1557.7000, -43.630
1557.7200, -43.627
1557.7400, -43.631
1557.7600, -43.636
1557.7800, -43.637
1557.8000, -43.642
1557.8200, -43.641
1557.8400, -43.625
1557.8600, -43.632
1557.8800, -43.651
1557.9000, -43.652
1557.9200, -43.665
1557.9400, -43.673
1557.9600, -43.671
1557.9800, -43.672
1558.0000, -43.687
1558.0200, -43.688
1558.0400, -43.701
1558.0600, -43.706
1558.0800, -43.732
1558.1000, -43.737
1558.1200, -43.745
1558.1400, -43.743
1558.1600, -43.749
1558.1800, -43.760
1558.2000, -43.742
1558.2200, -43.734
1558.2400, -43.745
1558.2600, -43.753
1558.2800, -43.750
1558.3000, -43.752
1558.3200, -43.758
1558.3400, -43.760
1558.3600, -43.752
1558.3800, -43.782
1558.4000, -43.784
1558.4200, -43.787
1558.4400, -43.778
1558.4600, -43.785
1558.4800, -43.789
1558.5000, -43.781
1558.5200, -43.777
1558.5400, -43.786
1558.5600, -43.781
1558.5800, -43.814
1558.6000, -43.814
1558.6200, -43.821
1558.6400, -43.820
1558.6600, -43.826
1558.6800, -43.833
1558.7000, -43.842
1558.7200, -43.823
1558.7400, -43.836
1558.7600, -43.858
1558.7800, -43.861
1558.8000, -43.873
1558.8200, -43.889
1558.8400, -43.886
1558.8600, -43.883
1558.8800, -43.897
1558.9000, -43.900
1558.9200, -43.926
1558.9400, -43.923
1558.9600, -43.948
1558.9800, -43.948
1559.0000, -43.960
1559.0200, -43.971
1559.0400, -43.968
1559.0600, -43.987
1559.0800, -43.976
1559.1000, -43.978
1559.1200, -43.984
1559.1400, -43.994
1559.1600, -43.996
1559.1800, -44.013
1559.2000, -44.007
1559.2200, -44.016
1559.2400, -44.008
1559.2600, -44.037
1559.2800, -44.044
1559.3000, -44.052
1559.3200, -44.046
1559.3400, -44.054
1559.3600, -44.064
1559.3800, -44.053
1559.4000, -44.062
1559.4200, -44.063
1559.4400, -44.061
1559.4600, -44.070
1559.4800, -44.095
1559.5000, -44.105
1559.5200, -44.104
1559.5400, -44.113
1559.5600, -44.133
1559.5800, -44.138
1559.6000, -44.123
1559.6200, -44.135
1559.6400, -44.152
1559.6600, -44.155
1559.6800, -44.159
1559.7000, -44.187
1559.7200, -44.192
1559.7400, -44.192
1559.7600, -44.198
1559.7800, -44.215
1559.8000, -44.226
1559.8200, -44.245
1559.8400, -44.256
1559.8600, -44.261
1559.8800, -44.270
1559.9000, -44.288
1559.9200, -44.280
1559.9400, -44.300
1559.9600, -44.298
1559.9800, -44.289
1560.0000, -44.308
1560.0200, -44.319
1560.0400, -44.320
1560.0600, -44.336
1560.0800, -44.338
1560.1000, -44.343
1560.1200, -44.343
1560.1400, -44.365
1560.1600, -44.379
1560.1800, -44.388
1560.2000, -44.390
1560.2200, -44.394
1560.2400, -44.393
1560.2600, -44.397
1560.2800, -44.420
1560.3000, -44.421
1560.3200, -44.421
1560.3400, -44.431
1560.3600, -44.455
1560.3800, -44.461
1560.4000, -44.455
1560.4200, -44.462
1560.4400, -44.484
1560.4600, -44.493
1560.4800, -44.488
1560.5000, -44.501
1560.5200, -44.508
1560.5400, -44.523
1560.5600, -44.541
1560.5800, -44.556
1560.6000, -44.578
1560.6200, -44.574
1560.6400, -44.587
1560.6600, -44.604
1560.6800, -44.618
1560.7000, -44.634
1560.7200, -44.646
1560.7400, -44.670
1560.7600, -44.673
1560.7800, -44.692
1560.8000, -44.682
1560.8200, -44.705
1560.8400, -44.704
1560.8600, -44.702
1560.8800, -44.712
1560.9000, -44.729
1560.9200, -44.735
1560.9400, -44.745
1560.9600, -44.750
1560.9800, -44.760
1561.0000, -44.766
1561.0200, -44.784
1561.0400, -44.804
1561.0600, -44.813
1561.0800, -44.815
1561.1000, -44.828
1561.1200, -44.844
1561.1400, -44.834
1561.1600, -44.846
1561.1800, -44.853
1561.2000, -44.863
1561.2200, -44.875
1561.2400, -44.904
1561.2600, -44.919
1561.2800, -44.915
1561.3000, -44.924
1561.3200, -44.949
1561.3400, -44.967
1561.3600, -44.964
1561.3800, -44.976
1561.4000, -44.985
1561.4200, -45.001
1561.4400, -45.020
1561.4600, -45.046
1561.4800, -45.058
1561.5000, -45.060
1561.5200, -45.074
1561.5400, -45.093
1561.5600, -45.106
1561.5800, -45.123
1561.6000, -45.137
1561.6200, -45.159
1561.6400, -45.168
1561.6600, -45.191
1561.6800, -45.193
1561.7000, -45.215
1561.7200, -45.225
1561.7400, -45.223
1561.7600, -45.225
1561.7800, -45.245
1561.8000, -45.255
1561.8200, -45.266
1561.8400, -45.271
1561.8600, -45.289
1561.8800, -45.299
1561.9000, -45.314
1561.9200, -45.338
1561.9400, -45.346
1561.9600, -45.346
1561.9800, -45.359
1562.0000, -45.370
1562.0200, -45.372
1562.0400, -45.386
1562.0600, -45.396
1562.0800, -45.412
1562.1000, -45.424
1562.1200, -45.457
1562.1400, -45.475
1562.1600, -45.472
1562.1800, -45.482
1562.2000, -45.507
1562.2200, -45.525
1562.2400, -45.533
1562.2600, -45.540
1562.2800, -45.558
1562.3000, -45.578
1562.3200, -45.586
1562.3400, -45.612
1562.3600, -45.634
1562.3800, -45.634
1562.4000, -45.649
1562.4200, -45.668
1562.4400, -45.684
1562.4600, -45.705
1562.4800, -45.716
1562.5000, -45.745
1562.5200, -45.753
1562.5400, -45.775
1562.5600, -45.777
1562.5800, -45.797
1562.6000, -45.811
1562.6200, -45.818
1562.6400, -45.829
1562.6600, -45.840
1562.6800, -45.849
1562.7000, -45.860
1562.7200, -45.872
1562.7400, -45.890
1562.7600, -45.899
1562.7800, -45.917
1562.8000, -45.943
1562.8200, -45.955
1562.8400, -45.963
1562.8600, -45.979
1562.8800, -45.993
1562.9000, -45.994
1562.9200, -46.011
1562.9400, -46.024
1562.9600, -46.040
1562.9800, -46.044
1563.0000, -46.081
1563.0200, -46.099
1563.0400, -46.102
1563.0600, -46.114
1563.0800, -46.140
1563.1000, -46.162
1563.1200, -46.172
1563.1400, -46.177
1563.1600, -46.191
1563.1800, -46.216
1563.2000, -46.230
1563.2200, -46.253
1563.2400, -46.275
1563.2600, -46.280
1563.2800, -46.296
1563.3000, -46.312
1563.3200, -46.333
1563.3400, -46.358
1563.3600, -46.372
1563.3800, -46.404
1563.4000, -46.417
1563.4200, -46.440
1563.4400, -46.438
1563.4600, -46.466
1563.4800, -46.478
1563.5000, -46.483
1563.5200, -46.503
1563.5400, -46.515
1563.5600, -46.526
1563.5800, -46.537
1563.6000, -46.549
1563.6200, -46.570
1563.6400, -46.585
1563.6600, -46.606
1563.6800, -46.631
1563.7000, -46.646
1563.7200, -46.659
1563.7400, -46.661
1563.7600, -46.679
1563.7800, -46.689
1563.8000, -46.707
1563.8200, -46.722
1563.8400, -46.740
1563.8600, -46.754
1563.8800, -46.787
1563.9000, -46.805
1563.9200, -46.809
1563.9400, -46.823
1563.9600, -46.848
1563.9800, -46.874
1564.0000, -46.873
1564.0200, -46.890
1564.0400, -46.903
1564.0600, -46.921
1564.0800, -46.940
1564.1000, -46.966
1564.1200, -46.989
1564.1400, -46.998
1564.1600, -47.010
1564.1800, -47.036
1564.2000, -47.052
1564.2200, -47.070
1564.2400, -47.095
1564.2600, -47.121
1564.2800, -47.136
1564.3000, -47.157
1564.3200, -47.162
1564.3400, -47.186
1564.3600, -47.202
1564.3800, -47.213
1564.4000, -47.228
1564.4200, -47.248
1564.4400, -47.257
1564.4600, -47.274
1564.4800, -47.288
1564.5000, -47.309
1564.5200, -47.322
1564.5400, -47.351
1564.5600, -47.372
1564.5800, -47.389
1564.6000, -47.398
1564.6200, -47.410
1564.6400, -47.426
1564.6600, -47.435
1564.6800, -47.461
1564.7000, -47.474
1564.7200, -47.485
1564.7400, -47.506
1564.7600, -47.533
1564.7800, -47.554
1564.8000, -47.558
1564.8200, -47.574
1564.8400, -47.603
1564.8600, -47.622
1564.8800, -47.624
1564.9000, -47.646
1564.9200, -47.664
1564.9400, -47.686
1564.9600, -47.712
1564.9800, -47.726
1565.0000, -47.749
1565.0200, -47.763
1565.0400, -47.781
1565.0600, -47.806
1565.0800, -47.827
1565.1000, -47.841
1565.1200, -47.867
1565.1400, -47.894
1565.1600, -47.907
1565.1800, -47.935
1565.2000, -47.937
1565.2200, -47.964
1565.2400, -47.980
1565.2600, -47.987
1565.2800, -48.001
1565.3000, -48.026
1565.3200, -48.035
1565.3400, -48.055
1565.3600, -48.073
1565.3800, -48.095
1565.4000, -48.104
1565.4200, -48.134
1565.4400, -48.153
1565.4600, -48.171
1565.4800, -48.189
1565.5000, -48.213
1565.5200, -48.218
1565.5400, -48.228
1565.5600, -48.240
1565.5800, -48.265
1565.6000, -48.275
1565.6200, -48.296
1565.6400, -48.328
1565.6600, -48.343
1565.6800, -48.348
1565.7000, -48.366
1565.7200, -48.397
1565.7400, -48.418
1565.7600, -48.424
1565.7800, -48.444
1565.8000, -48.463
1565.8200, -48.480
1565.8400, -48.504
1565.8600, -48.525
1565.8800, -48.542
1565.9000, -48.560
1565.9200, -48.575
1565.9400, -48.603
1565.9600, -48.623
1565.9800, -48.642
1566.0000, -48.671
1566.0200, -48.693
1566.0400, -48.714
1566.0600, -48.729
1566.0800, -48.739
1566.1000, -48.765
1566.1200, -48.782
1566.1400, -48.786
1566.1600, -48.803
1566.1800, -48.825
1566.2000, -48.835
1566.2200, -48.856
1566.2400, -48.873
1566.2600, -48.895
1566.2800, -48.901
1566.3000, -48.938
1566.3200, -48.954
1566.3400, -48.975
1566.3600, -48.984
1566.3800, -49.010
1566.4000, -49.023
1566.4200, -49.029
1566.4400, -49.047
1566.4600, -49.069
1566.4800, -49.073
1566.5000, -49.113
1566.5200, -49.129
1566.5400, -49.148
1566.5600, -49.153
1566.5800, -49.175
1566.6000, -49.206
1566.6200, -49.222
1566.6400, -49.230
1566.6600, -49.246
1566.6800, -49.266
1566.7000, -49.290
1566.7200, -49.313
1566.7400, -49.336
1566.7600, -49.348
1566.7800, -49.366
1566.8000, -49.385
1566.8200, -49.410
1566.8400, -49.441
1566.8600, -49.460
1566.8800, -49.482
1566.9000, -49.498
1566.9200, -49.521
1566.9400, -49.539
1566.9600, -49.550
1566.9800, -49.571
1567.0000, -49.578
1567.0200, -49.590
1567.0400, -49.619
1567.0600, -49.625
1567.0800, -49.654
1567.1000, -49.670
1567.1200, -49.685
1567.1400, -49.706
1567.1600, -49.719
1567.1800, -49.750
1567.2000, -49.770
1567.2200, -49.786
1567.2400, -49.800
1567.2600, -49.819
1567.2800, -49.825
1567.3000, -49.848
1567.3200, -49.866
1567.3400, -49.881
1567.3600, -49.893
1567.3800, -49.927
1567.4000, -49.945
1567.4200, -49.955
1567.4400, -49.970
1567.4600, -49.995
1567.4800, -50.021
1567.5000, -50.030
1567.5200, -50.047
1567.5400, -50.065
1567.5600, -50.085
1567.5800, -50.102
1567.6000, -50.132
1567.6200, -50.159
1567.6400, -50.170
1567.6600, -50.189
1567.6800, -50.206
1567.7000, -50.226
1567.7200, -50.251
1567.7400, -50.273
1567.7600, -50.300
1567.7800, -50.319
1567.8000, -50.336
1567.8200, -50.351
1567.8400, -50.368
1567.8600, -50.383
1567.8800, -50.395
1567.9000, -50.414
1567.9200, -50.438
1567.9400, -50.443
1567.9600, -50.468
1567.9800, -50.481
1568.0000, -50.500
1568.0200, -50.509
1568.0400, -50.534
1568.0600, -50.559
1568.0800, -50.575
1568.1000, -50.590
1568.1200, -50.610
1568.1400, -50.626
1568.1600, -50.632
1568.1800, -50.647
1568.2000, -50.669
1568.2200, -50.679
1568.2400, -50.703
1568.2600, -50.733
1568.2800, -50.755
1568.3000, -50.759
1568.3200, -50.777
1568.3400, -50.807
1568.3600, -50.829
1568.3800, -50.837
1568.4000, -50.855
1568.4200, -50.869
1568.4400, -50.899
1568.4600, -50.915
1568.4800, -50.936
1568.5000, -50.960
1568.5200, -50.970
1568.5400, -50.990
1568.5600, -51.012
1568.5800, -51.036
1568.6000, -51.057
1568.6200, -51.081
1568.6400, -51.101
1568.6600, -51.127
1568.6800, -51.140
1568.7000, -51.153
1568.7200, -51.176
1568.7400, -51.186
1568.7600, -51.195
1568.7800, -51.216
1568.8000, -51.237
1568.8200, -51.257
1568.8400, -51.272
1568.8600, -51.291
1568.8800, -51.305
1568.9000, -51.310
1568.9200, -51.346
1568.9400, -51.363
1568.9600, -51.379
1568.9800, -51.395
1569.0000, -51.417
1569.0200, -51.430
1569.0400, -51.445
1569.0600, -51.451
1569.0800, -51.473
1569.1000, -51.484
1569.1200, -51.510
1569.1400, -51.539
1569.1600, -51.553
1569.1800, -51.562
1569.2000, -51.591
1569.2200, -51.611
1569.2400, -51.623
1569.2600, -51.638
1569.2800, -51.655
1569.3000, -51.673
1569.3200, -51.696
1569.3400, -51.718
1569.3600, -51.743
1569.3800, -51.752
1569.4000, -51.765
1569.4200, -51.792
1569.4400, -51.809
1569.4600, -51.831
1569.4800, -51.847
1569.5000, -51.875
1569.5200, -51.881
1569.5400, -51.909
1569.5600, -51.924
1569.5800, -51.941
1569.6000, -51.960
1569.6200, -51.967
1569.6400, -51.986
1569.6600, -52.008
1569.6800, -52.018
1569.7000, -52.039
1569.7200, -52.058
1569.7400, -52.071
1569.7600, -52.085
1569.7800, -52.115
1569.8000, -52.127
1569.8200, -52.155
1569.8400, -52.157
1569.8600, -52.173
1569.8800, -52.191
1569.9000, -52.202
1569.9200, -52.233
1569.9400, -52.239
1569.9600, -52.249
1569.9800, -52.273
1570.0000, -52.296
1570.0200, -52.308
1570.0400, -52.325
1570.0600, -52.339
1570.0800, -52.368
1570.1000, -52.386
1570.1200, -52.392
1570.1400, -52.413
1570.1600, -52.425
1570.1800, -52.449
1570.2000, -52.467
1570.2200, -52.493
1570.2400, -52.509
1570.2600, -52.527
1570.2800, -52.547
1570.3000, -52.560
1570.3200, -52.583
1570.3400, -52.595
1570.3600, -52.627
1570.3800, -52.644
1570.4000, -52.663
1570.4200, -52.685
1570.4400, -52.687
1570.4600, -52.706
1570.4800, -52.725
1570.5000, -52.735
1570.5200, -52.764
1570.5400, -52.770
1570.5600, -52.781
1570.5800, -52.806
1570.6000, -52.818
1570.6200, -52.828
1570.6400, -52.847
1570.6600, -52.877
1570.6800, -52.895
1570.7000, -52.908
1570.7200, -52.923
1570.7400, -52.954
1570.7600, -52.952
1570.7800, -52.979
1570.8000, -52.981
1570.8200, -53.003
1570.8400, -53.012
1570.8600, -53.045
1570.8800, -53.063
1570.9000, -53.064
1570.9200, -53.079
1570.9400, -53.109
1570.9600, -53.127
1570.9800, -53.138
1571.0000, -53.146
1571.0200, -53.169
1571.0400, -53.179
1571.0600, -53.202
1571.0800, -53.234
1571.1000, -53.239
1571.1200, -53.261
1571.1400, -53.273
1571.1600, -53.293
1571.1800, -53.312
1571.2000, -53.329
1571.2200, -53.355
1571.2400, -53.376
1571.2600, -53.391
1571.2800, -53.408
1571.3000, -53.421
1571.3200, -53.442
1571.3400, -53.455
1571.3600, -53.463
1571.3800, -53.482
1571.4000, -53.501
1571.4200, -53.506
1571.4400, -53.535
1571.4600, -53.546
1571.4800, -53.560
1571.5000, -53.574
1571.5200, -53.600
1571.5400, -53.618
1571.5600, -53.631
1571.5800, -53.646
1571.6000, -53.665
1571.6200, -53.686
1571.6400, -53.686
1571.6600, -53.705
1571.6800, -53.718
1571.7000, -53.731
1571.7200, -53.751
1571.7400, -53.768
1571.7600, -53.791
1571.7800, -53.797
1571.8000, -53.824
1571.8200, -53.839
1571.8400, -53.855
1571.8600, -53.871
1571.8800, -53.880
1571.9000, -53.907
1571.9200, -53.922
1571.9400, -53.933
1571.9600, -53.960
1571.9800, -53.977
1572.0000, -53.979
1572.0200, -54.005
1572.0400, -54.027
1572.0600, -54.044
1572.0800, -54.070
1572.1000, -54.080
1572.1200, -54.098
1572.1400, -54.124
1572.1600, -54.127
1572.1800, -54.145
1572.2000, -54.161
1572.2200, -54.166
1572.2400, -54.188
1572.2600, -54.211
1572.2800, -54.215
1572.3000, -54.226
1572.3200, -54.242
1572.3400, -54.260
1572.3600, -54.271
1572.3800, -54.294
1572.4000, -54.311
1572.4200, -54.325
1572.4400, -54.337
1572.4600, -54.359
1572.4800, -54.368
1572.5000, -54.374
1572.5200, -54.398
1572.5400, -54.410
1572.5600, -54.424
1572.5800, -54.445
1572.6000, -54.461
1572.6200, -54.481
1572.6400, -54.484
1572.6600, -54.502
1572.6800, -54.531
1572.7000, -54.541
1572.7200, -54.533
1572.7400, -54.565
1572.7600, -54.565
1572.7800, -54.591
1572.8000, -54.618
1572.8200, -54.628
1572.8400, -54.639
1572.8600, -54.658
1572.8800, -54.675
1572.9000, -54.696
1572.9200, -54.715
1572.9400, -54.717
1572.9600, -54.755
1572.9800, -54.753
1573.0000, -54.776
1573.0200, -54.797
1573.0400, -54.803
1573.0600, -54.825
1573.0800, -54.834
1573.1000, -54.848
1573.1200, -54.858
1573.1400, -54.875
1573.1600, -54.883
1573.1800, -54.901
1573.2000, -54.923
1573.2200, -54.927
1573.2400, -54.940
1573.2600, -54.969
1573.2800, -54.976
1573.3000, -54.996
1573.3200, -54.994
1573.3400, -55.014
1573.3600, -55.027
1573.3800, -55.040
1573.4000, -55.054
1573.4200, -55.070
1573.4400, -55.079
1573.4600, -55.103
1573.4800, -55.125
1573.5000, -55.123
1573.5200, -55.143
1573.5400, -55.157
1573.5600, -55.188
1573.5800, -55.180
1573.6000, -55.204
1573.6200, -55.217
1573.6400, -55.233
1573.6600, -55.255
1573.6800, -55.276
1573.7000, -55.289
1573.7200, -55.298
1573.7400, -55.316
1573.7600, -55.329
1573.7800, -55.340
1573.8000, -55.356
1573.8200, -55.379
1573.8400, -55.390
1573.8600, -55.405
1573.8800, -55.425
1573.9000, -55.422
1573.9200, -55.452
1573.9400, -55.454
1573.9600, -55.464
1573.9800, -55.485
1574.0000, -55.496
1574.0200, -55.498
1574.0400, -55.521
1574.0600, -55.530
1574.0800, -55.549
1574.1000, -55.552
1574.1200, -55.590
1574.1400, -55.592
1574.1600, -55.612
1574.1800, -55.622
1574.2000, -55.631
1574.2200, -55.641
1574.2400, -55.650
1574.2600, -55.668
1574.2800, -55.669
1574.3000, -55.689
1574.3200, -55.706
1574.3400, -55.729
1574.3600, -55.729
1574.3800, -55.736
1574.4000, -55.757
1574.4200, -55.791
1574.4400, -55.777
1574.4600, -55.808
1574.4800, -55.815
1574.5000, -55.833
1574.5200, -55.839
1574.5400, -55.866
1574.5600, -55.872
1574.5800, -55.895
1574.6000, -55.902
1574.6200, -55.921
1574.6400, -55.942
1574.6600, -55.949
1574.6800, -55.969
1574.7000, -55.992
1574.7200, -56.009
1574.7400, -56.018
1574.7600, -56.009
1574.7800, -56.034
1574.8000, -56.039
1574.8200, -56.043
1574.8400, -56.079
1574.8600, -56.090
1574.8800, -56.084
1574.9000, -56.100
1574.9200, -56.119
1574.9400, -56.126
1574.9600, -56.159
1574.9800, -56.164
1575.0000, -56.176
1575.0200, -56.186
1575.0400, -56.197
1575.0600, -56.210
1575.0800, -56.211
1575.1000, -56.232
1575.1200, -56.242
1575.1400, -56.247
1575.1600, -56.271
1575.1800, -56.282
1575.2000, -56.313
1575.2200, -56.312
1575.2400, -56.318
1575.2600, -56.349
1575.2800, -56.351
1575.3000, -56.357
1575.3200, -56.387
1575.3400, -56.378
1575.3600, -56.402
1575.3800, -56.399
1575.4000, -56.442
1575.4200, -56.448
1575.4400, -56.459
1575.4600, -56.462
1575.4800, -56.486
1575.5000, -56.492
1575.5200, -56.503
1575.5400, -56.535
1575.5600, -56.531
1575.5800, -56.561
1575.6000, -56.572
1575.6200, -56.566
1575.6400, -56.586
1575.6600, -56.606
1575.6800, -56.592
1575.7000, -56.630
1575.7200, -56.627
1575.7400, -56.647
1575.7600, -56.642
1575.7800, -56.671
1575.8000, -56.674
1575.8200, -56.691
1575.8400, -56.705
1575.8600, -56.727
1575.8800, -56.723
1575.9000, -56.738
1575.9200, -56.741
1575.9400, -56.768
1575.9600, -56.767
1575.9800, -56.796
1576.0000, -56.805
1576.0200, -56.795
1576.0400, -56.825
1576.0600, -56.834
1576.0800, -56.845
1576.1000, -56.851
1576.1200, -56.870
1576.1400, -56.891
1576.1600, -56.886
1576.1800, -56.900
1576.2000, -56.911
1576.2200, -56.931
1576.2400, -56.934
1576.2600, -56.946
1576.2800, -56.977
1576.3000, -56.972
1576.3200, -56.963
1576.3400, -57.006
1576.3600, -57.021
1576.3800, -57.025
1576.4000, -57.041
1576.4200, -57.054
1576.4400, -57.063
1576.4600, -57.075
1576.4800, -57.083
1576.5000, -57.101
1576.5200, -57.119
1576.5400, -57.105
1576.5600, -57.127
1576.5800, -57.126
1576.6000, -57.145
1576.6200, -57.145
1576.6400, -57.169
1576.6600, -57.166
1576.6800, -57.176
1576.7000, -57.199
1576.7200, -57.213
1576.7400, -57.229
1576.7600, -57.227
1576.7800, -57.240
1576.8000, -57.241
1576.8200, -57.255
1576.8400, -57.278
1576.8600, -57.268
1576.8800, -57.283
1576.9000, -57.310
1576.9200, -57.301
1576.9400, -57.328
1576.9600, -57.330
1576.9800, -57.350
1577.0000, -57.353
1577.0200, -57.378
1577.0400, -57.374
1577.0600, -57.373
1577.0800, -57.411
1577.1000, -57.409
1577.1200, -57.409
1577.1400, -57.445
1577.1600, -57.444
1577.1800, -57.441
1577.2000, -57.475
1577.2200, -57.479
1577.2400, -57.487
1577.2600, -57.501
1577.2800, -57.511
1577.3000, -57.517
1577.3200, -57.546
1577.3400, -57.553
1577.3600, -57.565
1577.3800, -57.563
1577.4000, -57.574
1577.4200, -57.585
1577.4400, -57.604
1577.4600, -57.593
1577.4800, -57.611
1577.5000, -57.617
1577.5200, -57.641
1577.5400, -57.655
1577.5600, -57.654
1577.5800, -57.673
1577.6000, -57.681
1577.6200, -57.686
1577.6400, -57.686
1577.6600, -57.700
1577.6800, -57.718
1577.7000, -57.727
1577.7200, -57.730
1577.7400, -57.761
1577.7600, -57.738
1577.7800, -57.760
1577.8000, -57.780
1577.8200, -57.787
1577.8400, -57.799
1577.8600, -57.804
1577.8800, -57.813
1577.9000, -57.820
1577.9200, -57.837
1577.9400, -57.843
1577.9600, -57.851
1577.9800, -57.863
1578.0000, -57.897
1578.0200, -57.887
1578.0400, -57.905
1578.0600, -57.908
1578.0800, -57.926
1578.1000, -57.933
1578.1200, -57.943
1578.1400, -57.950
1578.1600, -57.980
1578.1800, -57.982
1578.2000, -57.983
1578.2200, -58.007
1578.2400, -58.002
1578.2600, -58.015
1578.2800, -58.009
1578.3000, -58.040
1578.3200, -58.044
1578.3400, -58.043
1578.3600, -58.059
1578.3800, -58.069
1578.4000, -58.070
1578.4200, -58.095
1578.4400, -58.102
1578.4600, -58.098
1578.4800, -58.099
1578.5000, -58.127
1578.5200, -58.128
1578.5400, -58.145
1578.5600, -58.158
1578.5800, -58.163
1578.6000, -58.167
1578.6200, -58.184
1578.6400, -58.185
1578.6600, -58.209
1578.6800, -58.201
1578.7000, -58.214
1578.7200, -58.227
1578.7400, -58.243
1578.7600, -58.228
1578.7800, -58.274
1578.8000, -58.264
1578.8200, -58.267
1578.8400, -58.292
1578.8600, -58.297
1578.8800, -58.300
1578.9000, -58.308
1578.9200, -58.325
1578.9400, -58.339
1578.9600, -58.349
1578.9800, -58.350
1579.0000, -58.377
1579.0200, -58.371
1579.0400, -58.384
1579.0600, -58.388
1579.0800, -58.406
1579.1000, -58.404
1579.1200, -58.422
1579.1400, -58.419
1579.1600, -58.457
1579.1800, -58.439
1579.2000, -58.446
1579.2200, -58.477
1579.2400, -58.457
1579.2600, -58.468
1579.2800, -58.488
1579.3000, -58.497
1579.3200, -58.507
1579.3400, -58.493
1579.3600, -58.542
1579.3800, -58.503
1579.4000, -58.553
1579.4200, -58.512
1579.4400, -58.541
1579.4600, -58.575
1579.4800, -58.557
1579.5000, -58.578
1579.5200, -58.581
1579.5400, -58.592
1579.5600, -58.609
1579.5800, -58.610
1579.6000, -58.616
1579.6200, -58.624
1579.6400, -58.653
1579.6600, -58.634
1579.6800, -58.660
1579.7000, -58.657
1579.7200, -58.681
1579.7400, -58.681
1579.7600, -58.710
1579.7800, -58.693
1579.8000, -58.725
1579.8200, -58.712
1579.8400, -58.727
1579.8600, -58.762
1579.8800, -58.751
1579.9000, -58.755
1579.9200, -58.764
1579.9400, -58.767
1579.9600, -58.780
1579.9800, -58.783
1580.0000, -58.787
1580.0200, -58.823
1580.0400, -58.822
1580.0600, -58.798
1580.0800, -58.838
1580.1000, -58.816
1580.1200, -58.840
1580.1400, -58.854
1580.1600, -58.861
1580.1800, -58.865
1580.2000, -58.865
1580.2200, -58.864
1580.2400, -58.874
1580.2600, -58.904
1580.2800, -58.900
1580.3000, -58.890
1580.3200, -58.902
1580.3400, -58.920
1580.3600, -58.919
1580.3800, -58.953
1580.4000, -58.945
1580.4200, -58.966
1580.4400, -58.953
1580.4600, -58.965
1580.4800, -58.977
1580.5000, -58.986
1580.5200, -59.002
1580.5400, -59.011
1580.5600, -59.006
1580.5800, -59.021
1580.6000, -59.015
1580.6200, -59.026
1580.6400, -59.070
1580.6600, -59.056
1580.6800, -59.060
1580.7000, -59.068
1580.7200, -59.084
1580.7400, -59.098
1580.7600, -59.116
1580.7800, -59.112
1580.8000, -59.104
1580.8200, -59.137
1580.8400, -59.105
1580.8600, -59.148
1580.8800, -59.129
1580.9000, -59.137
1580.9200, -59.155
1580.9400, -59.152
1580.9600, -59.160
1580.9800, -59.171
1581.0000, -59.182
1581.0200, -59.188
1581.0400, -59.190
1581.0600, -59.195
1581.0800, -59.213
1581.1000, -59.203
1581.1200, -59.231
1581.1400, -59.223
1581.1600, -59.240
1581.1800, -59.253
1581.2000, -59.248
1581.2200, -59.248
1581.2400, -59.277
1581.2600, -59.276
1581.2800, -59.283
1581.3000, -59.298
1581.3200, -59.268
1581.3400, -59.306
1581.3600, -59.314
1581.3800, -59.303
1581.4000, -59.310
1581.4200, -59.351
1581.4400, -59.323
1581.4600, -59.352
1581.4800, -59.356
1581.5000, -59.355
1581.5200, -59.382
1581.5400, -59.384
1581.5600, -59.399
1581.5800, -59.403
1581.6000, -59.410
1581.6200, -59.399
1581.6400, -59.410
1581.6600, -59.399
1581.6800, -59.407
1581.7000, -59.453
1581.7200, -59.442
1581.7400, -59.450
1581.7600, -59.433
1581.7800, -59.446
1581.8000, -59.487
1581.8200, -59.444
1581.8400, -59.500
1581.8600, -59.478
1581.8800, -59.499
1581.9000, -59.480
1581.9200, -59.507
1581.9400, -59.526
1581.9600, -59.499
1581.9800, -59.525
1582.0000, -59.523
1582.0200, -59.552
1582.0400, -59.580
1582.0600, -59.523
1582.0800, -59.556
1582.1000, -59.564
1582.1200, -59.588
1582.1400, -59.617
1582.1600, -59.580
1582.1800, -59.603
1582.2000, -59.613
1582.2200, -59.604
1582.2400, -59.627
1582.2600, -59.627
1582.2800, -59.639
1582.3000, -59.633
1582.3200, -59.663
1582.3400, -59.645
1582.3600, -59.657
1582.3800, -59.652
1582.4000, -59.689
1582.4200, -59.653
1582.4400, -59.709
1582.4600, -59.685
1582.4800, -59.706
1582.5000, -59.699
1582.5200, -59.704
1582.5400, -59.708
1582.5600, -59.721
1582.5800, -59.743
1582.6000, -59.728
1582.6200, -59.733
1582.6400, -59.743
1582.6600, -59.754
1582.6800, -59.775
1582.7000, -59.767
1582.7200, -59.793
1582.7400, -59.765
1582.7600, -59.793
1582.7800, -59.785
1582.8000, -59.802
1582.8200, -59.812
1582.8400, -59.808
1582.8600, -59.805
1582.8800, -59.828
1582.9000, -59.818
1582.9200, -59.820
1582.9400, -59.843
1582.9600, -59.842
1582.9800, -59.859
1583.0000, -59.892
1583.0200, -59.869
1583.0400, -59.877
1583.0600, -59.898
1583.0800, -59.868
1583.1000, -59.893
1583.1200, -59.878
1583.1400, -59.933
1583.1600, -59.918
1583.1800, -59.914
1583.2000, -59.921
1583.2200, -59.937
1583.2400, -59.959
1583.2600, -59.949
1583.2800, -59.964
1583.3000, -59.964
1583.3200, -59.955
1583.3400, -59.990
1583.3600, -59.992
1583.3800, -59.984
1583.4000, -59.985
1583.4200, -59.998
1583.4400, -59.989
1583.4600, -60.010
1583.4800, -60.015
1583.5000, -60.034
1583.5200, -60.032
1583.5400, -60.034
1583.5600, -60.024
1583.5800, -60.055
1583.6000, -60.054
1583.6200, -60.062
1583.6400, -60.084
1583.6600, -60.052
1583.6800, -60.102
1583.7000, -60.061
1583.7200, -60.074
1583.7400, -60.080
1583.7600, -60.097
1583.7800, -60.083
1583.8000, -60.120
1583.8200, -60.104
1583.8400, -60.120
1583.8600, -60.115
1583.8800, -60.124
1583.9000, -60.132
1583.9200, -60.163
1583.9400, -60.165
1583.9600, -60.134
1583.9800, -60.151
1584.0000, -60.187
1584.0200, -60.177
1584.0400, -60.193
1584.0600, -60.159
1584.0800, -60.201
1584.1000, -60.195
1584.1200, -60.217
1584.1400, -60.247
1584.1600, -60.200
1584.1800, -60.242
1584.2000, -60.200
1584.2200, -60.226
1584.2400, -60.237
1584.2600, -60.240
1584.2800, -60.251
1584.3000, -60.249
1584.3200, -60.254
1584.3400, -60.259
1584.3600, -60.274
1584.3800, -60.284
1584.4000, -60.286
1584.4200, -60.272
1584.4400, -60.270
1584.4600, -60.336
1584.4800, -60.296
1584.5000, -60.300
1584.5200, -60.303
1584.5400, -60.312
1584.5600, -60.328
1584.5800, -60.314
1584.6000, -60.348
1584.6200, -60.334
1584.6400, -60.357
1584.6600, -60.349
1584.6800, -60.358
1584.7000, -60.391
1584.7200, -60.343
1584.7400, -60.354
1584.7600, -60.366
1584.7800, -60.371
1584.8000, -60.412
1584.8200, -60.386
1584.8400, -60.417
1584.8600, -60.411
1584.8800, -60.411
1584.9000, -60.408
1584.9200, -60.434
1584.9400, -60.406
1584.9600, -60.444
1584.9800, -60.432
1585.0000, -60.425
1585.0200, -60.450
1585.0400, -60.486
1585.0600, -60.453
1585.0800, -60.448
1585.1000, -60.482
1585.1200, -60.469
1585.1400, -60.485
1585.1600, -60.463
1585.1800, -60.479
1585.2000, -60.498
1585.2200, -60.496
1585.2400, -60.498
1585.2600, -60.516
1585.2800, -60.489
1585.3000, -60.512
1585.3200, -60.506
1585.3400, -60.517
1585.3600, -60.511
1585.3800, -60.539
1585.4000, -60.531
1585.4200, -60.558
1585.4400, -60.546
1585.4600, -60.546
1585.4800, -60.552
1585.5000, -60.574
1585.5200, -60.580
1585.5400, -60.560
1585.5600, -60.576
1585.5800, -60.576
1585.6000, -60.563
1585.6200, -60.658
1585.6400, -60.587
1585.6600, -60.569
1585.6800, -60.638
1585.7000, -60.583
1585.7200, -60.647
1585.7400, -60.636
1585.7600, -60.598
1585.7800, -60.673
1585.8000, -60.638
1585.8200, -60.628
1585.8400, -60.659
1585.8600, -60.663
1585.8800, -60.668
1585.9000, -60.676
1585.9200, -60.665
1585.9400, -60.686
1585.9600, -60.660
1585.9800, -60.658
1586.0000, -60.732
1586.0200, -60.656
1586.0400, -60.765
1586.0600, -60.684
1586.0800, -60.688
1586.1000, -60.672
1586.1200, -60.716
1586.1400, -60.722
1586.1600, -60.732
1586.1800, -60.728
1586.2000, -60.719
1586.2200, -60.743
1586.2400, -60.724
1586.2600, -60.752
1586.2800, -60.773
1586.3000, -60.766
1586.3200, -60.732
1586.3400, -60.794
1586.3600, -60.743
1586.3800, -60.796
1586.4000, -60.765
1586.4200, -60.790
1586.4400, -60.788
1586.4600, -60.795
1586.4800, -60.836
1586.5000, -60.774
1586.5200, -60.814
1586.5400, -60.806
1586.5600, -60.831
1586.5800, -60.814
1586.6000, -60.837
1586.6200, -60.867
1586.6400, -60.846
1586.6600, -60.858
1586.6800, -60.889
1586.7000, -60.871
1586.7200, -60.856
1586.7400, -60.873
1586.7600, -60.861
1586.7800, -60.901
1586.8000, -60.864
1586.8200, -60.887
1586.8400, -60.884
1586.8600, -60.913
1586.8800, -60.930
1586.9000, -60.863
1586.9200, -60.911
1586.9400, -60.931
1586.9600, -60.935
1586.9800, -60.919
1587.0000, -60.917
1587.0200, -60.901
1587.0400, -60.986
1587.0600, -60.947
1587.0800, -60.963
1587.1000, -60.939
1587.1200, -60.966
1587.1400, -60.965
1587.1600, -60.964
1587.1800, -60.943
1587.2000, -61.001
1587.2200, -60.974
1587.2400, -61.003
1587.2600, -60.974
1587.2800, -61.006
1587.3000, -60.986
1587.3200, -60.983
1587.3400, -61.020
1587.3600, -61.015
1587.3800, -61.024
1587.4000, -61.043
1587.4200, -61.016
1587.4400, -61.022
1587.4600, -61.045
1587.4800, -61.046
1587.5000, -61.057
1587.5200, -61.036
1587.5400, -61.089
1587.5600, -61.070
1587.5800, -61.071
1587.6000, -61.090
1587.6200, -61.079
1587.6400, -61.067
1587.6600, -61.086
1587.6800, -61.141
1587.7000, -61.072
1587.7200, -61.133
1587.7400, -61.088
1587.7600, -61.096
1587.7800, -61.079
1587.8000, -61.105
1587.8200, -61.141
1587.8400, -61.120
1587.8600, -61.146
1587.8800, -61.134
1587.9000, -61.139
1587.9200, -61.164
1587.9400, -61.144
1587.9600, -61.162
1587.9800, -61.152
1588.0000, -61.159
1588.0200, -61.220
1588.0400, -61.156
1588.0600, -61.173
1588.0800, -61.206
1588.1000, -61.159
1588.1200, -61.199
1588.1400, -61.226
1588.1600, -61.204
1588.1800, -61.206
1588.2000, -61.209
1588.2200, -61.233
1588.2400, -61.197
1588.2600, -61.230
1588.2800, -61.221
1588.3000, -61.223
1588.3200, -61.232
1588.3400, -61.256
1588.3600, -61.233
1588.3800, -61.273
1588.4000, -61.269
1588.4200, -61.222
1588.4400, -61.242
1588.4600, -61.250
1588.4800, -61.320
1588.5000, -61.294
1588.5200, -61.243
1588.5400, -61.285
1588.5600, -61.285
1588.5800, -61.273
1588.6000, -61.295
1588.6200, -61.328
1588.6400, -61.285
1588.6600, -61.345
1588.6800, -61.290
1588.7000, -61.338
1588.7200, -61.303
1588.7400, -61.332
1588.7600, -61.322
1588.7800, -61.333
1588.8000, -61.330
1588.8200, -61.371
1588.8400, -61.328
1588.8600, -61.342
1588.8800, -61.349
1588.9000, -61.334
1588.9200, -61.341
1588.9400, -61.376
1588.9600, -61.368
1588.9800, -61.383
1589.0000, -61.379
1589.0200, -61.363
1589.0400, -61.372
1589.0600, -61.422
1589.0800, -61.400
1589.1000, -61.402
1589.1200, -61.406
1589.1400, -61.382
1589.1600, -61.408
1589.1800, -61.461
1589.2000, -61.408
1589.2200, -61.436
1589.2400, -61.471
1589.2600, -61.440
1589.2800, -61.414
1589.3000, -61.435
1589.3200, -61.453
1589.3400, -61.451
1589.3600, -61.468
1589.3800, -61.467
1589.4000, -61.438
1589.4200, -61.455
1589.4400, -61.467
1589.4600, -61.451
1589.4800, -61.495
1589.5000, -61.501
1589.5200, -61.475
1589.5400, -61.477
1589.5600, -61.505
1589.5800, -61.497
1589.6000, -61.495
1589.6200, -61.493
1589.6400, -61.494
1589.6600, -61.527
1589.6800, -61.505
1589.7000, -61.531
1589.7200, -61.512
1589.7400, -61.531
1589.7600, -61.542
1589.7800, -61.509
1589.8000, -61.556
1589.8200, -61.542
1589.8400, -61.537
1589.8600, -61.571
1589.8800, -61.566
1589.9000, -61.552
1589.9200, -61.543
1589.9400, -61.577
1589.9600, -61.582
1589.9800, -61.597
1590.0000, -61.565
1590.0200, -61.572
1590.0400, -61.609
1590.0600, -61.615
1590.0800, -61.615
1590.1000, -61.595
1590.1200, -61.604
1590.1400, -61.628
1590.1600, -61.617
1590.1800, -61.599
1590.2000, -61.598
1590.2200, -61.648
1590.2400, -61.617
1590.2600, -61.651
1590.2800, -61.671
1590.3000, -61.629
1590.3200, -61.717
1590.3400, -61.607
1590.3600, -61.684
1590.3800, -61.662
1590.4000, -61.647
1590.4200, -61.649
1590.4400, -61.724
1590.4600, -61.680
1590.4800, -61.681
1590.5000, -61.672
1590.5200, -61.725
1590.5400, -61.704
1590.5600, -61.663
1590.5800, -61.738
1590.6000, -61.679
1590.6200, -61.707
1590.6400, -61.721
1590.6600, -61.724
1590.6800, -61.710
1590.7000, -61.739
1590.7200, -61.717
1590.7400, -61.751
1590.7600, -61.746
1590.7800, -61.759
1590.8000, -61.745
1590.8200, -61.785
1590.8400, -61.761
1590.8600, -61.756
1590.8800, -61.769
1590.9000, -61.782
1590.9200, -61.835
1590.9400, -61.742
1590.9600, -61.832
1590.9800, -61.769
1591.0000, -61.746
1591.0200, -61.820
1591.0400, -61.833
1591.0600, -61.821
1591.0800, -61.802
1591.1000, -61.781
1591.1200, -61.841
1591.1400, -61.819
1591.1600, -61.826
1591.1800, -61.865
1591.2000, -61.802
1591.2200, -61.836
1591.2400, -61.854
1591.2600, -61.862
1591.2800, -61.854
1591.3000, -61.800
1591.3200, -61.879
1591.3400, -61.864
1591.3600, -61.891
1591.3800, -61.863
1591.4000, -61.893
1591.4200, -61.849
1591.4400, -61.888
1591.4600, -61.886
1591.4800, -61.941
1591.5000, -61.911
1591.5200, -61.895
1591.5400, -61.942
1591.5600, -61.882
1591.5800, -61.924
1591.6000, -61.917
1591.6200, -61.928
1591.6400, -61.924
1591.6600, -61.947
1591.6800, -62.002
1591.7000, -61.907
1591.7200, -61.988
1591.7400, -61.958
1591.7600, -62.024
1591.7800, -61.964
1591.8000, -61.940
1591.8200, -61.983
1591.8400, -61.951
1591.8600, -61.973
1591.8800, -62.009
1591.9000, -62.003
1591.9200, -61.980
1591.9400, -61.989
1591.9600, -62.043
1591.9800, -62.027
1592.0000, -61.948
1592.0200, -62.026
1592.0400, -62.022
1592.0600, -62.046
1592.0800, -62.018
1592.1000, -61.974
1592.1200, -62.047
1592.1400, -62.073
1592.1600, -62.019
1592.1800, -62.052
1592.2000, -62.052
1592.2200, -62.069
1592.2400, -62.053
1592.2600, -62.062
1592.2800, -62.053
1592.3000, -62.113
1592.3200, -62.072
1592.3400, -62.069
1592.3600, -62.079
1592.3800, -62.116
1592.4000, -62.060
1592.4200, -62.082
1592.4400, -62.131
1592.4600, -62.056
1592.4800, -62.124
1592.5000, -62.125
1592.5200, -62.113
1592.5400, -62.139
1592.5600, -62.102
1592.5800, -62.130
1592.6000, -62.136
1592.6200, -62.152
1592.6400, -62.141
1592.6600, -62.129
1592.6800, -62.148
1592.7000, -62.145
1592.7200, -62.222
1592.7400, -62.164
1592.7600, -62.119
1592.7800, -62.176
1592.8000, -62.162
1592.8200, -62.171
1592.8400, -62.171
1592.8600, -62.185
1592.8800, -62.215
1592.9000, -62.193
1592.9200, -62.195
1592.9400, -62.222
1592.9600, -62.193
1592.9800, -62.193
1593.0000, -62.214
1593.0200, -62.181
1593.0400, -62.252
1593.0600, -62.191
1593.0800, -62.262
1593.1000, -62.225
1593.1200, -62.221
1593.1400, -62.221
1593.1600, -62.252
1593.1800, -62.283
1593.2000, -62.229
1593.2200, -62.232
1593.2400, -62.258
1593.2600, -62.302
1593.2800, -62.232
1593.3000, -62.274
1593.3200, -62.263
1593.3400, -62.291
1593.3600, -62.275
1593.3800, -62.327
1593.4000, -62.283
1593.4200, -62.299
1593.4400, -62.328
1593.4600, -62.317
1593.4800, -62.318
1593.5000, -62.291
1593.5200, -62.384
1593.5400, -62.288
1593.5600, -62.279
1593.5800, -62.318
1593.6000, -62.313
1593.6200, -62.365
1593.6400, -62.354
1593.6600, -62.338
1593.6800, -62.332
1593.7000, -62.387
1593.7200, -62.358
1593.7400, -62.367
1593.7600, -62.303
1593.7800, -62.353
1593.8000, -62.380
1593.8200, -62.341
1593.8400, -62.401
1593.8600, -62.349
1593.8800, -62.390
1593.9000, -62.377
1593.9200, -62.368
1593.9400, -62.408
1593.9600, -62.408
1593.9800, -62.391
1594.0000, -62.435
1594.0200, -62.412
1594.0400, -62.380
1594.0600, -62.428
1594.0800, -62.427
1594.1000, -62.447
1594.1200, -62.431
1594.1400, -62.477
1594.1600, -62.449
1594.1800, -62.473
1594.2000, -62.474
1594.2200, -62.443
1594.2400, -62.480
1594.2600, -62.478
1594.2800, -62.458
1594.3000, -62.456
1594.3200, -62.497
1594.3400, -62.500
1594.3600, -62.510
1594.3800, -62.476
1594.4000, -62.459
1594.4200, -62.535
1594.4400, -62.515
1594.4600, -62.537
1594.4800, -62.453
1594.5000, -62.525
1594.5200, -62.576
1594.5400, -62.509
1594.5600, -62.566
1594.5800, -62.501
1594.6000, -62.553
1594.6200, -62.537
1594.6400, -62.548
1594.6600, -62.551
1594.6800, -62.523
1594.7000, -62.546
1594.7200, -62.508
1594.7400, -62.590
1594.7600, -62.594
1594.7800, -62.573
1594.8000, -62.523
1594.8200, -62.606
1594.8400, -62.523
1594.8600, -62.604
1594.8800, -62.542
1594.9000, -62.567
1594.9200, -62.608
1594.9400, -62.589
1594.9600, -62.657
1594.9800, -62.605
1595.0000, -62.563
1595.0200, -62.699
1595.0400, -62.605
1595.0600, -62.686
1595.0800, -62.587
1595.1000, -62.656
1595.1200, -62.621
1595.1400, -62.670
1595.1600, -62.616
1595.1800, -62.658
1595.2000, -62.685
1595.2200, -62.687
1595.2400, -62.651
1595.2600, -62.641
1595.2800, -62.635
1595.3000, -62.672
1595.3200, -62.715
1595.3400, -62.684
1595.3600, -62.671
1595.3800, -62.667
1595.4000, -62.675
1595.4200, -62.704
1595.4400, -62.684
1595.4600, -62.704
1595.4800, -62.657
1595.5000, -62.747
1595.5200, -62.694
1595.5400, -62.843
1595.5600, -62.670
1595.5800, -62.703
1595.6000, -62.746
1595.6200, -62.768
1595.6400, -62.728
1595.6600, -62.782
1595.6800, -62.727
1595.7000, -62.784
1595.7200, -62.759
1595.7400, -62.769
1595.7600, -62.742
1595.7800, -62.803
1595.8000, -62.774
1595.8200, -62.758
1595.8400, -62.791
1595.8600, -62.798
1595.8800, -62.799
1595.9000, -62.776
1595.9200, -62.858
1595.9400, -62.782
1595.9600, -62.873
1595.9800, -62.812
1596.0000, -62.828
1596.0200, -62.831
1596.0400, -62.762
1596.0600, -62.810
1596.0800, -62.885
1596.1000, -62.805
1596.1200, -62.835
1596.1400, -62.874
1596.1600, -62.880
1596.1800, -62.808
1596.2000, -62.888
1596.2200, -62.855
1596.2400, -62.825
1596.2600, -62.847
1596.2800, -62.894
1596.3000, -62.815
1596.3200, -62.856
1596.3400, -62.890
1596.3600, -62.848
1596.3800, -62.878
1596.4000, -62.960
1596.4200, -62.876
1596.4400, -62.799
1596.4600, -62.947
1596.4800, -62.959
1596.5000, -62.841
1596.5200, -62.933
1596.5400, -62.900
1596.5600, -62.904
1596.5800, -62.874
1596.6000, -62.937
1596.6200, -62.929
1596.6400, -62.901
1596.6600, -62.975
1596.6800, -62.950
1596.7000, -62.966
1596.7200, -62.946
1596.7400, -62.966
1596.7600, -62.983
1596.7800, -62.953
1596.8000, -62.986
1596.8200, -62.942
1596.8400, -62.950
1596.8600, -63.043
1596.8800, -62.963
1596.9000, -63.010
1596.9200, -63.017
1596.9400, -62.986
1596.9600, -63.025
1596.9800, -63.014
1597.0000, -62.979
1597.0200, -62.992
1597.0400, -63.009
1597.0600, -63.011
1597.0800, -63.013
1597.1000, -63.002
1597.1200, -63.005
1597.1400, -63.069
1597.1600, -63.006
1597.1800, -63.040
1597.2000, -63.100
1597.2200, -63.005
1597.2400, -63.070
1597.2600, -63.010
1597.2800, -63.042
1597.3000, -63.063
1597.3200, -63.110
1597.3400, -63.056
1597.3600, -63.060
1597.3800, -63.097
1597.4000, -63.041
1597.4200, -63.149
1597.4400, -63.074
1597.4600, -63.102
1597.4800, -63.137
1597.5000, -63.051
1597.5200, -63.147
1597.5400, -63.179
1597.5600, -63.156
1597.5800, -63.085
1597.6000, -63.078
1597.6200, -63.086
1597.6400, -63.153
1597.6600, -63.163
1597.6800, -63.189
1597.7000, -63.118
1597.7200, -63.169
1597.7400, -63.122
1597.7600, -63.177
1597.7800, -63.217
1597.8000, -63.079
1597.8200, -63.198
1597.8400, -63.147
1597.8600, -63.236
1597.8800, -63.169
1597.9000, -63.192
1597.9200, -63.138
1597.9400, -63.220
1597.9600, -63.186
1597.9800, -63.220
1598.0000, -63.201
1598.0200, -63.206
1598.0400, -63.301
1598.0600, -63.177
1598.0800, -63.254
1598.1000, -63.193
1598.1200, -63.221
1598.1400, -63.228
1598.1600, -63.229
1598.1800, -63.270
1598.2000, -63.192
1598.2200, -63.256
1598.2400, -63.199
1598.2600, -63.254
1598.2800, -63.271
1598.3000, -63.270
1598.3200, -63.282
1598.3400, -63.271
1598.3600, -63.261
1598.3800, -63.340
1598.4000, -63.260
1598.4200, -63.322
1598.4400, -63.253
1598.4600, -63.278
1598.4800, -63.307
1598.5000, -63.313
1598.5200, -63.301
1598.5400, -63.341
1598.5600, -63.312
1598.5800, -63.388
1598.6000, -63.302
1598.6200, -63.310
1598.6400, -63.309
1598.6600, -63.326
1598.6800, -63.331
1598.7000, -63.310
1598.7200, -63.335
1598.7400, -63.348
1598.7600, -63.380
1598.7800, -63.323
1598.8000, -63.354
1598.8200, -63.352
1598.8400, -63.384
1598.8600, -63.383
1598.8800, -63.348
1598.9000, -63.348
1598.9200, -63.412
1598.9400, -63.418
1598.9600, -63.397
1598.9800, -63.444
1599.0000, -63.417
1599.0200, -63.359
1599.0400, -63.400
1599.0600, -63.351
1599.0800, -63.445
1599.1000, -63.369
1599.1200, -63.440
1599.1400, -63.423
1599.1600, -63.422
1599.1800, -63.501
1599.2000, -63.447
1599.2200, -63.485
1599.2400, -63.515
1599.2600, -63.435
1599.2800, -63.440
1599.3000, -63.473
1599.3200, -63.535
1599.3400, -63.446
1599.3600, -63.479
1599.3800, -63.507
1599.4000, -63.437
1599.4200, -63.497
1599.4400, -63.522
1599.4600, -63.472
1599.4800, -63.480
1599.5000, -63.519
1599.5200, -63.520
1599.5400, -63.483
1599.5600, -63.534
1599.5800, -63.523
1599.6000, -63.557
1599.6200, -63.484
1599.6400, -63.582
1599.6600, -63.501
1599.6800, -63.467
1599.7000, -63.587
1599.7200, -63.571
1599.7400, -63.529
1599.7600, -63.543
1599.7800, -63.568
1599.8000, -63.617
1599.8200, -63.564
1599.8400, -63.572
1599.8600, -63.596
1599.8800, -63.570
1599.9000, -63.619
1599.9200, -63.613
1599.9400, -63.583
1599.9600, -63.627
1599.9800, -63.598
1600.0000, -63.684
