70BCSV 	
// AQ6370B OPTICAL SPECTRUM ANALYZER //                 
25
"CTRWL",1550.000000
"SPAN", 100.000000
"START WL",1500.000000
"STOP WL",1600.000000
"WLFREQ", 0
"REFL",-28.8
"LSCL", 5.0
"RESLN",0.100
"AVG",   1
"SMPLAUTO",      0
"SMPL",       5001
"SMPLINTVL",0.0200
"HIGH1"
"MEAS"
"LSUNT",0
"NMSKH","OFF"
"RESCOR",0
"RESPARM", 9050
"FREQPARM", 9050






"[TRACE DATA]"
1500.0000, -62.027
1500.0200, -62.028
1500.0400, -62.040
1500.0600, -61.987
1500.0800, -61.978
1500.1000, -62.004
1500.1200, -62.017
1500.1400, -61.958
1500.1600, -61.997
1500.1800, -61.939
1500.2000, -61.994
1500.2200, -61.956
1500.2400, -61.915
1500.2600, -61.957
1500.2800, -61.959
1500.3000, -61.983
1500.3200, -61.904
1500.3400, -61.939
1500.3600, -61.925
1500.3800, -61.895
1500.4000, -61.893
1500.4200, -61.884
1500.4400, -61.914
1500.4600, -61.929
1500.4800, -61.858
1500.5000, -61.869
1500.5200, -61.875
1500.5400, -61.875
1500.5600, -61.865
1500.5800, -61.868
1500.6000, -61.883
1500.6200, -61.813
1500.6400, -61.837
1500.6600, -61.830
1500.6800, -61.821
1500.7000, -61.828
1500.7200, -61.820
1500.7400, -61.802
1500.7600, -61.809
1500.7800, -61.820
1500.8000, -61.805
1500.8200, -61.782
1500.8400, -61.793
1500.8600, -61.771
1500.8800, -61.804
1500.9000, -61.775
1500.9200, -61.765
1500.9400, -61.762
1500.9600, -61.754
1500.9800, -61.775
1501.0000, -61.747
1501.0200, -61.736
1501.0400, -61.695
1501.0600, -61.714
1501.0800, -61.740
1501.1000, -61.764
1501.1200, -61.680
1501.1400, -61.708
1501.1600, -61.689
1501.1800, -61.682
1501.2000, -61.698
1501.2200, -61.647
1501.2400, -61.658
1501.2600, -61.671
1501.2800, -61.656
1501.3000, -61.671
1501.3200, -61.668
1501.3400, -61.614
1501.3600, -61.671
1501.3800, -61.646
1501.4000, -61.612
1501.4200, -61.610
1501.4400, -61.645
1501.4600, -61.589
1501.4800, -61.573
1501.5000, -61.574
1501.5200, -61.589
1501.5400, -61.615
1501.5600, -61.535
1501.5800, -61.551
1501.6000, -61.574
1501.6200, -61.599
1501.6400, -61.582
1501.6600, -61.554
1501.6800, -61.550
1501.7000, -61.556
1501.7200, -61.556
1501.7400, -61.514
1501.7600, -61.548
1501.7800, -61.505
1501.8000, -61.511
1501.8200, -61.525
1501.8400, -61.502
1501.8600, -61.544
1501.8800, -61.482
1501.9000, -61.515
1501.9200, -61.471
1501.9400, -61.470
1501.9600, -61.480
1501.9800, -61.456
1502.0000, -61.486
1502.0200, -61.427
1502.0400, -61.468
1502.0600, -61.420
1502.0800, -61.433
1502.1000, -61.427
1502.1200, -61.415
1502.1400, -61.410
1502.1600, -61.379
1502.1800, -61.442
1502.2000, -61.379
1502.2200, -61.393
1502.2400, -61.373
1502.2600, -61.387
1502.2800, -61.366
1502.3000, -61.373
1502.3200, -61.377
1502.3400, -61.330
1502.3600, -61.346
1502.3800, -61.337
1502.4000, -61.328
1502.4200, -61.287
1502.4400, -61.325
1502.4600, -61.302
1502.4800, -61.299
1502.5000, -61.299
1502.5200, -61.283
1502.5400, -61.286
1502.5600, -61.284
1502.5800, -61.248
1502.6000, -61.282
1502.6200, -61.233
1502.6400, -61.242
1502.6600, -61.237
1502.6800, -61.258
1502.7000, -61.209
1502.7200, -61.204
1502.7400, -61.232
1502.7600, -61.246
1502.7800, -61.213
1502.8000, -61.233
1502.8200, -61.195
1502.8400, -61.176
1502.8600, -61.207
1502.8800, -61.155
1502.9000, -61.186
1502.9200, -61.153
1502.9400, -61.161
1502.9600, -61.136
1502.9800, -61.156
1503.0000, -61.117
1503.0200, -61.133
1503.0400, -61.139
1503.0600, -61.086
1503.0800, -61.122
1503.1000, -61.098
1503.1200, -61.108
1503.1400, -61.089
1503.1600, -61.057
1503.1800, -61.066
1503.2000, -61.082
1503.2200, -61.043
1503.2400, -61.064
1503.2600, -61.047
1503.2800, -61.067
1503.3000, -61.035
1503.3200, -61.031
1503.3400, -61.020
1503.3600, -61.000
1503.3800, -61.003
1503.4000, -60.982
1503.4200, -61.013
1503.4400, -60.948
1503.4600, -60.982
1503.4800, -60.957
1503.5000, -60.964
1503.5200, -60.996
1503.5400, -60.939
1503.5600, -60.955
1503.5800, -60.930
1503.6000, -60.926
1503.6200, -60.904
1503.6400, -60.919
1503.6600, -60.904
1503.6800, -60.905
1503.7000, -60.884
1503.7200, -60.874
1503.7400, -60.895
1503.7600, -60.891
1503.7800, -60.878
1503.8000, -60.856
1503.8200, -60.901
1503.8400, -60.848
1503.8600, -60.864
1503.8800, -60.861
1503.9000, -60.868
1503.9200, -60.835
1503.9400, -60.797
1503.9600, -60.806
1503.9800, -60.818
1504.0000, -60.828
1504.0200, -60.807
1504.0400, -60.798
1504.0600, -60.781
1504.0800, -60.781
1504.1000, -60.767
1504.1200, -60.757
1504.1400, -60.776
1504.1600, -60.733
1504.1800, -60.733
1504.2000, -60.722
1504.2200, -60.728
1504.2400, -60.683
1504.2600, -60.731
1504.2800, -60.691
1504.3000, -60.664
1504.3200, -60.679
1504.3400, -60.683
1504.3600, -60.646
1504.3800, -60.682
1504.4000, -60.654
1504.4200, -60.675
1504.4400, -60.631
1504.4600, -60.632
1504.4800, -60.614
1504.5000, -60.623
1504.5200, -60.622
1504.5400, -60.566
1504.5600, -60.596
1504.5800, -60.589
1504.6000, -60.566
1504.6200, -60.564
1504.6400, -60.576
1504.6600, -60.554
1504.6800, -60.544
1504.7000, -60.526
1504.7200, -60.554
1504.7400, -60.530
1504.7600, -60.543
1504.7800, -60.529
1504.8000, -60.504
1504.8200, -60.504
1504.8400, -60.505
1504.8600, -60.484
1504.8800, -60.463
1504.9000, -60.459
1504.9200, -60.455
1504.9400, -60.436
1504.9600, -60.447
1504.9800, -60.450
1505.0000, -60.427
1505.0200, -60.430
1505.0400, -60.390
1505.0600, -60.404
1505.0800, -60.408
1505.1000, -60.395
1505.1200, -60.394
1505.1400, -60.374
1505.1600, -60.365
1505.1800, -60.362
1505.2000, -60.367
1505.2200, -60.351
1505.2400, -60.360
1505.2600, -60.319
1505.2800, -60.326
1505.3000, -60.306
1505.3200, -60.303
1505.3400, -60.284
1505.3600, -60.306
1505.3800, -60.287
1505.4000, -60.282
1505.4200, -60.273
1505.4400, -60.260
1505.4600, -60.236
1505.4800, -60.258
1505.5000, -60.244
1505.5200, -60.223
1505.5400, -60.231
1505.5600, -60.210
1505.5800, -60.224
1505.6000, -60.200
1505.6200, -60.174
1505.6400, -60.186
1505.6600, -60.182
1505.6800, -60.203
1505.7000, -60.171
1505.7200, -60.160
1505.7400, -60.145
1505.7600, -60.163
1505.7800, -60.139
1505.8000, -60.141
1505.8200, -60.102
1505.8400, -60.149
1505.8600, -60.133
1505.8800, -60.100
1505.9000, -60.090
1505.9200, -60.115
1505.9400, -60.045
1505.9600, -60.049
1505.9800, -60.069
1506.0000, -60.053
1506.0200, -60.032
1506.0400, -60.031
1506.0600, -60.034
1506.0800, -60.038
1506.1000, -60.005
1506.1200, -60.027
1506.1400, -59.999
1506.1600, -59.993
1506.1800, -60.010
1506.2000, -59.931
1506.2200, -59.960
1506.2400, -59.975
1506.2600, -59.938
1506.2800, -59.931
1506.3000, -59.925
1506.3200, -59.948
1506.3400, -59.903
1506.3600, -59.899
1506.3800, -59.907
1506.4000, -59.889
1506.4200, -59.913
1506.4400, -59.891
1506.4600, -59.852
1506.4800, -59.838
1506.5000, -59.883
1506.5200, -59.835
1506.5400, -59.810
1506.5600, -59.838
1506.5800, -59.811
1506.6000, -59.818
1506.6200, -59.798
1506.6400, -59.810
1506.6600, -59.807
1506.6800, -59.777
1506.7000, -59.793
1506.7200, -59.789
1506.7400, -59.798
1506.7600, -59.753
1506.7800, -59.778
1506.8000, -59.739
1506.8200, -59.756
1506.8400, -59.734
1506.8600, -59.721
1506.8800, -59.709
1506.9000, -59.693
1506.9200, -59.690
1506.9400, -59.710
1506.9600, -59.674
1506.9800, -59.661
1507.0000, -59.655
1507.0200, -59.660
1507.0400, -59.643
1507.0600, -59.660
1507.0800, -59.621
1507.1000, -59.609
1507.1200, -59.614
1507.1400, -59.628
1507.1600, -59.600
1507.1800, -59.600
1507.2000, -59.566
1507.2200, -59.585
1507.2400, -59.555
1507.2600, -59.576
1507.2800, -59.557
1507.3000, -59.564
1507.3200, -59.530
1507.3400, -59.532
1507.3600, -59.523
1507.3800, -59.524
1507.4000, -59.478
1507.4200, -59.505
1507.4400, -59.486
1507.4600, -59.481
1507.4800, -59.477
1507.5000, -59.449
1507.5200, -59.447
1507.5400, -59.444
1507.5600, -59.427
1507.5800, -59.428
1507.6000, -59.427
1507.6200, -59.440
1507.6400, -59.394
1507.6600, -59.411
1507.6800, -59.375
1507.7000, -59.389
1507.7200, -59.378
1507.7400, -59.359
1507.7600, -59.367
1507.7800, -59.363
1507.8000, -59.348
1507.8200, -59.330
1507.8400, -59.321
1507.8600, -59.303
1507.8800, -59.354
1507.9000, -59.322
1507.9200, -59.275
1507.9400, -59.278
1507.9600, -59.261
1507.9800, -59.270
1508.0000, -59.244
1508.0200, -59.253
1508.0400, -59.238
1508.0600, -59.230
1508.0800, -59.223
1508.1000, -59.199
1508.1200, -59.229
1508.1400, -59.210
1508.1600, -59.173
1508.1800, -59.187
1508.2000, -59.147
1508.2200, -59.170
1508.2400, -59.143
1508.2600, -59.168
1508.2800, -59.142
1508.3000, -59.129
1508.3200, -59.117
1508.3400, -59.130
1508.3600, -59.107
1508.3800, -59.106
1508.4000, -59.099
1508.4200, -59.089
1508.4400, -59.061
1508.4600, -59.065
1508.4800, -59.058
1508.5000, -59.051
1508.5200, -59.057
1508.5400, -59.062
1508.5600, -59.049
1508.5800, -59.017
1508.6000, -59.000
1508.6200, -58.993
1508.6400, -59.007
1508.6600, -58.988
1508.6800, -58.996
1508.7000, -58.965
1508.7200, -58.970
1508.7400, -58.957
1508.7600, -58.948
1508.7800, -58.929
1508.8000, -58.931
1508.8200, -58.930
1508.8400, -58.916
1508.8600, -58.903
1508.8800, -58.886
1508.9000, -58.897
1508.9200, -58.892
1508.9400, -58.849
1508.9600, -58.858
1508.9800, -58.857
1509.0000, -58.823
1509.0200, -58.815
1509.0400, -58.827
1509.0600, -58.816
1509.0800, -58.818
1509.1000, -58.803
1509.1200, -58.792
1509.1400, -58.793
1509.1600, -58.772
1509.1800, -58.759
1509.2000, -58.738
1509.2200, -58.730
1509.2400, -58.732
1509.2600, -58.721
1509.2800, -58.718
1509.3000, -58.722
1509.3200, -58.679
1509.3400, -58.706
1509.3600, -58.667
1509.3800, -58.681
1509.4000, -58.647
1509.4200, -58.661
1509.4400, -58.642
1509.4600, -58.621
1509.4800, -58.637
1509.5000, -58.618
1509.5200, -58.614
1509.5400, -58.603
1509.5600, -58.609
1509.5800, -58.587
1509.6000, -58.597
1509.6200, -58.577
1509.6400, -58.561
1509.6600, -58.551
1509.6800, -58.552
1509.7000, -58.539
1509.7200, -58.516
1509.7400, -58.529
1509.7600, -58.508
1509.7800, -58.500
1509.8000, -58.501
1509.8200, -58.491
1509.8400, -58.473
1509.8600, -58.445
1509.8800, -58.456
1509.9000, -58.457
1509.9200, -58.432
1509.9400, -58.427
1509.9600, -58.416
1509.9800, -58.415
1510.0000, -58.414
1510.0200, -58.383
1510.0400, -58.387
1510.0600, -58.360
1510.0800, -58.352
1510.1000, -58.358
1510.1200, -58.358
1510.1400, -58.321
1510.1600, -58.323
1510.1800, -58.301
1510.2000, -58.275
1510.2200, -58.293
1510.2400, -58.288
1510.2600, -58.288
1510.2800, -58.259
1510.3000, -58.222
1510.3200, -58.239
1510.3400, -58.221
1510.3600, -58.200
1510.3800, -58.200
1510.4000, -58.181
1510.4200, -58.178
1510.4400, -58.171
1510.4600, -58.174
1510.4800, -58.150
1510.5000, -58.136
1510.5200, -58.140
1510.5400, -58.116
1510.5600, -58.126
1510.5800, -58.100
1510.6000, -58.120
1510.6200, -58.080
1510.6400, -58.081
1510.6600, -58.065
1510.6800, -58.043
1510.7000, -58.050
1510.7200, -58.026
1510.7400, -58.016
1510.7600, -58.008
1510.7800, -57.990
1510.8000, -57.962
1510.8200, -57.985
1510.8400, -57.967
1510.8600, -57.963
1510.8800, -57.927
1510.9000, -57.933
1510.9200, -57.931
1510.9400, -57.908
1510.9600, -57.897
1510.9800, -57.895
1511.0000, -57.881
1511.0200, -57.872
1511.0400, -57.862
1511.0600, -57.841
1511.0800, -57.841
1511.1000, -57.837
1511.1200, -57.814
1511.1400, -57.791
1511.1600, -57.789
1511.1800, -57.785
1511.2000, -57.778
1511.2200, -57.752
1511.2400, -57.761
1511.2600, -57.743
1511.2800, -57.722
1511.3000, -57.714
1511.3200, -57.699
1511.3400, -57.683
1511.3600, -57.707
1511.3800, -57.668
1511.4000, -57.660
1511.4200, -57.654
1511.4400, -57.638
1511.4600, -57.634
1511.4800, -57.602
1511.5000, -57.595
1511.5200, -57.604
1511.5400, -57.595
1511.5600, -57.585
1511.5800, -57.567
1511.6000, -57.560
1511.6200, -57.538
1511.6400, -57.536
1511.6600, -57.524
1511.6800, -57.508
1511.7000, -57.486
1511.7200, -57.491
1511.7400, -57.481
1511.7600, -57.453
1511.7800, -57.453
1511.8000, -57.436
1511.8200, -57.417
1511.8400, -57.417
1511.8600, -57.395
1511.8800, -57.385
1511.9000, -57.381
1511.9200, -57.362
1511.9400, -57.360
1511.9600, -57.345
1511.9800, -57.329
1512.0000, -57.311
1512.0200, -57.312
1512.0400, -57.288
1512.0600, -57.301
1512.0800, -57.275
1512.1000, -57.249
1512.1200, -57.251
1512.1400, -57.235
1512.1600, -57.229
1512.1800, -57.214
1512.2000, -57.204
1512.2200, -57.211
1512.2400, -57.188
1512.2600, -57.178
1512.2800, -57.154
1512.3000, -57.159
1512.3200, -57.145
1512.3400, -57.149
1512.3600, -57.123
1512.3800, -57.116
1512.4000, -57.098
1512.4200, -57.092
1512.4400, -57.091
1512.4600, -57.082
1512.4800, -57.063
1512.5000, -57.062
1512.5200, -57.048
1512.5400, -57.031
1512.5600, -57.024
1512.5800, -56.996
1512.6000, -56.981
1512.6200, -56.991
1512.6400, -56.965
1512.6600, -56.957
1512.6800, -56.946
1512.7000, -56.935
1512.7200, -56.919
1512.7400, -56.921
1512.7600, -56.879
1512.7800, -56.893
1512.8000, -56.856
1512.8200, -56.859
1512.8400, -56.838
1512.8600, -56.831
1512.8800, -56.828
1512.9000, -56.803
1512.9200, -56.798
1512.9400, -56.782
1512.9600, -56.778
1512.9800, -56.757
1513.0000, -56.754
1513.0200, -56.749
1513.0400, -56.721
1513.0600, -56.726
1513.0800, -56.687
1513.1000, -56.699
1513.1200, -56.680
1513.1400, -56.672
1513.1600, -56.665
1513.1800, -56.638
1513.2000, -56.634
1513.2200, -56.624
1513.2400, -56.622
1513.2600, -56.610
1513.2800, -56.600
1513.3000, -56.565
1513.3200, -56.580
1513.3400, -56.560
1513.3600, -56.543
1513.3800, -56.537
1513.4000, -56.518
1513.4200, -56.497
1513.4400, -56.500
1513.4600, -56.487
1513.4800, -56.481
1513.5000, -56.460
1513.5200, -56.434
1513.5400, -56.431
1513.5600, -56.432
1513.5800, -56.415
1513.6000, -56.399
1513.6200, -56.370
1513.6400, -56.366
1513.6600, -56.364
1513.6800, -56.344
1513.7000, -56.331
1513.7200, -56.329
1513.7400, -56.303
1513.7600, -56.291
1513.7800, -56.281
1513.8000, -56.285
1513.8200, -56.269
1513.8400, -56.248
1513.8600, -56.214
1513.8800, -56.215
1513.9000, -56.206
1513.9200, -56.188
1513.9400, -56.182
1513.9600, -56.183
1513.9800, -56.147
1514.0000, -56.138
1514.0200, -56.111
1514.0400, -56.106
1514.0600, -56.097
1514.0800, -56.093
1514.1000, -56.075
1514.1200, -56.069
1514.1400, -56.062
1514.1600, -56.044
1514.1800, -56.021
1514.2000, -56.024
1514.2200, -56.005
1514.2400, -56.000
1514.2600, -55.969
1514.2800, -55.958
1514.3000, -55.952
1514.3200, -55.947
1514.3400, -55.935
1514.3600, -55.915
1514.3800, -55.898
1514.4000, -55.899
1514.4200, -55.877
1514.4400, -55.867
1514.4600, -55.860
1514.4800, -55.849
1514.5000, -55.823
1514.5200, -55.811
1514.5400, -55.800
1514.5600, -55.775
1514.5800, -55.772
1514.6000, -55.741
1514.6200, -55.751
1514.6400, -55.735
1514.6600, -55.723
1514.6800, -55.715
1514.7000, -55.685
1514.7200, -55.681
1514.7400, -55.667
1514.7600, -55.641
1514.7800, -55.629
1514.8000, -55.622
1514.8200, -55.602
1514.8400, -55.602
1514.8600, -55.585
1514.8800, -55.571
1514.9000, -55.570
1514.9200, -55.539
1514.9400, -55.525
1514.9600, -55.509
1514.9800, -55.505
1515.0000, -55.483
1515.0200, -55.473
1515.0400, -55.453
1515.0600, -55.427
1515.0800, -55.429
1515.1000, -55.411
1515.1200, -55.392
1515.1400, -55.381
1515.1600, -55.384
1515.1800, -55.365
1515.2000, -55.351
1515.2200, -55.328
1515.2400, -55.312
1515.2600, -55.299
1515.2800, -55.290
1515.3000, -55.286
1515.3200, -55.264
1515.3400, -55.267
1515.3600, -55.238
1515.3800, -55.219
1515.4000, -55.206
1515.4200, -55.196
1515.4400, -55.170
1515.4600, -55.153
1515.4800, -55.136
1515.5000, -55.119
1515.5200, -55.118
1515.5400, -55.105
1515.5600, -55.108
1515.5800, -55.067
1515.6000, -55.062
1515.6200, -55.057
1515.6400, -55.034
1515.6600, -55.019
1515.6800, -55.000
1515.7000, -54.975
1515.7200, -54.973
1515.7400, -54.949
1515.7600, -54.934
1515.7800, -54.929
1515.8000, -54.911
1515.8200, -54.891
1515.8400, -54.885
1515.8600, -54.861
1515.8800, -54.856
1515.9000, -54.837
1515.9200, -54.813
1515.9400, -54.812
1515.9600, -54.804
1515.9800, -54.769
1516.0000, -54.769
1516.0200, -54.748
1516.0400, -54.726
1516.0600, -54.709
1516.0800, -54.690
1516.1000, -54.692
1516.1200, -54.673
1516.1400, -54.646
1516.1600, -54.654
1516.1800, -54.616
1516.2000, -54.601
1516.2200, -54.597
1516.2400, -54.580
1516.2600, -54.557
1516.2800, -54.550
1516.3000, -54.535
1516.3200, -54.516
1516.3400, -54.502
1516.3600, -54.488
1516.3800, -54.453
1516.4000, -54.445
1516.4200, -54.426
1516.4400, -54.398
1516.4600, -54.394
1516.4800, -54.383
1516.5000, -54.382
1516.5200, -54.352
1516.5400, -54.327
1516.5600, -54.319
1516.5800, -54.304
1516.6000, -54.276
1516.6200, -54.273
1516.6400, -54.246
1516.6600, -54.220
1516.6800, -54.199
1516.7000, -54.199
1516.7200, -54.174
1516.7400, -54.169
1516.7600, -54.143
1516.7800, -54.128
1516.8000, -54.115
1516.8200, -54.094
1516.8400, -54.078
1516.8600, -54.059
1516.8800, -54.040
1516.9000, -54.016
1516.9200, -54.007
1516.9400, -53.995
1516.9600, -53.969
1516.9800, -53.956
1517.0000, -53.926
1517.0200, -53.911
1517.0400, -53.903
1517.0600, -53.881
1517.0800, -53.865
1517.1000, -53.850
1517.1200, -53.826
1517.1400, -53.806
1517.1600, -53.795
1517.1800, -53.783
1517.2000, -53.754
1517.2200, -53.753
1517.2400, -53.734
1517.2600, -53.716
1517.2800, -53.696
1517.3000, -53.667
1517.3200, -53.647
1517.3400, -53.633
1517.3600, -53.603
1517.3800, -53.596
1517.4000, -53.568
1517.4200, -53.560
1517.4400, -53.541
1517.4600, -53.520
1517.4800, -53.499
1517.5000, -53.489
1517.5200, -53.463
1517.5400, -53.446
1517.5600, -53.424
1517.5800, -53.398
1517.6000, -53.375
1517.6200, -53.371
1517.6400, -53.343
1517.6600, -53.325
1517.6800, -53.298
1517.7000, -53.281
1517.7200, -53.261
1517.7400, -53.239
1517.7600, -53.214
1517.7800, -53.212
1517.8000, -53.190
1517.8200, -53.171
1517.8400, -53.154
1517.8600, -53.117
1517.8800, -53.106
1517.9000, -53.083
1517.9200, -53.055
1517.9400, -53.044
1517.9600, -53.014
1517.9800, -52.997
1518.0000, -52.985
1518.0200, -52.972
1518.0400, -52.943
1518.0600, -52.927
1518.0800, -52.914
1518.1000, -52.877
1518.1200, -52.867
1518.1400, -52.832
1518.1600, -52.810
1518.1800, -52.785
1518.2000, -52.771
1518.2200, -52.749
1518.2400, -52.735
1518.2600, -52.717
1518.2800, -52.691
1518.3000, -52.671
1518.3200, -52.645
1518.3400, -52.626
1518.3600, -52.600
1518.3800, -52.592
1518.4000, -52.571
1518.4200, -52.542
1518.4400, -52.537
1518.4600, -52.501
1518.4800, -52.477
1518.5000, -52.459
1518.5200, -52.427
1518.5400, -52.400
1518.5600, -52.376
1518.5800, -52.350
1518.6000, -52.328
1518.6200, -52.317
1518.6400, -52.283
1518.6600, -52.276
1518.6800, -52.243
1518.7000, -52.221
1518.7200, -52.207
1518.7400, -52.166
1518.7600, -52.150
1518.7800, -52.123
1518.8000, -52.108
1518.8200, -52.095
1518.8400, -52.054
1518.8600, -52.038
1518.8800, -52.010
1518.9000, -51.993
1518.9200, -51.972
1518.9400, -51.948
1518.9600, -51.928
1518.9800, -51.900
1519.0000, -51.873
1519.0200, -51.850
1519.0400, -51.832
1519.0600, -51.818
1519.0800, -51.790
1519.1000, -51.770
1519.1200, -51.750
1519.1400, -51.711
1519.1600, -51.694
1519.1800, -51.666
1519.2000, -51.635
1519.2200, -51.603
1519.2400, -51.580
1519.2600, -51.558
1519.2800, -51.529
1519.3000, -51.495
1519.3200, -51.491
1519.3400, -51.454
1519.3600, -51.417
1519.3800, -51.406
1519.4000, -51.372
1519.4200, -51.348
1519.4400, -51.323
1519.4600, -51.287
1519.4800, -51.257
1519.5000, -51.240
1519.5200, -51.208
1519.5400, -51.190
1519.5600, -51.167
1519.5800, -51.127
1519.6000, -51.115
1519.6200, -51.076
1519.6400, -51.046
1519.6600, -51.008
1519.6800, -50.983
1519.7000, -50.958
1519.7200, -50.937
1519.7400, -50.906
1519.7600, -50.899
1519.7800, -50.854
1519.8000, -50.831
1519.8200, -50.796
1519.8400, -50.779
1519.8600, -50.750
1519.8800, -50.720
1519.9000, -50.701
1519.9200, -50.666
1519.9400, -50.629
1519.9600, -50.606
1519.9800, -50.578
1520.0000, -50.559
1520.0200, -50.525
1520.0400, -50.485
1520.0600, -50.454
1520.0800, -50.427
1520.1000, -50.412
1520.1200, -50.377
1520.1400, -50.341
1520.1600, -50.297
1520.1800, -50.280
1520.2000, -50.253
1520.2200, -50.224
1520.2400, -50.187
1520.2600, -50.180
1520.2800, -50.130
1520.3000, -50.107
1520.3200, -50.077
1520.3400, -50.035
1520.3600, -50.003
1520.3800, -49.980
1520.4000, -49.939
1520.4200, -49.907
1520.4400, -49.879
1520.4600, -49.839
1520.4800, -49.819
1520.5000, -49.789
1520.5200, -49.744
1520.5400, -49.730
1520.5600, -49.686
1520.5800, -49.641
1520.6000, -49.611
1520.6200, -49.584
1520.6400, -49.552
1520.6600, -49.513
1520.6800, -49.483
1520.7000, -49.470
1520.7200, -49.431
1520.7400, -49.392
1520.7600, -49.352
1520.7800, -49.320
1520.8000, -49.291
1520.8200, -49.240
1520.8400, -49.227
1520.8600, -49.195
1520.8800, -49.156
1520.9000, -49.124
1520.9200, -49.084
1520.9400, -49.063
1520.9600, -49.026
1520.9800, -48.981
1521.0000, -48.947
1521.0200, -48.926
1521.0400, -48.883
1521.0600, -48.857
1521.0800, -48.809
1521.1000, -48.763
1521.1200, -48.733
1521.1400, -48.703
1521.1600, -48.664
1521.1800, -48.633
1521.2000, -48.616
1521.2200, -48.558
1521.2400, -48.531
1521.2600, -48.496
1521.2800, -48.450
1521.3000, -48.419
1521.3200, -48.384
1521.3400, -48.335
1521.3600, -48.300
1521.3800, -48.270
1521.4000, -48.221
1521.4200, -48.179
1521.4400, -48.150
1521.4600, -48.113
1521.4800, -48.095
1521.5000, -48.044
1521.5200, -47.991
1521.5400, -47.958
1521.5600, -47.931
1521.5800, -47.894
1521.6000, -47.852
1521.6200, -47.815
1521.6400, -47.788
1521.6600, -47.734
1521.6800, -47.691
1521.7000, -47.653
1521.7200, -47.619
1521.7400, -47.587
1521.7600, -47.552
1521.7800, -47.519
1521.8000, -47.463
1521.8200, -47.431
1521.8400, -47.393
1521.8600, -47.365
1521.8800, -47.332
1521.9000, -47.293
1521.9200, -47.259
1521.9400, -47.220
1521.9600, -47.177
1521.9800, -47.139
1522.0000, -47.102
1522.0200, -47.050
1522.0400, -47.002
1522.0600, -46.967
1522.0800, -46.939
1522.1000, -46.887
1522.1200, -46.856
1522.1400, -46.820
1522.1600, -46.770
1522.1800, -46.745
1522.2000, -46.707
1522.2200, -46.655
1522.2400, -46.623
1522.2600, -46.582
1522.2800, -46.523
1522.3000, -46.489
1522.3200, -46.455
1522.3400, -46.407
1522.3600, -46.372
1522.3800, -46.329
1522.4000, -46.288
1522.4200, -46.259
1522.4400, -46.206
1522.4600, -46.171
1522.4800, -46.139
1522.5000, -46.085
1522.5200, -46.052
1522.5400, -46.004
1522.5600, -45.961
1522.5800, -45.925
1522.6000, -45.872
1522.6200, -45.828
1522.6400, -45.791
1522.6600, -45.754
1522.6800, -45.724
1522.7000, -45.685
1522.7200, -45.639
1522.7400, -45.594
1522.7600, -45.552
1522.7800, -45.514
1522.8000, -45.482
1522.8200, -45.446
1522.8400, -45.410
1522.8600, -45.370
1522.8800, -45.326
1522.9000, -45.278
1522.9200, -45.243
1522.9400, -45.199
1522.9600, -45.155
1522.9800, -45.115
1523.0000, -45.070
1523.0200, -45.032
1523.0400, -44.985
1523.0600, -44.944
1523.0800, -44.918
1523.1000, -44.870
1523.1200, -44.836
1523.1400, -44.795
1523.1600, -44.747
1523.1800, -44.710
1523.2000, -44.663
1523.2200, -44.617
1523.2400, -44.579
1523.2600, -44.541
1523.2800, -44.491
1523.3000, -44.457
1523.3200, -44.417
1523.3400, -44.377
1523.3600, -44.336
1523.3800, -44.278
1523.4000, -44.251
1523.4200, -44.209
1523.4400, -44.174
1523.4600, -44.138
1523.4800, -44.082
1523.5000, -44.046
1523.5200, -44.002
1523.5400, -43.958
1523.5600, -43.915
1523.5800, -43.880
1523.6000, -43.840
1523.6200, -43.808
1523.6400, -43.768
1523.6600, -43.721
1523.6800, -43.687
1523.7000, -43.648
1523.7200, -43.604
1523.7400, -43.568
1523.7600, -43.533
1523.7800, -43.498
1523.8000, -43.458
1523.8200, -43.418
1523.8400, -43.372
1523.8600, -43.327
1523.8800, -43.284
1523.9000, -43.244
1523.9200, -43.205
1523.9400, -43.166
1523.9600, -43.127
1523.9800, -43.085
1524.0000, -43.047
1524.0200, -43.006
1524.0400, -42.961
1524.0600, -42.930
1524.0800, -42.890
1524.1000, -42.847
1524.1200, -42.808
1524.1400, -42.765
1524.1600, -42.725
1524.1800, -42.686
1524.2000, -42.642
1524.2200, -42.605
1524.2400, -42.568
1524.2600, -42.523
1524.2800, -42.492
1524.3000, -42.454
1524.3200, -42.401
1524.3400, -42.372
1524.3600, -42.337
1524.3800, -42.295
1524.4000, -42.254
1524.4200, -42.213
1524.4400, -42.181
1524.4600, -42.138
1524.4800, -42.098
1524.5000, -42.057
1524.5200, -42.019
1524.5400, -41.982
1524.5600, -41.946
1524.5800, -41.914
1524.6000, -41.875
1524.6200, -41.834
1524.6400, -41.800
1524.6600, -41.757
1524.6800, -41.722
1524.7000, -41.685
1524.7200, -41.649
1524.7400, -41.614
1524.7600, -41.579
1524.7800, -41.536
1524.8000, -41.489
1524.8200, -41.449
1524.8400, -41.413
1524.8600, -41.372
1524.8800, -41.332
1524.9000, -41.290
1524.9200, -41.256
1524.9400, -41.221
1524.9600, -41.180
1524.9800, -41.140
1525.0000, -41.109
1525.0200, -41.062
1525.0400, -41.028
1525.0600, -40.982
1525.0800, -40.941
1525.1000, -40.904
1525.1200, -40.865
1525.1400, -40.824
1525.1600, -40.787
1525.1800, -40.749
1525.2000, -40.708
1525.2200, -40.682
1525.2400, -40.634
1525.2600, -40.594
1525.2800, -40.573
1525.3000, -40.538
1525.3200, -40.498
1525.3400, -40.450
1525.3600, -40.421
1525.3800, -40.379
1525.4000, -40.343
1525.4200, -40.304
1525.4400, -40.267
1525.4600, -40.227
1525.4800, -40.192
1525.5000, -40.152
1525.5200, -40.113
1525.5400, -40.073
1525.5600, -40.039
1525.5800, -40.003
1525.6000, -39.970
1525.6200, -39.937
1525.6400, -39.899
1525.6600, -39.864
1525.6800, -39.825
1525.7000, -39.787
1525.7200, -39.740
1525.7400, -39.700
1525.7600, -39.662
1525.7800, -39.624
1525.8000, -39.584
1525.8200, -39.537
1525.8400, -39.496
1525.8600, -39.461
1525.8800, -39.430
1525.9000, -39.392
1525.9200, -39.356
1525.9400, -39.325
1525.9600, -39.281
1525.9800, -39.247
1526.0000, -39.202
1526.0200, -39.169
1526.0400, -39.134
1526.0600, -39.091
1526.0800, -39.056
1526.1000, -39.020
1526.1200, -38.983
1526.1400, -38.948
1526.1600, -38.913
1526.1800, -38.861
1526.2000, -38.840
1526.2200, -38.804
1526.2400, -38.763
1526.2600, -38.723
1526.2800, -38.678
1526.3000, -38.654
1526.3200, -38.609
1526.3400, -38.577
1526.3600, -38.537
1526.3800, -38.509
1526.4000, -38.478
1526.4200, -38.448
1526.4400, -38.413
1526.4600, -38.375
1526.4800, -38.336
1526.5000, -38.303
1526.5200, -38.265
1526.5400, -38.236
1526.5600, -38.203
1526.5800, -38.167
1526.6000, -38.128
1526.6200, -38.094
1526.6400, -38.052
1526.6600, -38.010
1526.6800, -37.974
1526.7000, -37.945
1526.7200, -37.903
1526.7400, -37.863
1526.7600, -37.819
1526.7800, -37.784
1526.8000, -37.752
1526.8200, -37.719
1526.8400, -37.685
1526.8600, -37.662
1526.8800, -37.607
1526.9000, -37.574
1526.9200, -37.519
1526.9400, -37.482
1526.9600, -37.448
1526.9800, -37.405
1527.0000, -37.363
1527.0200, -37.329
1527.0400, -37.292
1527.0600, -37.255
1527.0800, -37.235
1527.1000, -37.178
1527.1200, -37.133
1527.1400, -37.120
1527.1600, -37.086
1527.1800, -37.051
1527.2000, -36.998
1527.2200, -36.970
1527.2400, -36.926
1527.2600, -36.891
1527.2800, -36.849
1527.3000, -36.822
1527.3200, -36.785
1527.3400, -36.762
1527.3600, -36.729
1527.3800, -36.682
1527.4000, -36.641
1527.4200, -36.604
1527.4400, -36.571
1527.4600, -36.533
1527.4800, -36.508
1527.5000, -36.467
1527.5200, -36.422
1527.5400, -36.384
1527.5600, -36.345
1527.5800, -36.292
1527.6000, -36.249
1527.6200, -36.221
1527.6400, -36.179
1527.6600, -36.138
1527.6800, -36.096
1527.7000, -36.045
1527.7200, -36.006
1527.7400, -35.971
1527.7600, -35.934
1527.7800, -35.904
1527.8000, -35.863
1527.8200, -35.820
1527.8400, -35.792
1527.8600, -35.735
1527.8800, -35.699
1527.9000, -35.663
1527.9200, -35.607
1527.9400, -35.570
1527.9600, -35.534
1527.9800, -35.495
1528.0000, -35.461
1528.0200, -35.421
1528.0400, -35.348
1528.0600, -35.333
1528.0800, -35.299
1528.1000, -35.257
1528.1200, -35.208
1528.1400, -35.150
1528.1600, -35.129
1528.1800, -35.081
1528.2000, -35.035
1528.2200, -34.980
1528.2400, -34.951
1528.2600, -34.915
1528.2800, -34.886
1528.3000, -34.856
1528.3200, -34.815
1528.3400, -34.772
1528.3600, -34.749
1528.3800, -34.697
1528.4000, -34.675
1528.4200, -34.642
1528.4400, -34.610
1528.4600, -34.572
1528.4800, -34.533
1528.5000, -34.487
1528.5200, -34.438
1528.5400, -34.399
1528.5600, -34.369
1528.5800, -34.329
1528.6000, -34.277
1528.6200, -34.230
1528.6400, -34.206
1528.6600, -34.173
1528.6800, -34.139
1528.7000, -34.099
1528.7200, -34.069
1528.7400, -34.001
1528.7600, -33.971
1528.7800, -33.912
1528.8000, -33.872
1528.8200, -33.817
1528.8400, -33.761
1528.8600, -33.712
1528.8800, -33.678
1528.9000, -33.640
1528.9200, -33.600
1528.9400, -33.580
1528.9600, -33.498
1528.9800, -33.460
1529.0000, -33.421
1529.0200, -33.400
1529.0400, -33.349
1529.0600, -33.296
1529.0800, -33.278
1529.1000, -33.239
1529.1200, -33.201
1529.1400, -33.145
1529.1600, -33.120
1529.1800, -33.082
1529.2000, -33.055
1529.2200, -33.012
1529.2400, -32.960
1529.2600, -32.907
1529.2800, -32.872
1529.3000, -32.855
1529.3200, -32.795
1529.3400, -32.770
1529.3600, -32.727
1529.3800, -32.688
1529.4000, -32.626
1529.4200, -32.594
1529.4400, -32.548
1529.4600, -32.515
1529.4800, -32.473
1529.5000, -32.439
1529.5200, -32.385
1529.5400, -32.344
1529.5600, -32.313
1529.5800, -32.274
1529.6000, -32.256
1529.6200, -32.168
1529.6400, -32.132
1529.6600, -32.073
1529.6800, -32.041
1529.7000, -32.005
1529.7200, -31.952
1529.7400, -31.899
1529.7600, -31.851
1529.7800, -31.795
1529.8000, -31.739
1529.8200, -31.689
1529.8400, -31.621
1529.8600, -31.598
1529.8800, -31.538
1529.9000, -31.478
1529.9200, -31.439
1529.9400, -31.400
1529.9600, -31.354
1529.9800, -31.274
1530.0000, -31.217
1530.0200, -31.173
1530.0400, -31.120
1530.0600, -31.056
1530.0800, -31.014
1530.1000, -30.983
1530.1200, -30.950
1530.1400, -30.918
1530.1600, -30.888
1530.1800, -30.848
1530.2000, -30.787
1530.2200, -30.827
1530.2400, -30.730
1530.2600, -30.742
1530.2800, -30.767
1530.3000, -30.766
1530.3200, -30.655
1530.3400, -30.604
1530.3600, -30.537
1530.3800, -30.484
1530.4000, -30.385
1530.4200, -30.293
1530.4400, -30.297
1530.4600, -30.229
1530.4800, -30.173
1530.5000, -30.170
1530.5200, -30.219
1530.5400, -30.115
1530.5600, -30.023
1530.5800, -30.055
1530.6000, -30.000
1530.6200, -29.960
1530.6400, -29.901
1530.6600, -29.879
1530.6800, -29.948
1530.7000, -29.798
1530.7200, -29.815
1530.7400, -29.869
1530.7600, -29.771
1530.7800, -29.750
1530.8000, -29.712
1530.8200, -29.732
1530.8400, -29.795
1530.8600, -29.660
1530.8800, -29.607
1530.9000, -29.571
1530.9200, -29.475
1530.9400, -29.373
1530.9600, -29.458
1530.9800, -29.449
1531.0000, -29.391
1531.0200, -29.453
1531.0400, -29.521
1531.0600, -29.446
1531.0800, -29.402
1531.1000, -29.319
1531.1200, -29.312
1531.1400, -29.252
1531.1600, -29.195
1531.1800, -29.267
1531.2000, -29.189
1531.2200, -29.047
1531.2400, -29.017
1531.2600, -29.014
1531.2800, -28.909
1531.3000, -28.872
1531.3200, -28.718
1531.3400, -28.678
1531.3600, -28.543
1531.3800, -28.670
1531.4000, -28.588
1531.4200, -28.511
1531.4400, -28.613
1531.4600, -28.564
1531.4800, -28.679
1531.5000, -28.570
1531.5200, -28.509
1531.5400, -28.511
1531.5600, -28.620
1531.5800, -28.542
1531.6000, -28.532
1531.6200, -28.573
1531.6400, -28.501
1531.6600, -28.481
1531.6800, -28.429
1531.7000, -28.433
1531.7200, -28.405
1531.7400, -28.275
1531.7600, -28.329
1531.7800, -27.954
1531.8000, -28.206
1531.8200, -28.224
1531.8400, -28.255
1531.8600, -28.022
1531.8800, -27.944
1531.9000, -28.050
1531.9200, -27.660
1531.9400, -27.990
1531.9600, -27.924
1531.9800, -27.864
1532.0000, -27.724
1532.0200, -27.968
1532.0400, -27.811
1532.0600, -27.149
1532.0800, -27.664
1532.1000, -28.122
1532.1200, -28.036
1532.1400, -28.097
1532.1600, -28.152
1532.1800, -28.075
1532.2000, -28.111
1532.2200, -28.130
1532.2400, -28.262
1532.2600, -28.081
1532.2800, -28.138
1532.3000, -27.940
1532.3200, -27.724
1532.3400, -27.839
1532.3600, -27.587
1532.3800, -27.940
1532.4000, -27.729
1532.4200, -27.891
1532.4400, -28.221
1532.4600, -28.049
1532.4800, -28.166
1532.5000, -27.481
1532.5200, -27.800
1532.5400, -27.787
1532.5600, -27.652
1532.5800, -27.678
1532.6000, -27.835
1532.6200, -28.056
1532.6400, -28.333
1532.6600, -27.866
1532.6800, -28.074
1532.7000, -28.306
1532.7200, -28.279
1532.7400, -28.478
1532.7600, -28.356
1532.7800, -28.398
1532.8000, -28.157
1532.8200, -28.416
1532.8400, -28.568
1532.8600, -28.630
1532.8800, -28.676
1532.9000, -28.559
1532.9200, -27.843
1532.9400, -28.463
1532.9600, -28.871
1532.9800, -28.982
1533.0000, -29.112
1533.0200, -28.967
1533.0400, -29.128
1533.0600, -29.243
1533.0800, -29.171
1533.1000, -29.203
1533.1200, -29.213
1533.1400, -29.179
1533.1600, -29.185
1533.1800, -28.965
1533.2000, -29.125
1533.2200, -29.428
1533.2400, -29.324
1533.2600, -29.408
1533.2800, -29.522
1533.3000, -29.575
1533.3200, -29.488
1533.3400, -29.718
1533.3600, -29.562
1533.3800, -29.730
1533.4000, -29.655
1533.4200, -29.755
1533.4400, -29.755
1533.4600, -29.857
1533.4800, -29.959
1533.5000, -29.996
1533.5200, -30.034
1533.5400, -30.080
1533.5600, -30.355
1533.5800, -30.231
1533.6000, -30.389
1533.6200, -30.530
1533.6400, -30.618
1533.6600, -30.676
1533.6800, -30.692
1533.7000, -30.784
1533.7200, -30.837
1533.7400, -31.007
1533.7600, -31.098
1533.7800, -31.109
1533.8000, -31.152
1533.8200, -31.294
1533.8400, -31.442
1533.8600, -31.475
1533.8800, -31.472
1533.9000, -31.649
1533.9200, -31.700
1533.9400, -31.780
1533.9600, -31.844
1533.9800, -31.889
1534.0000, -31.931
1534.0200, -31.986
1534.0400, -31.983
1534.0600, -32.107
1534.0800, -32.190
1534.1000, -32.168
1534.1200, -32.322
1534.1400, -32.330
1534.1600, -32.402
1534.1800, -32.500
1534.2000, -32.500
1534.2200, -32.524
1534.2400, -32.518
1534.2600, -32.624
1534.2800, -32.676
1534.3000, -32.843
1534.3200, -32.871
1534.3400, -32.954
1534.3600, -33.014
1534.3800, -32.995
1534.4000, -33.068
1534.4200, -33.212
1534.4400, -33.216
1534.4600, -33.349
1534.4800, -33.349
1534.5000, -33.468
1534.5200, -33.478
1534.5400, -33.542
1534.5600, -33.563
1534.5800, -33.649
1534.6000, -33.691
1534.6200, -33.770
1534.6400, -33.778
1534.6600, -33.849
1534.6800, -33.882
1534.7000, -33.994
1534.7200, -33.997
1534.7400, -34.082
1534.7600, -34.139
1534.7800, -34.224
1534.8000, -34.294
1534.8200, -34.367
1534.8400, -34.401
1534.8600, -34.501
1534.8800, -34.575
1534.9000, -34.638
1534.9200, -34.699
1534.9400, -34.757
1534.9600, -34.774
1534.9800, -34.833
1535.0000, -34.896
1535.0200, -34.949
1535.0400, -35.023
1535.0600, -35.064
1535.0800, -35.109
1535.1000, -35.177
1535.1200, -35.243
1535.1400, -35.298
1535.1600, -35.344
1535.1800, -35.413
1535.2000, -35.469
1535.2200, -35.518
1535.2400, -35.565
1535.2600, -35.621
1535.2800, -35.698
1535.3000, -35.754
1535.3200, -35.807
1535.3400, -35.871
1535.3600, -35.926
1535.3800, -35.949
1535.4000, -36.020
1535.4200, -36.081
1535.4400, -36.126
1535.4600, -36.173
1535.4800, -36.146
1535.5000, -36.224
1535.5200, -36.335
1535.5400, -36.400
1535.5600, -36.446
1535.5800, -36.506
1535.6000, -36.554
1535.6200, -36.609
1535.6400, -36.657
1535.6600, -36.720
1535.6800, -36.777
1535.7000, -36.825
1535.7200, -36.861
1535.7400, -36.917
1535.7600, -36.966
1535.7800, -37.034
1535.8000, -37.091
1535.8200, -37.136
1535.8400, -37.183
1535.8600, -37.228
1535.8800, -37.268
1535.9000, -37.311
1535.9200, -37.350
1535.9400, -37.385
1535.9600, -37.445
1535.9800, -37.489
1536.0000, -37.519
1536.0200, -37.571
1536.0400, -37.621
1536.0600, -37.673
1536.0800, -37.718
1536.1000, -37.769
1536.1200, -37.807
1536.1400, -37.853
1536.1600, -37.889
1536.1800, -37.922
1536.2000, -37.970
1536.2200, -38.008
1536.2400, -38.040
1536.2600, -38.088
1536.2800, -38.124
1536.3000, -38.156
1536.3200, -38.214
1536.3400, -38.247
1536.3600, -38.293
1536.3800, -38.334
1536.4000, -38.378
1536.4200, -38.417
1536.4400, -38.459
1536.4600, -38.497
1536.4800, -38.527
1536.5000, -38.570
1536.5200, -38.605
1536.5400, -38.648
1536.5600, -38.687
1536.5800, -38.729
1536.6000, -38.763
1536.6200, -38.793
1536.6400, -38.825
1536.6600, -38.851
1536.6800, -38.881
1536.7000, -38.928
1536.7200, -38.969
1536.7400, -38.999
1536.7600, -39.032
1536.7800, -39.070
1536.8000, -39.097
1536.8200, -39.126
1536.8400, -39.156
1536.8600, -39.186
1536.8800, -39.226
1536.9000, -39.253
1536.9200, -39.282
1536.9400, -39.319
1536.9600, -39.346
1536.9800, -39.388
1537.0000, -39.421
1537.0200, -39.454
1537.0400, -39.478
1537.0600, -39.510
1537.0800, -39.534
1537.1000, -39.554
1537.1200, -39.580
1537.1400, -39.602
1537.1600, -39.634
1537.1800, -39.663
1537.2000, -39.700
1537.2200, -39.724
1537.2400, -39.756
1537.2600, -39.771
1537.2800, -39.802
1537.3000, -39.826
1537.3200, -39.851
1537.3400, -39.873
1537.3600, -39.894
1537.3800, -39.923
1537.4000, -39.953
1537.4200, -39.971
1537.4400, -39.989
1537.4600, -40.015
1537.4800, -40.044
1537.5000, -40.068
1537.5200, -40.098
1537.5400, -40.114
1537.5600, -40.137
1537.5800, -40.155
1537.6000, -40.175
1537.6200, -40.211
1537.6400, -40.235
1537.6600, -40.254
1537.6800, -40.275
1537.7000, -40.291
1537.7200, -40.313
1537.7400, -40.322
1537.7600, -40.337
1537.7800, -40.362
1537.8000, -40.385
1537.8200, -40.411
1537.8400, -40.424
1537.8600, -40.446
1537.8800, -40.463
1537.9000, -40.490
1537.9200, -40.512
1537.9400, -40.525
1537.9600, -40.542
1537.9800, -40.561
1538.0000, -40.573
1538.0200, -40.585
1538.0400, -40.604
1538.0600, -40.618
1538.0800, -40.640
1538.1000, -40.654
1538.1200, -40.675
1538.1400, -40.698
1538.1600, -40.715
1538.1800, -40.728
1538.2000, -40.746
1538.2200, -40.763
1538.2400, -40.777
1538.2600, -40.787
1538.2800, -40.788
1538.3000, -40.810
1538.3200, -40.830
1538.3400, -40.831
1538.3600, -40.840
1538.3800, -40.858
1538.4000, -40.879
1538.4200, -40.900
1538.4400, -40.905
1538.4600, -40.915
1538.4800, -40.934
1538.5000, -40.944
1538.5200, -40.961
1538.5400, -40.976
1538.5600, -40.989
1538.5800, -41.004
1538.6000, -41.011
1538.6200, -41.018
1538.6400, -41.028
1538.6600, -41.034
1538.6800, -41.035
1538.7000, -41.052
1538.7200, -41.064
1538.7400, -41.071
1538.7600, -41.077
1538.7800, -41.088
1538.8000, -41.107
1538.8200, -41.106
1538.8400, -41.128
1538.8600, -41.130
1538.8800, -41.138
1538.9000, -41.142
1538.9200, -41.143
1538.9400, -41.150
1538.9600, -41.152
1538.9800, -41.162
1539.0000, -41.173
1539.0200, -41.185
1539.0400, -41.192
1539.0600, -41.209
1539.0800, -41.206
1539.1000, -41.214
1539.1200, -41.221
1539.1400, -41.232
1539.1600, -41.232
1539.1800, -41.243
1539.2000, -41.253
1539.2200, -41.248
1539.2400, -41.262
1539.2600, -41.257
1539.2800, -41.261
1539.3000, -41.269
1539.3200, -41.285
1539.3400, -41.291
1539.3600, -41.294
1539.3800, -41.290
1539.4000, -41.301
1539.4200, -41.308
1539.4400, -41.314
1539.4600, -41.319
1539.4800, -41.327
1539.5000, -41.332
1539.5200, -41.337
1539.5400, -41.338
1539.5600, -41.340
1539.5800, -41.346
1539.6000, -41.345
1539.6200, -41.357
1539.6400, -41.354
1539.6600, -41.351
1539.6800, -41.362
1539.7000, -41.372
1539.7200, -41.369
1539.7400, -41.364
1539.7600, -41.374
1539.7800, -41.372
1539.8000, -41.368
1539.8200, -41.371
1539.8400, -41.367
1539.8600, -41.368
1539.8800, -41.366
1539.9000, -41.371
1539.9200, -41.390
1539.9400, -41.375
1539.9600, -41.374
1539.9800, -41.343
1540.0000, -41.381
1540.0200, -41.386
1540.0400, -41.388
1540.0600, -41.389
1540.0800, -41.393
1540.1000, -41.401
1540.1200, -41.393
1540.1400, -41.400
1540.1600, -41.403
1540.1800, -41.387
1540.2000, -41.399
1540.2200, -41.406
1540.2400, -41.407
1540.2600, -41.409
1540.2800, -41.409
1540.3000, -41.396
1540.3200, -41.397
1540.3400, -41.396
1540.3600, -41.400
1540.3800, -41.399
1540.4000, -41.394
1540.4200, -41.394
1540.4400, -41.397
1540.4600, -41.398
1540.4800, -41.394
1540.5000, -41.391
1540.5200, -41.390
1540.5400, -41.389
1540.5600, -41.388
1540.5800, -41.385
1540.6000, -41.397
1540.6200, -41.395
1540.6400, -41.389
1540.6600, -41.387
1540.6800, -41.387
1540.7000, -41.379
1540.7200, -41.376
1540.7400, -41.375
1540.7600, -41.371
1540.7800, -41.361
1540.8000, -41.358
1540.8200, -41.368
1540.8400, -41.361
1540.8600, -41.357
1540.8800, -41.362
1540.9000, -41.362
1540.9200, -41.352
1540.9400, -41.345
1540.9600, -41.344
1540.9800, -41.345
1541.0000, -41.347
1541.0200, -41.343
1541.0400, -41.334
1541.0600, -41.332
1541.0800, -41.332
1541.1000, -41.321
1541.1200, -41.317
1541.1400, -41.322
1541.1600, -41.325
1541.1800, -41.323
1541.2000, -41.318
1541.2200, -41.308
1541.2400, -41.303
1541.2600, -41.311
1541.2800, -41.312
1541.3000, -41.309
1541.3200, -41.303
1541.3400, -41.300
1541.3600, -41.303
1541.3800, -41.295
1541.4000, -41.291
1541.4200, -41.282
1541.4400, -41.287
1541.4600, -41.282
1541.4800, -41.277
1541.5000, -41.284
1541.5200, -41.288
1541.5400, -41.281
1541.5600, -41.264
1541.5800, -41.274
1541.6000, -41.265
1541.6200, -41.259
1541.6400, -41.252
1541.6600, -41.243
1541.6800, -41.248
1541.7000, -41.239
1541.7200, -41.236
1541.7400, -41.234
1541.7600, -41.227
1541.7800, -41.222
1541.8000, -41.222
1541.8200, -41.215
1541.8400, -41.219
1541.8600, -41.205
1541.8800, -41.200
1541.9000, -41.207
1541.9200, -41.199
1541.9400, -41.192
1541.9600, -41.187
1541.9800, -41.190
1542.0000, -41.182
1542.0200, -41.173
1542.0400, -41.170
1542.0600, -41.172
1542.0800, -41.168
1542.1000, -41.163
1542.1200, -41.154
1542.1400, -41.154
1542.1600, -41.149
1542.1800, -41.149
1542.2000, -41.141
1542.2200, -41.136
1542.2400, -41.131
1542.2600, -41.127
1542.2800, -41.127
1542.3000, -41.115
1542.3200, -41.108
1542.3400, -41.106
1542.3600, -41.104
1542.3800, -41.094
1542.4000, -41.089
1542.4200, -41.098
1542.4400, -41.082
1542.4600, -41.077
1542.4800, -41.080
1542.5000, -41.078
1542.5200, -41.062
1542.5400, -41.063
1542.5600, -41.053
1542.5800, -41.045
1542.6000, -41.044
1542.6200, -41.042
1542.6400, -41.046
1542.6600, -41.038
1542.6800, -41.035
1542.7000, -41.040
1542.7200, -41.031
1542.7400, -41.019
1542.7600, -41.013
1542.7800, -41.013
1542.8000, -41.008
1542.8200, -41.007
1542.8400, -41.011
1542.8600, -41.006
1542.8800, -41.004
1542.9000, -41.001
1542.9200, -40.992
1542.9400, -40.990
1542.9600, -40.985
1542.9800, -40.983
1543.0000, -40.981
1543.0200, -40.977
1543.0400, -40.968
1543.0600, -40.968
1543.0800, -40.964
1543.1000, -40.959
1543.1200, -40.952
1543.1400, -40.947
1543.1600, -40.943
1543.1800, -40.941
1543.2000, -40.940
1543.2200, -40.936
1543.2400, -40.934
1543.2600, -40.931
1543.2800, -40.928
1543.3000, -40.923
1543.3200, -40.922
1543.3400, -40.928
1543.3600, -40.913
1543.3800, -40.906
1543.4000, -40.915
1543.4200, -40.895
1543.4400, -40.895
1543.4600, -40.890
1543.4800, -40.886
1543.5000, -40.878
1543.5200, -40.870
1543.5400, -40.868
1543.5600, -40.875
1543.5800, -40.859
1543.6000, -40.862
1543.6200, -40.869
1543.6400, -40.853
1543.6600, -40.847
1543.6800, -40.859
1543.7000, -40.858
1543.7200, -40.841
1543.7400, -40.833
1543.7600, -40.838
1543.7800, -40.830
1543.8000, -40.826
1543.8200, -40.826
1543.8400, -40.827
1543.8600, -40.828
1543.8800, -40.823
1543.9000, -40.822
1543.9200, -40.827
1543.9400, -40.824
1543.9600, -40.823
1543.9800, -40.822
1544.0000, -40.820
1544.0200, -40.822
1544.0400, -40.824
1544.0600, -40.813
1544.0800, -40.810
1544.1000, -40.806
1544.1200, -40.803
1544.1400, -40.796
1544.1600, -40.792
1544.1800, -40.797
1544.2000, -40.794
1544.2200, -40.793
1544.2400, -40.798
1544.2600, -40.804
1544.2800, -40.789
1544.3000, -40.795
1544.3200, -40.777
1544.3400, -40.777
1544.3600, -40.778
1544.3800, -40.776
1544.4000, -40.774
1544.4200, -40.775
1544.4400, -40.770
1544.4600, -40.767
1544.4800, -40.772
1544.5000, -40.761
1544.5200, -40.772
1544.5400, -40.756
1544.5600, -40.747
1544.5800, -40.758
1544.6000, -40.760
1544.6200, -40.746
1544.6400, -40.745
1544.6600, -40.751
1544.6800, -40.747
1544.7000, -40.748
1544.7200, -40.747
1544.7400, -40.749
1544.7600, -40.753
1544.7800, -40.746
1544.8000, -40.753
1544.8200, -40.754
1544.8400, -40.750
1544.8600, -40.750
1544.8800, -40.747
1544.9000, -40.749
1544.9200, -40.743
1544.9400, -40.732
1544.9600, -40.739
1544.9800, -40.746
1545.0000, -40.747
1545.0200, -40.739
1545.0400, -40.737
1545.0600, -40.740
1545.0800, -40.741
1545.1000, -40.749
1545.1200, -40.735
1545.1400, -40.734
1545.1600, -40.739
1545.1800, -40.734
1545.2000, -40.732
1545.2200, -40.731
1545.2400, -40.725
1545.2600, -40.735
1545.2800, -40.729
1545.3000, -40.728
1545.3200, -40.734
1545.3400, -40.730
1545.3600, -40.727
1545.3800, -40.729
1545.4000, -40.725
1545.4200, -40.726
1545.4400, -40.721
1545.4600, -40.710
1545.4800, -40.711
1545.5000, -40.718
1545.5200, -40.704
1545.5400, -40.700
1545.5600, -40.710
1545.5800, -40.703
1545.6000, -40.705
1545.6200, -40.707
1545.6400, -40.709
1545.6600, -40.714
1545.6800, -40.711
1545.7000, -40.711
1545.7200, -40.717
1545.7400, -40.712
1545.7600, -40.706
1545.7800, -40.705
1545.8000, -40.709
1545.8200, -40.701
1545.8400, -40.696
1545.8600, -40.696
1545.8800, -40.702
1545.9000, -40.705
1545.9200, -40.710
1545.9400, -40.702
1545.9600, -40.705
1545.9800, -40.702
1546.0000, -40.703
1546.0200, -40.701
1546.0400, -40.699
1546.0600, -40.700
1546.0800, -40.702
1546.1000, -40.700
1546.1200, -40.700
1546.1400, -40.687
1546.1600, -40.695
1546.1800, -40.695
1546.2000, -40.698
1546.2200, -40.693
1546.2400, -40.691
1546.2600, -40.696
1546.2800, -40.694
1546.3000, -40.701
1546.3200, -40.697
1546.3400, -40.698
1546.3600, -40.692
1546.3800, -40.694
1546.4000, -40.701
1546.4200, -40.702
1546.4400, -40.697
1546.4600, -40.700
1546.4800, -40.711
1546.5000, -40.707
1546.5200, -40.700
1546.5400, -40.701
1546.5600, -40.705
1546.5800, -40.707
1546.6000, -40.712
1546.6200, -40.715
1546.6400, -40.711
1546.6600, -40.709
1546.6800, -40.716
1546.7000, -40.720
1546.7200, -40.714
1546.7400, -40.723
1546.7600, -40.724
1546.7800, -40.710
1546.8000, -40.712
1546.8200, -40.714
1546.8400, -40.710
1546.8600, -40.712
1546.8800, -40.707
1546.9000, -40.713
1546.9200, -40.709
1546.9400, -40.701
1546.9600, -40.712
1546.9800, -40.716
1547.0000, -40.715
1547.0200, -40.716
1547.0400, -40.706
1547.0600, -40.706
1547.0800, -40.709
1547.1000, -40.709
1547.1200, -40.699
1547.1400, -40.703
1547.1600, -40.709
1547.1800, -40.708
1547.2000, -40.718
1547.2200, -40.719
1547.2400, -40.716
1547.2600, -40.711
1547.2800, -40.704
1547.3000, -40.717
1547.3200, -40.711
1547.3400, -40.712
1547.3600, -40.724
1547.3800, -40.730
1547.4000, -40.720
1547.4200, -40.713
1547.4400, -40.712
1547.4600, -40.715
1547.4800, -40.718
1547.5000, -40.721
1547.5200, -40.723
1547.5400, -40.718
1547.5600, -40.722
1547.5800, -40.723
1547.6000, -40.725
1547.6200, -40.722
1547.6400, -40.726
1547.6600, -40.729
1547.6800, -40.734
1547.7000, -40.742
1547.7200, -40.747
1547.7400, -40.742
1547.7600, -40.739
1547.7800, -40.732
1547.8000, -40.738
1547.8200, -40.741
1547.8400, -40.736
1547.8600, -40.737
1547.8800, -40.737
1547.9000, -40.731
1547.9200, -40.742
1547.9400, -40.729
1547.9600, -40.734
1547.9800, -40.736
1548.0000, -40.742
1548.0200, -40.740
1548.0400, -40.742
1548.0600, -40.741
1548.0800, -40.741
1548.1000, -40.745
1548.1200, -40.739
1548.1400, -40.747
1548.1600, -40.741
1548.1800, -40.742
1548.2000, -40.758
1548.2200, -40.759
1548.2400, -40.751
1548.2600, -40.760
1548.2800, -40.763
1548.3000, -40.763
1548.3200, -40.760
1548.3400, -40.761
1548.3600, -40.762
1548.3800, -40.767
1548.4000, -40.773
1548.4200, -40.771
1548.4400, -40.769
1548.4600, -40.774
1548.4800, -40.777
1548.5000, -40.782
1548.5200, -40.782
1548.5400, -40.775
1548.5600, -40.773
1548.5800, -40.785
1548.6000, -40.787
1548.6200, -40.785
1548.6400, -40.777
1548.6600, -40.787
1548.6800, -40.778
1548.7000, -40.792
1548.7200, -40.792
1548.7400, -40.793
1548.7600, -40.804
1548.7800, -40.807
1548.8000, -40.792
1548.8200, -40.801
1548.8400, -40.801
1548.8600, -40.808
1548.8800, -40.807
1548.9000, -40.805
1548.9200, -40.812
1548.9400, -40.813
1548.9600, -40.811
1548.9800, -40.814
1549.0000, -40.813
1549.0200, -40.811
1549.0400, -40.819
1549.0600, -40.805
1549.0800, -40.812
1549.1000, -40.822
1549.1200, -40.822
1549.1400, -40.808
1549.1600, -40.813
1549.1800, -40.820
1549.2000, -40.823
1549.2200, -40.825
1549.2400, -40.828
1549.2600, -40.826
1549.2800, -40.826
1549.3000, -40.824
1549.3200, -40.829
1549.3400, -40.826
1549.3600, -40.831
1549.3800, -40.829
1549.4000, -40.834
1549.4200, -40.843
1549.4400, -40.846
1549.4600, -40.850
1549.4800, -40.852
1549.5000, -40.855
1549.5200, -40.856
1549.5400, -40.855
1549.5600, -40.855
1549.5800, -40.859
1549.6000, -40.860
1549.6200, -40.857
1549.6400, -40.862
1549.6600, -40.876
1549.6800, -40.878
1549.7000, -40.869
1549.7200, -40.880
1549.7400, -40.868
1549.7600, -40.879
1549.7800, -40.879
1549.8000, -40.881
1549.8200, -40.889
1549.8400, -40.888
1549.8600, -40.892
1549.8800, -40.903
1549.9000, -40.901
1549.9200, -40.898
1549.9400, -40.904
1549.9600, -40.894
1549.9800, -40.898
1550.0000, -40.909
1550.0200, -40.917
1550.0400, -40.905
1550.0600, -40.910
1550.0800, -40.910
1550.1000, -40.919
1550.1200, -40.914
1550.1400, -40.915
1550.1600, -40.914
1550.1800, -40.916
1550.2000, -40.921
1550.2200, -40.925
1550.2400, -40.924
1550.2600, -40.933
1550.2800, -40.934
1550.3000, -40.943
1550.3200, -40.944
1550.3400, -40.943
1550.3600, -40.945
1550.3800, -40.948
1550.4000, -40.951
1550.4200, -40.951
1550.4400, -40.956
1550.4600, -40.956
1550.4800, -40.957
1550.5000, -40.954
1550.5200, -40.952
1550.5400, -40.955
1550.5600, -40.968
1550.5800, -40.962
1550.6000, -40.961
1550.6200, -40.975
1550.6400, -40.965
1550.6600, -40.972
1550.6800, -40.979
1550.7000, -40.986
1550.7200, -40.985
1550.7400, -40.985
1550.7600, -40.984
1550.7800, -41.002
1550.8000, -40.998
1550.8200, -41.003
1550.8400, -41.008
1550.8600, -41.003
1550.8800, -41.006
1550.9000, -41.015
1550.9200, -41.027
1550.9400, -41.025
1550.9600, -41.025
1550.9800, -41.025
1551.0000, -41.030
1551.0200, -41.029
1551.0400, -41.036
1551.0600, -41.046
1551.0800, -41.044
1551.1000, -41.050
1551.1200, -41.059
1551.1400, -41.055
1551.1600, -41.063
1551.1800, -41.069
1551.2000, -41.070
1551.2200, -41.071
1551.2400, -41.079
1551.2600, -41.079
1551.2800, -41.082
1551.3000, -41.088
1551.3200, -41.083
1551.3400, -41.086
1551.3600, -41.093
1551.3800, -41.092
1551.4000, -41.087
1551.4200, -41.089
1551.4400, -41.091
1551.4600, -41.101
1551.4800, -41.093
1551.5000, -41.099
1551.5200, -41.107
1551.5400, -41.100
1551.5600, -41.104
1551.5800, -41.102
1551.6000, -41.111
1551.6200, -41.110
1551.6400, -41.114
1551.6600, -41.119
1551.6800, -41.124
1551.7000, -41.125
1551.7200, -41.127
1551.7400, -41.130
1551.7600, -41.129
1551.7800, -41.131
1551.8000, -41.136
1551.8200, -41.137
1551.8400, -41.141
1551.8600, -41.149
1551.8800, -41.147
1551.9000, -41.151
1551.9200, -41.152
1551.9400, -41.152
1551.9600, -41.150
1551.9800, -41.155
1552.0000, -41.160
1552.0200, -41.167
1552.0400, -41.164
1552.0600, -41.169
1552.0800, -41.172
1552.1000, -41.181
1552.1200, -41.181
1552.1400, -41.187
1552.1600, -41.191
1552.1800, -41.196
1552.2000, -41.202
1552.2200, -41.198
1552.2400, -41.196
1552.2600, -41.197
1552.2800, -41.203
1552.3000, -41.207
1552.3200, -41.208
1552.3400, -41.215
1552.3600, -41.212
1552.3800, -41.212
1552.4000, -41.221
1552.4200, -41.217
1552.4400, -41.215
1552.4600, -41.217
1552.4800, -41.215
1552.5000, -41.221
1552.5200, -41.224
1552.5400, -41.226
1552.5600, -41.234
1552.5800, -41.234
1552.6000, -41.239
1552.6200, -41.252
1552.6400, -41.252
1552.6600, -41.256
1552.6800, -41.262
1552.7000, -41.265
1552.7200, -41.267
1552.7400, -41.269
1552.7600, -41.274
1552.7800, -41.274
1552.8000, -41.281
1552.8200, -41.283
1552.8400, -41.285
1552.8600, -41.288
1552.8800, -41.298
1552.9000, -41.300
1552.9200, -41.303
1552.9400, -41.306
1552.9600, -41.306
1552.9800, -41.308
1553.0000, -41.314
1553.0200, -41.319
1553.0400, -41.314
1553.0600, -41.319
1553.0800, -41.318
1553.1000, -41.315
1553.1200, -41.320
1553.1400, -41.325
1553.1600, -41.326
1553.1800, -41.332
1553.2000, -41.335
1553.2200, -41.338
1553.2400, -41.351
1553.2600, -41.347
1553.2800, -41.348
1553.3000, -41.364
1553.3200, -41.358
1553.3400, -41.357
1553.3600, -41.356
1553.3800, -41.353
1553.4000, -41.354
1553.4200, -41.349
1553.4400, -41.353
1553.4600, -41.357
1553.4800, -41.357
1553.5000, -41.358
1553.5200, -41.366
1553.5400, -41.359
1553.5600, -41.362
1553.5800, -41.369
1553.6000, -41.377
1553.6200, -41.368
1553.6400, -41.373
1553.6600, -41.379
1553.6800, -41.374
1553.7000, -41.375
1553.7200, -41.372
1553.7400, -41.377
1553.7600, -41.379
1553.7800, -41.384
1553.8000, -41.384
1553.8200, -41.392
1553.8400, -41.390
1553.8600, -41.393
1553.8800, -41.400
1553.9000, -41.411
1553.9200, -41.411
1553.9400, -41.408
1553.9600, -41.410
1553.9800, -41.415
1554.0000, -41.414
1554.0200, -41.418
1554.0400, -41.419
1554.0600, -41.428
1554.0800, -41.430
1554.1000, -41.433
1554.1200, -41.442
1554.1400, -41.448
1554.1600, -41.449
1554.1800, -41.453
1554.2000, -41.460
1554.2200, -41.457
1554.2400, -41.458
1554.2600, -41.453
1554.2800, -41.452
1554.3000, -41.457
1554.3200, -41.456
1554.3400, -41.460
1554.3600, -41.460
1554.3800, -41.461
1554.4000, -41.468
1554.4200, -41.469
1554.4400, -41.462
1554.4600, -41.466
1554.4800, -41.477
1554.5000, -41.478
1554.5200, -41.475
1554.5400, -41.486
1554.5600, -41.483
1554.5800, -41.486
1554.6000, -41.487
1554.6200, -41.491
1554.6400, -41.490
1554.6600, -41.500
1554.6800, -41.505
1554.7000, -41.507
1554.7200, -41.506
1554.7400, -41.508
1554.7600, -41.502
1554.7800, -41.509
1554.8000, -41.517
1554.8200, -41.519
1554.8400, -41.521
1554.8600, -41.521
1554.8800, -41.520
1554.9000, -41.515
1554.9200, -41.515
1554.9400, -41.516
1554.9600, -41.523
1554.9800, -41.520
1555.0000, -41.519
1555.0200, -41.530
1555.0400, -41.523
1555.0600, -41.523
1555.0800, -41.534
1555.1000, -41.532
1555.1200, -41.531
1555.1400, -41.530
1555.1600, -41.529
1555.1800, -41.537
1555.2000, -41.541
1555.2200, -41.542
1555.2400, -41.543
1555.2600, -41.546
1555.2800, -41.551
1555.3000, -41.562
1555.3200, -41.560
1555.3400, -41.554
1555.3600, -41.563
1555.3800, -41.569
1555.4000, -41.563
1555.4200, -41.567
1555.4400, -41.570
1555.4600, -41.571
1555.4800, -41.569
1555.5000, -41.577
1555.5200, -41.577
1555.5400, -41.583
1555.5600, -41.591
1555.5800, -41.593
1555.6000, -41.594
1555.6200, -41.598
1555.6400, -41.596
1555.6600, -41.599
1555.6800, -41.609
1555.7000, -41.609
1555.7200, -41.608
1555.7400, -41.606
1555.7600, -41.612
1555.7800, -41.611
1555.8000, -41.611
1555.8200, -41.611
1555.8400, -41.618
1555.8600, -41.619
1555.8800, -41.623
1555.9000, -41.622
1555.9200, -41.630
1555.9400, -41.631
1555.9600, -41.638
1555.9800, -41.647
1556.0000, -41.643
1556.0200, -41.650
1556.0400, -41.648
1556.0600, -41.649
1556.0800, -41.655
1556.1000, -41.658
1556.1200, -41.659
1556.1400, -41.661
1556.1600, -41.666
1556.1800, -41.664
1556.2000, -41.670
1556.2200, -41.668
1556.2400, -41.671
1556.2600, -41.667
1556.2800, -41.675
1556.3000, -41.674
1556.3200, -41.678
1556.3400, -41.678
1556.3600, -41.680
1556.3800, -41.684
1556.4000, -41.684
1556.4200, -41.692
1556.4400, -41.698
1556.4600, -41.698
1556.4800, -41.698
1556.5000, -41.702
1556.5200, -41.712
1556.5400, -41.714
1556.5600, -41.714
1556.5800, -41.718
1556.6000, -41.716
1556.6200, -41.721
1556.6400, -41.725
1556.6600, -41.730
1556.6800, -41.735
1556.7000, -41.738
1556.7200, -41.744
1556.7400, -41.750
1556.7600, -41.744
1556.7800, -41.750
1556.8000, -41.755
1556.8200, -41.758
1556.8400, -41.753
1556.8600, -41.762
1556.8800, -41.767
1556.9000, -41.768
1556.9200, -41.771
1556.9400, -41.774
1556.9600, -41.776
1556.9800, -41.775
1557.0000, -41.781
1557.0200, -41.786
1557.0400, -41.786
1557.0600, -41.783
1557.0800, -41.794
1557.1000, -41.790
1557.1200, -41.793
1557.1400, -41.802
1557.1600, -41.809
1557.1800, -41.811
1557.2000, -41.816
1557.2200, -41.816
1557.2400, -41.822
1557.2600, -41.823
1557.2800, -41.830
1557.3000, -41.834
1557.3200, -41.842
1557.3400, -41.845
1557.3600, -41.846
1557.3800, -41.858
1557.4000, -41.870
1557.4200, -41.872
1557.4400, -41.880
1557.4600, -41.885
1557.4800, -41.891
1557.5000, -41.897
1557.5200, -41.894
1557.5400, -41.902
1557.5600, -41.901
1557.5800, -41.904
1557.6000, -41.906
1557.6200, -41.909
1557.6400, -41.917
1557.6600, -41.918
1557.6800, -41.922
1557.7000, -41.938
1557.7200, -41.934
1557.7400, -41.936
1557.7600, -41.950
1557.7800, -41.947
1557.8000, -41.954
1557.8200, -41.953
1557.8400, -41.950
1557.8600, -41.952
1557.8800, -41.954
1557.9000, -41.955
1557.9200, -41.969
1557.9400, -41.965
1557.9600, -41.975
1557.9800, -41.982
1558.0000, -41.985
1558.0200, -41.988
1558.0400, -42.001
1558.0600, -42.009
1558.0800, -42.019
1558.1000, -42.025
1558.1200, -42.021
1558.1400, -42.030
1558.1600, -42.029
1558.1800, -42.040
1558.2000, -42.043
1558.2200, -42.045
1558.2400, -42.053
1558.2600, -42.057
1558.2800, -42.063
1558.3000, -42.064
1558.3200, -42.073
1558.3400, -42.078
1558.3600, -42.085
1558.3800, -42.090
1558.4000, -42.098
1558.4200, -42.100
1558.4400, -42.107
1558.4600, -42.112
1558.4800, -42.112
1558.5000, -42.115
1558.5200, -42.127
1558.5400, -42.132
1558.5600, -42.145
1558.5800, -42.143
1558.6000, -42.157
1558.6200, -42.152
1558.6400, -42.165
1558.6600, -42.164
1558.6800, -42.174
1558.7000, -42.185
1558.7200, -42.184
1558.7400, -42.189
1558.7600, -42.194
1558.7800, -42.198
1558.8000, -42.210
1558.8200, -42.224
1558.8400, -42.226
1558.8600, -42.234
1558.8800, -42.231
1558.9000, -42.246
1558.9200, -42.257
1558.9400, -42.265
1558.9600, -42.277
1558.9800, -42.277
1559.0000, -42.283
1559.0200, -42.302
1559.0400, -42.302
1559.0600, -42.315
1559.0800, -42.320
1559.1000, -42.327
1559.1200, -42.335
1559.1400, -42.349
1559.1600, -42.352
1559.1800, -42.366
1559.2000, -42.375
1559.2200, -42.382
1559.2400, -42.384
1559.2600, -42.400
1559.2800, -42.406
1559.3000, -42.408
1559.3200, -42.420
1559.3400, -42.429
1559.3600, -42.432
1559.3800, -42.432
1559.4000, -42.445
1559.4200, -42.443
1559.4400, -42.451
1559.4600, -42.460
1559.4800, -42.478
1559.5000, -42.483
1559.5200, -42.494
1559.5400, -42.500
1559.5600, -42.507
1559.5800, -42.520
1559.6000, -42.524
1559.6200, -42.527
1559.6400, -42.534
1559.6600, -42.539
1559.6800, -42.548
1559.7000, -42.567
1559.7200, -42.565
1559.7400, -42.582
1559.7600, -42.578
1559.7800, -42.594
1559.8000, -42.608
1559.8200, -42.617
1559.8400, -42.616
1559.8600, -42.617
1559.8800, -42.631
1559.9000, -42.648
1559.9200, -42.653
1559.9400, -42.665
1559.9600, -42.672
1559.9800, -42.685
1560.0000, -42.696
1560.0200, -42.715
1560.0400, -42.720
1560.0600, -42.731
1560.0800, -42.741
1560.1000, -42.752
1560.1200, -42.762
1560.1400, -42.774
1560.1600, -42.782
1560.1800, -42.796
1560.2000, -42.806
1560.2200, -42.816
1560.2400, -42.825
1560.2600, -42.836
1560.2800, -42.852
1560.3000, -42.863
1560.3200, -42.865
1560.3400, -42.873
1560.3600, -42.884
1560.3800, -42.898
1560.4000, -42.906
1560.4200, -42.912
1560.4400, -42.917
1560.4600, -42.932
1560.4800, -42.940
1560.5000, -42.951
1560.5200, -42.967
1560.5400, -42.972
1560.5600, -42.985
1560.5800, -43.006
1560.6000, -43.007
1560.6200, -43.027
1560.6400, -43.032
1560.6600, -43.041
1560.6800, -43.063
1560.7000, -43.078
1560.7200, -43.079
1560.7400, -43.085
1560.7600, -43.102
1560.7800, -43.117
1560.8000, -43.125
1560.8200, -43.129
1560.8400, -43.140
1560.8600, -43.154
1560.8800, -43.162
1560.9000, -43.181
1560.9200, -43.189
1560.9400, -43.205
1560.9600, -43.214
1560.9800, -43.228
1561.0000, -43.233
1561.0200, -43.251
1561.0400, -43.264
1561.0600, -43.277
1561.0800, -43.286
1561.1000, -43.305
1561.1200, -43.312
1561.1400, -43.326
1561.1600, -43.339
1561.1800, -43.360
1561.2000, -43.361
1561.2200, -43.374
1561.2400, -43.392
1561.2600, -43.413
1561.2800, -43.415
1561.3000, -43.435
1561.3200, -43.439
1561.3400, -43.459
1561.3600, -43.474
1561.3800, -43.485
1561.4000, -43.503
1561.4200, -43.510
1561.4400, -43.526
1561.4600, -43.541
1561.4800, -43.551
1561.5000, -43.571
1561.5200, -43.581
1561.5400, -43.590
1561.5600, -43.614
1561.5800, -43.632
1561.6000, -43.641
1561.6200, -43.648
1561.6400, -43.673
1561.6600, -43.685
1561.6800, -43.703
1561.7000, -43.715
1561.7200, -43.736
1561.7400, -43.746
1561.7600, -43.759
1561.7800, -43.776
1561.8000, -43.790
1561.8200, -43.803
1561.8400, -43.817
1561.8600, -43.832
1561.8800, -43.845
1561.9000, -43.858
1561.9200, -43.867
1561.9400, -43.886
1561.9600, -43.891
1561.9800, -43.909
1562.0000, -43.921
1562.0200, -43.933
1562.0400, -43.950
1562.0600, -43.970
1562.0800, -43.978
1562.1000, -43.995
1562.1200, -44.016
1562.1400, -44.034
1562.1600, -44.043
1562.1800, -44.064
1562.2000, -44.071
1562.2200, -44.090
1562.2400, -44.106
1562.2600, -44.121
1562.2800, -44.140
1562.3000, -44.150
1562.3200, -44.167
1562.3400, -44.187
1562.3600, -44.193
1562.3800, -44.218
1562.4000, -44.229
1562.4200, -44.244
1562.4400, -44.264
1562.4600, -44.275
1562.4800, -44.296
1562.5000, -44.304
1562.5200, -44.327
1562.5400, -44.337
1562.5600, -44.356
1562.5800, -44.372
1562.6000, -44.395
1562.6200, -44.410
1562.6400, -44.422
1562.6600, -44.440
1562.6800, -44.455
1562.7000, -44.470
1562.7200, -44.486
1562.7400, -44.507
1562.7600, -44.521
1562.7800, -44.539
1562.8000, -44.552
1562.8200, -44.571
1562.8400, -44.586
1562.8600, -44.608
1562.8800, -44.622
1562.9000, -44.631
1562.9200, -44.654
1562.9400, -44.673
1562.9600, -44.684
1562.9800, -44.701
1563.0000, -44.722
1563.0200, -44.739
1563.0400, -44.753
1563.0600, -44.775
1563.0800, -44.787
1563.1000, -44.811
1563.1200, -44.824
1563.1400, -44.843
1563.1600, -44.858
1563.1800, -44.869
1563.2000, -44.888
1563.2200, -44.908
1563.2400, -44.918
1563.2600, -44.942
1563.2800, -44.953
1563.3000, -44.969
1563.3200, -44.987
1563.3400, -45.005
1563.3600, -45.022
1563.3800, -45.038
1563.4000, -45.064
1563.4200, -45.075
1563.4400, -45.097
1563.4600, -45.113
1563.4800, -45.131
1563.5000, -45.149
1563.5200, -45.164
1563.5400, -45.181
1563.5600, -45.198
1563.5800, -45.216
1563.6000, -45.237
1563.6200, -45.258
1563.6400, -45.271
1563.6600, -45.289
1563.6800, -45.306
1563.7000, -45.328
1563.7200, -45.349
1563.7400, -45.368
1563.7600, -45.386
1563.7800, -45.397
1563.8000, -45.424
1563.8200, -45.435
1563.8400, -45.452
1563.8600, -45.473
1563.8800, -45.501
1563.9000, -45.513
1563.9200, -45.528
1563.9400, -45.554
1563.9600, -45.565
1563.9800, -45.585
1564.0000, -45.604
1564.0200, -45.621
1564.0400, -45.642
1564.0600, -45.652
1564.0800, -45.668
1564.1000, -45.685
1564.1200, -45.699
1564.1400, -45.726
1564.1600, -45.739
1564.1800, -45.758
1564.2000, -45.774
1564.2200, -45.794
1564.2400, -45.806
1564.2600, -45.822
1564.2800, -45.853
1564.3000, -45.865
1564.3200, -45.890
1564.3400, -45.907
1564.3600, -45.926
1564.3800, -45.948
1564.4000, -45.967
1564.4200, -45.986
1564.4400, -46.004
1564.4600, -46.023
1564.4800, -46.046
1564.5000, -46.071
1564.5200, -46.085
1564.5400, -46.110
1564.5600, -46.125
1564.5800, -46.142
1564.6000, -46.163
1564.6200, -46.187
1564.6400, -46.199
1564.6600, -46.217
1564.6800, -46.240
1564.7000, -46.254
1564.7200, -46.271
1564.7400, -46.294
1564.7600, -46.319
1564.7800, -46.330
1564.8000, -46.350
1564.8200, -46.369
1564.8400, -46.383
1564.8600, -46.412
1564.8800, -46.425
1564.9000, -46.445
1564.9200, -46.462
1564.9400, -46.480
1564.9600, -46.506
1564.9800, -46.518
1565.0000, -46.534
1565.0200, -46.564
1565.0400, -46.576
1565.0600, -46.598
1565.0800, -46.614
1565.1000, -46.633
1565.1200, -46.655
1565.1400, -46.672
1565.1600, -46.694
1565.1800, -46.712
1565.2000, -46.735
1565.2200, -46.756
1565.2400, -46.776
1565.2600, -46.796
1565.2800, -46.817
1565.3000, -46.832
1565.3200, -46.852
1565.3400, -46.874
1565.3600, -46.899
1565.3800, -46.921
1565.4000, -46.932
1565.4200, -46.954
1565.4400, -46.976
1565.4600, -46.995
1565.4800, -47.018
1565.5000, -47.042
1565.5200, -47.056
1565.5400, -47.073
1565.5600, -47.097
1565.5800, -47.115
1565.6000, -47.133
1565.6200, -47.156
1565.6400, -47.174
1565.6600, -47.186
1565.6800, -47.210
1565.7000, -47.228
1565.7200, -47.245
1565.7400, -47.274
1565.7600, -47.284
1565.7800, -47.309
1565.8000, -47.328
1565.8200, -47.345
1565.8400, -47.369
1565.8600, -47.381
1565.8800, -47.404
1565.9000, -47.426
1565.9200, -47.439
1565.9400, -47.461
1565.9600, -47.478
1565.9800, -47.501
1566.0000, -47.523
1566.0200, -47.541
1566.0400, -47.564
1566.0600, -47.577
1566.0800, -47.603
1566.1000, -47.623
1566.1200, -47.644
1566.1400, -47.662
1566.1600, -47.683
1566.1800, -47.703
1566.2000, -47.721
1566.2200, -47.741
1566.2400, -47.763
1566.2600, -47.782
1566.2800, -47.796
1566.3000, -47.820
1566.3200, -47.839
1566.3400, -47.858
1566.3600, -47.880
1566.3800, -47.903
1566.4000, -47.915
1566.4200, -47.935
1566.4400, -47.960
1566.4600, -47.977
1566.4800, -47.994
1566.5000, -48.024
1566.5200, -48.042
1566.5400, -48.054
1566.5600, -48.080
1566.5800, -48.094
1566.6000, -48.115
1566.6200, -48.139
1566.6400, -48.155
1566.6600, -48.177
1566.6800, -48.193
1566.7000, -48.213
1566.7200, -48.233
1566.7400, -48.250
1566.7600, -48.273
1566.7800, -48.295
1566.8000, -48.314
1566.8200, -48.332
1566.8400, -48.348
1566.8600, -48.371
1566.8800, -48.388
1566.9000, -48.410
1566.9200, -48.432
1566.9400, -48.445
1566.9600, -48.469
1566.9800, -48.485
1567.0000, -48.510
1567.0200, -48.532
1567.0400, -48.551
1567.0600, -48.573
1567.0800, -48.593
1567.1000, -48.609
1567.1200, -48.629
1567.1400, -48.652
1567.1600, -48.666
1567.1800, -48.688
1567.2000, -48.708
1567.2200, -48.727
1567.2400, -48.752
1567.2600, -48.772
1567.2800, -48.788
1567.3000, -48.806
1567.3200, -48.831
1567.3400, -48.841
1567.3600, -48.867
1567.3800, -48.896
1567.4000, -48.905
1567.4200, -48.924
1567.4400, -48.947
1567.4600, -48.962
1567.4800, -48.982
1567.5000, -49.004
1567.5200, -49.022
1567.5400, -49.043
1567.5600, -49.065
1567.5800, -49.085
1567.6000, -49.107
1567.6200, -49.117
1567.6400, -49.143
1567.6600, -49.157
1567.6800, -49.179
1567.7000, -49.199
1567.7200, -49.217
1567.7400, -49.235
1567.7600, -49.257
1567.7800, -49.284
1567.8000, -49.297
1567.8200, -49.322
1567.8400, -49.334
1567.8600, -49.352
1567.8800, -49.377
1567.9000, -49.397
1567.9200, -49.415
1567.9400, -49.438
1567.9600, -49.453
1567.9800, -49.470
1568.0000, -49.496
1568.0200, -49.512
1568.0400, -49.533
1568.0600, -49.556
1568.0800, -49.574
1568.1000, -49.608
1568.1200, -49.622
1568.1400, -49.637
1568.1600, -49.651
1568.1800, -49.672
1568.2000, -49.696
1568.2200, -49.712
1568.2400, -49.738
1568.2600, -49.755
1568.2800, -49.766
1568.3000, -49.794
1568.3200, -49.812
1568.3400, -49.827
1568.3600, -49.850
1568.3800, -49.869
1568.4000, -49.891
1568.4200, -49.911
1568.4400, -49.927
1568.4600, -49.952
1568.4800, -49.969
1568.5000, -49.984
1568.5200, -50.006
1568.5400, -50.022
1568.5600, -50.042
1568.5800, -50.060
1568.6000, -50.078
1568.6200, -50.104
1568.6400, -50.119
1568.6600, -50.147
1568.6800, -50.156
1568.7000, -50.186
1568.7200, -50.200
1568.7400, -50.220
1568.7600, -50.240
1568.7800, -50.256
1568.8000, -50.281
1568.8200, -50.295
1568.8400, -50.316
1568.8600, -50.336
1568.8800, -50.360
1568.9000, -50.376
1568.9200, -50.393
1568.9400, -50.416
1568.9600, -50.431
1568.9800, -50.453
1569.0000, -50.476
1569.0200, -50.490
1569.0400, -50.504
1569.0600, -50.529
1569.0800, -50.543
1569.1000, -50.567
1569.1200, -50.590
1569.1400, -50.606
1569.1600, -50.625
1569.1800, -50.647
1569.2000, -50.660
1569.2200, -50.681
1569.2400, -50.703
1569.2600, -50.717
1569.2800, -50.735
1569.3000, -50.756
1569.3200, -50.777
1569.3400, -50.796
1569.3600, -50.807
1569.3800, -50.835
1569.4000, -50.848
1569.4200, -50.866
1569.4400, -50.885
1569.4600, -50.900
1569.4800, -50.928
1569.5000, -50.947
1569.5200, -50.962
1569.5400, -50.979
1569.5600, -51.001
1569.5800, -51.017
1569.6000, -51.036
1569.6200, -51.057
1569.6400, -51.075
1569.6600, -51.099
1569.6800, -51.118
1569.7000, -51.137
1569.7200, -51.154
1569.7400, -51.170
1569.7600, -51.189
1569.7800, -51.209
1569.8000, -51.228
1569.8200, -51.245
1569.8400, -51.267
1569.8600, -51.284
1569.8800, -51.300
1569.9000, -51.313
1569.9200, -51.336
1569.9400, -51.356
1569.9600, -51.376
1569.9800, -51.395
1570.0000, -51.415
1570.0200, -51.430
1570.0400, -51.452
1570.0600, -51.468
1570.0800, -51.487
1570.1000, -51.503
1570.1200, -51.521
1570.1400, -51.540
1570.1600, -51.552
1570.1800, -51.578
1570.2000, -51.598
1570.2200, -51.614
1570.2400, -51.633
1570.2600, -51.653
1570.2800, -51.673
1570.3000, -51.688
1570.3200, -51.703
1570.3400, -51.721
1570.3600, -51.742
1570.3800, -51.762
1570.4000, -51.772
1570.4200, -51.797
1570.4400, -51.819
1570.4600, -51.831
1570.4800, -51.855
1570.5000, -51.868
1570.5200, -51.890
1570.5400, -51.907
1570.5600, -51.923
1570.5800, -51.942
1570.6000, -51.961
1570.6200, -51.978
1570.6400, -51.999
1570.6600, -52.030
1570.6800, -52.040
1570.7000, -52.058
1570.7200, -52.071
1570.7400, -52.092
1570.7600, -52.111
1570.7800, -52.135
1570.8000, -52.143
1570.8200, -52.166
1570.8400, -52.183
1570.8600, -52.204
1570.8800, -52.233
1570.9000, -52.238
1570.9200, -52.259
1570.9400, -52.272
1570.9600, -52.291
1570.9800, -52.308
1571.0000, -52.330
1571.0200, -52.338
1571.0400, -52.356
1571.0600, -52.373
1571.0800, -52.394
1571.1000, -52.413
1571.1200, -52.432
1571.1400, -52.446
1571.1600, -52.466
1571.1800, -52.487
1571.2000, -52.503
1571.2200, -52.521
1571.2400, -52.533
1571.2600, -52.553
1571.2800, -52.577
1571.3000, -52.593
1571.3200, -52.607
1571.3400, -52.627
1571.3600, -52.654
1571.3800, -52.675
1571.4000, -52.680
1571.4200, -52.696
1571.4400, -52.720
1571.4600, -52.733
1571.4800, -52.755
1571.5000, -52.775
1571.5200, -52.790
1571.5400, -52.806
1571.5600, -52.831
1571.5800, -52.848
1571.6000, -52.863
1571.6200, -52.878
1571.6400, -52.889
1571.6600, -52.908
1571.6800, -52.925
1571.7000, -52.940
1571.7200, -52.961
1571.7400, -52.986
1571.7600, -52.996
1571.7800, -53.025
1571.8000, -53.023
1571.8200, -53.046
1571.8400, -53.066
1571.8600, -53.076
1571.8800, -53.100
1571.9000, -53.115
1571.9200, -53.128
1571.9400, -53.143
1571.9600, -53.165
1571.9800, -53.181
1572.0000, -53.204
1572.0200, -53.217
1572.0400, -53.236
1572.0600, -53.259
1572.0800, -53.272
1572.1000, -53.282
1572.1200, -53.302
1572.1400, -53.326
1572.1600, -53.332
1572.1800, -53.350
1572.2000, -53.378
1572.2200, -53.378
1572.2400, -53.408
1572.2600, -53.427
1572.2800, -53.437
1572.3000, -53.458
1572.3200, -53.473
1572.3400, -53.490
1572.3600, -53.503
1572.3800, -53.527
1572.4000, -53.540
1572.4200, -53.558
1572.4400, -53.569
1572.4600, -53.589
1572.4800, -53.603
1572.5000, -53.621
1572.5200, -53.644
1572.5400, -53.651
1572.5600, -53.672
1572.5800, -53.685
1572.6000, -53.705
1572.6200, -53.718
1572.6400, -53.734
1572.6600, -53.748
1572.6800, -53.771
1572.7000, -53.771
1572.7200, -53.793
1572.7400, -53.811
1572.7600, -53.828
1572.7800, -53.848
1572.8000, -53.851
1572.8200, -53.885
1572.8400, -53.898
1572.8600, -53.899
1572.8800, -53.920
1572.9000, -53.949
1572.9200, -53.965
1572.9400, -53.978
1572.9600, -53.994
1572.9800, -54.011
1573.0000, -54.019
1573.0200, -54.042
1573.0400, -54.051
1573.0600, -54.069
1573.0800, -54.093
1573.1000, -54.099
1573.1200, -54.133
1573.1400, -54.141
1573.1600, -54.150
1573.1800, -54.167
1573.2000, -54.180
1573.2200, -54.204
1573.2400, -54.210
1573.2600, -54.238
1573.2800, -54.244
1573.3000, -54.255
1573.3200, -54.284
1573.3400, -54.294
1573.3600, -54.307
1573.3800, -54.325
1573.4000, -54.339
1573.4200, -54.353
1573.4400, -54.369
1573.4600, -54.390
1573.4800, -54.393
1573.5000, -54.409
1573.5200, -54.434
1573.5400, -54.441
1573.5600, -54.461
1573.5800, -54.484
1573.6000, -54.484
1573.6200, -54.507
1573.6400, -54.522
1573.6600, -54.545
1573.6800, -54.550
1573.7000, -54.572
1573.7200, -54.583
1573.7400, -54.597
1573.7600, -54.612
1573.7800, -54.643
1573.8000, -54.637
1573.8200, -54.656
1573.8400, -54.673
1573.8600, -54.686
1573.8800, -54.713
1573.9000, -54.709
1573.9200, -54.732
1573.9400, -54.751
1573.9600, -54.755
1573.9800, -54.779
1574.0000, -54.789
1574.0200, -54.817
1574.0400, -54.820
1574.0600, -54.837
1574.0800, -54.847
1574.1000, -54.867
1574.1200, -54.890
1574.1400, -54.901
1574.1600, -54.912
1574.1800, -54.923
1574.2000, -54.936
1574.2200, -54.951
1574.2400, -54.964
1574.2600, -54.983
1574.2800, -55.005
1574.3000, -55.008
1574.3200, -55.039
1574.3400, -55.034
1574.3600, -55.054
1574.3800, -55.070
1574.4000, -55.094
1574.4200, -55.087
1574.4400, -55.123
1574.4600, -55.122
1574.4800, -55.144
1574.5000, -55.150
1574.5200, -55.164
1574.5400, -55.187
1574.5600, -55.201
1574.5800, -55.217
1574.6000, -55.230
1574.6200, -55.242
1574.6400, -55.256
1574.6600, -55.270
1574.6800, -55.287
1574.7000, -55.307
1574.7200, -55.324
1574.7400, -55.323
1574.7600, -55.340
1574.7800, -55.374
1574.8000, -55.354
1574.8200, -55.383
1574.8400, -55.401
1574.8600, -55.414
1574.8800, -55.430
1574.9000, -55.450
1574.9200, -55.453
1574.9400, -55.465
1574.9600, -55.491
1574.9800, -55.491
1575.0000, -55.521
1575.0200, -55.534
1575.0400, -55.535
1575.0600, -55.545
1575.0800, -55.561
1575.1000, -55.582
1575.1200, -55.602
1575.1400, -55.606
1575.1600, -55.617
1575.1800, -55.636
1575.2000, -55.653
1575.2200, -55.677
1575.2400, -55.674
1575.2600, -55.697
1575.2800, -55.701
1575.3000, -55.707
1575.3200, -55.731
1575.3400, -55.741
1575.3600, -55.753
1575.3800, -55.770
1575.4000, -55.796
1575.4200, -55.786
1575.4400, -55.817
1575.4600, -55.818
1575.4800, -55.833
1575.5000, -55.854
1575.5200, -55.857
1575.5400, -55.879
1575.5600, -55.870
1575.5800, -55.896
1575.6000, -55.920
1575.6200, -55.927
1575.6400, -55.936
1575.6600, -55.953
1575.6800, -55.958
1575.7000, -55.976
1575.7200, -55.997
1575.7400, -56.010
1575.7600, -56.017
1575.7800, -56.039
1575.8000, -56.045
1575.8200, -56.062
1575.8400, -56.072
1575.8600, -56.084
1575.8800, -56.105
1575.9000, -56.109
1575.9200, -56.123
1575.9400, -56.143
1575.9600, -56.145
1575.9800, -56.168
1576.0000, -56.173
1576.0200, -56.200
1576.0400, -56.203
1576.0600, -56.215
1576.0800, -56.235
1576.1000, -56.229
1576.1200, -56.244
1576.1400, -56.266
1576.1600, -56.277
1576.1800, -56.286
1576.2000, -56.296
1576.2200, -56.317
1576.2400, -56.309
1576.2600, -56.338
1576.2800, -56.351
1576.3000, -56.363
1576.3200, -56.368
1576.3400, -56.379
1576.3600, -56.398
1576.3800, -56.404
1576.4000, -56.410
1576.4200, -56.419
1576.4400, -56.438
1576.4600, -56.451
1576.4800, -56.467
1576.5000, -56.477
1576.5200, -56.470
1576.5400, -56.504
1576.5600, -56.502
1576.5800, -56.507
1576.6000, -56.546
1576.6200, -56.556
1576.6400, -56.544
1576.6600, -56.572
1576.6800, -56.575
1576.7000, -56.596
1576.7200, -56.609
1576.7400, -56.610
1576.7600, -56.635
1576.7800, -56.647
1576.8000, -56.647
1576.8200, -56.680
1576.8400, -56.676
1576.8600, -56.681
1576.8800, -56.700
1576.9000, -56.721
1576.9200, -56.733
1576.9400, -56.724
1576.9600, -56.740
1576.9800, -56.765
1577.0000, -56.761
1577.0200, -56.774
1577.0400, -56.781
1577.0600, -56.795
1577.0800, -56.808
1577.1000, -56.826
1577.1200, -56.828
1577.1400, -56.855
1577.1600, -56.846
1577.1800, -56.859
1577.2000, -56.866
1577.2200, -56.894
1577.2400, -56.894
1577.2600, -56.912
1577.2800, -56.914
1577.3000, -56.930
1577.3200, -56.945
1577.3400, -56.949
1577.3600, -56.962
1577.3800, -56.975
1577.4000, -56.981
1577.4200, -57.000
1577.4400, -57.021
1577.4600, -57.009
1577.4800, -57.041
1577.5000, -57.032
1577.5200, -57.070
1577.5400, -57.052
1577.5600, -57.074
1577.5800, -57.080
1577.6000, -57.094
1577.6200, -57.114
1577.6400, -57.126
1577.6600, -57.129
1577.6800, -57.129
1577.7000, -57.155
1577.7200, -57.162
1577.7400, -57.171
1577.7600, -57.172
1577.7800, -57.209
1577.8000, -57.208
1577.8200, -57.212
1577.8400, -57.230
1577.8600, -57.238
1577.8800, -57.258
1577.9000, -57.247
1577.9200, -57.266
1577.9400, -57.283
1577.9600, -57.280
1577.9800, -57.297
1578.0000, -57.315
1578.0200, -57.314
1578.0400, -57.344
1578.0600, -57.335
1578.0800, -57.366
1578.1000, -57.358
1578.1200, -57.379
1578.1400, -57.375
1578.1600, -57.399
1578.1800, -57.419
1578.2000, -57.412
1578.2200, -57.424
1578.2400, -57.436
1578.2600, -57.453
1578.2800, -57.453
1578.3000, -57.467
1578.3200, -57.475
1578.3400, -57.501
1578.3600, -57.491
1578.3800, -57.507
1578.4000, -57.535
1578.4200, -57.522
1578.4400, -57.543
1578.4600, -57.557
1578.4800, -57.566
1578.5000, -57.560
1578.5200, -57.578
1578.5400, -57.600
1578.5600, -57.595
1578.5800, -57.600
1578.6000, -57.601
1578.6200, -57.623
1578.6400, -57.631
1578.6600, -57.651
1578.6800, -57.665
1578.7000, -57.669
1578.7200, -57.680
1578.7400, -57.669
1578.7600, -57.697
1578.7800, -57.700
1578.8000, -57.707
1578.8200, -57.733
1578.8400, -57.751
1578.8600, -57.731
1578.8800, -57.752
1578.9000, -57.768
1578.9200, -57.773
1578.9400, -57.772
1578.9600, -57.795
1578.9800, -57.799
1579.0000, -57.818
1579.0200, -57.816
1579.0400, -57.836
1579.0600, -57.850
1579.0800, -57.834
1579.1000, -57.874
1579.1200, -57.870
1579.1400, -57.861
1579.1600, -57.887
1579.1800, -57.910
1579.2000, -57.894
1579.2200, -57.913
1579.2400, -57.922
1579.2600, -57.942
1579.2800, -57.954
1579.3000, -57.959
1579.3200, -57.969
1579.3400, -57.982
1579.3600, -57.980
1579.3800, -58.004
1579.4000, -58.009
1579.4200, -58.009
1579.4400, -58.026
1579.4600, -58.031
1579.4800, -58.031
1579.5000, -58.041
1579.5200, -58.052
1579.5400, -58.066
1579.5600, -58.058
1579.5800, -58.092
1579.6000, -58.088
1579.6200, -58.086
1579.6400, -58.117
1579.6600, -58.119
1579.6800, -58.112
1579.7000, -58.157
1579.7200, -58.143
1579.7400, -58.151
1579.7600, -58.173
1579.7800, -58.178
1579.8000, -58.178
1579.8200, -58.188
1579.8400, -58.198
1579.8600, -58.207
1579.8800, -58.211
1579.9000, -58.215
1579.9200, -58.242
1579.9400, -58.231
1579.9600, -58.270
1579.9800, -58.260
1580.0000, -58.281
1580.0200, -58.264
1580.0400, -58.289
1580.0600, -58.284
1580.0800, -58.306
1580.1000, -58.305
1580.1200, -58.338
1580.1400, -58.345
1580.1600, -58.342
1580.1800, -58.348
1580.2000, -58.355
1580.2200, -58.365
1580.2400, -58.357
1580.2600, -58.378
1580.2800, -58.397
1580.3000, -58.389
1580.3200, -58.418
1580.3400, -58.407
1580.3600, -58.414
1580.3800, -58.424
1580.4000, -58.428
1580.4200, -58.429
1580.4400, -58.463
1580.4600, -58.457
1580.4800, -58.462
1580.5000, -58.481
1580.5200, -58.455
1580.5400, -58.506
1580.5600, -58.510
1580.5800, -58.507
1580.6000, -58.502
1580.6200, -58.542
1580.6400, -58.549
1580.6600, -58.536
1580.6800, -58.557
1580.7000, -58.558
1580.7200, -58.580
1580.7400, -58.569
1580.7600, -58.577
1580.7800, -58.602
1580.8000, -58.596
1580.8200, -58.578
1580.8400, -58.624
1580.8600, -58.617
1580.8800, -58.620
1580.9000, -58.643
1580.9200, -58.644
1580.9400, -58.646
1580.9600, -58.664
1580.9800, -58.673
1581.0000, -58.673
1581.0200, -58.688
1581.0400, -58.682
1581.0600, -58.701
1581.0800, -58.710
1581.1000, -58.702
1581.1200, -58.732
1581.1400, -58.750
1581.1600, -58.717
1581.1800, -58.748
1581.2000, -58.756
1581.2200, -58.782
1581.2400, -58.770
1581.2600, -58.784
1581.2800, -58.784
1581.3000, -58.795
1581.3200, -58.794
1581.3400, -58.793
1581.3600, -58.810
1581.3800, -58.826
1581.4000, -58.834
1581.4200, -58.836
1581.4400, -58.842
1581.4600, -58.859
1581.4800, -58.836
1581.5000, -58.861
1581.5200, -58.864
1581.5400, -58.874
1581.5600, -58.905
1581.5800, -58.908
1581.6000, -58.899
1581.6200, -58.909
1581.6400, -58.897
1581.6600, -58.919
1581.6800, -58.929
1581.7000, -58.937
1581.7200, -58.952
1581.7400, -58.984
1581.7600, -58.958
1581.7800, -58.958
1581.8000, -58.974
1581.8200, -58.967
1581.8400, -59.005
1581.8600, -58.998
1581.8800, -59.010
1581.9000, -59.018
1581.9200, -59.014
1581.9400, -59.007
1581.9600, -59.050
1581.9800, -59.032
1582.0000, -59.055
1582.0200, -59.071
1582.0400, -59.061
1582.0600, -59.069
1582.0800, -59.088
1582.1000, -59.073
1582.1200, -59.098
1582.1400, -59.101
1582.1600, -59.109
1582.1800, -59.114
1582.2000, -59.135
1582.2200, -59.120
1582.2400, -59.141
1582.2600, -59.156
1582.2800, -59.174
1582.3000, -59.136
1582.3200, -59.173
1582.3400, -59.167
1582.3600, -59.161
1582.3800, -59.236
1582.4000, -59.168
1582.4200, -59.222
1582.4400, -59.207
1582.4600, -59.180
1582.4800, -59.223
1582.5000, -59.219
1582.5200, -59.207
1582.5400, -59.234
1582.5600, -59.238
1582.5800, -59.256
1582.6000, -59.240
1582.6200, -59.253
1582.6400, -59.261
1582.6600, -59.284
1582.6800, -59.300
1582.7000, -59.299
1582.7200, -59.314
1582.7400, -59.291
1582.7600, -59.307
1582.7800, -59.344
1582.8000, -59.319
1582.8200, -59.366
1582.8400, -59.331
1582.8600, -59.368
1582.8800, -59.345
1582.9000, -59.374
1582.9200, -59.352
1582.9400, -59.393
1582.9600, -59.389
1582.9800, -59.368
1583.0000, -59.404
1583.0200, -59.386
1583.0400, -59.405
1583.0600, -59.433
1583.0800, -59.393
1583.1000, -59.459
1583.1200, -59.411
1583.1400, -59.423
1583.1600, -59.462
1583.1800, -59.448
1583.2000, -59.452
1583.2200, -59.468
1583.2400, -59.462
1583.2600, -59.493
1583.2800, -59.493
1583.3000, -59.497
1583.3200, -59.504
1583.3400, -59.487
1583.3600, -59.507
1583.3800, -59.509
1583.4000, -59.515
1583.4200, -59.531
1583.4400, -59.547
1583.4600, -59.542
1583.4800, -59.536
1583.5000, -59.557
1583.5200, -59.571
1583.5400, -59.557
1583.5600, -59.597
1583.5800, -59.578
1583.6000, -59.601
1583.6200, -59.579
1583.6400, -59.605
1583.6600, -59.625
1583.6800, -59.608
1583.7000, -59.602
1583.7200, -59.627
1583.7400, -59.630
1583.7600, -59.651
1583.7800, -59.626
1583.8000, -59.641
1583.8200, -59.657
1583.8400, -59.657
1583.8600, -59.678
1583.8800, -59.690
1583.9000, -59.670
1583.9200, -59.694
1583.9400, -59.687
1583.9600, -59.729
1583.9800, -59.686
1584.0000, -59.728
1584.0200, -59.709
1584.0400, -59.710
1584.0600, -59.737
1584.0800, -59.740
1584.1000, -59.745
1584.1200, -59.744
1584.1400, -59.748
1584.1600, -59.756
1584.1800, -59.765
1584.2000, -59.767
1584.2200, -59.774
1584.2400, -59.791
1584.2600, -59.789
1584.2800, -59.798
1584.3000, -59.806
1584.3200, -59.803
1584.3400, -59.804
1584.3600, -59.805
1584.3800, -59.827
1584.4000, -59.817
1584.4200, -59.831
1584.4400, -59.845
1584.4600, -59.848
1584.4800, -59.875
1584.5000, -59.843
1584.5200, -59.863
1584.5400, -59.884
1584.5600, -59.850
1584.5800, -59.894
1584.6000, -59.885
1584.6200, -59.893
1584.6400, -59.940
1584.6600, -59.890
1584.6800, -59.898
1584.7000, -59.934
1584.7200, -59.905
1584.7400, -59.942
1584.7600, -59.910
1584.7800, -59.951
1584.8000, -59.931
1584.8200, -59.929
1584.8400, -59.947
1584.8600, -59.933
1584.8800, -59.964
1584.9000, -59.972
1584.9200, -59.989
1584.9400, -59.944
1584.9600, -59.972
1584.9800, -60.024
1585.0000, -59.985
1585.0200, -60.005
1585.0400, -60.009
1585.0600, -60.032
1585.0800, -60.046
1585.1000, -60.010
1585.1200, -60.019
1585.1400, -60.014
1585.1600, -60.038
1585.1800, -60.028
1585.2000, -60.043
1585.2200, -60.070
1585.2400, -60.072
1585.2600, -60.085
1585.2800, -60.044
1585.3000, -60.054
1585.3200, -60.094
1585.3400, -60.097
1585.3600, -60.107
1585.3800, -60.102
1585.4000, -60.082
1585.4200, -60.120
1585.4400, -60.106
1585.4600, -60.129
1585.4800, -60.135
1585.5000, -60.120
1585.5200, -60.112
1585.5400, -60.134
1585.5600, -60.143
1585.5800, -60.138
1585.6000, -60.170
1585.6200, -60.162
1585.6400, -60.167
1585.6600, -60.159
1585.6800, -60.176
1585.7000, -60.193
1585.7200, -60.183
1585.7400, -60.191
1585.7600, -60.209
1585.7800, -60.193
1585.8000, -60.215
1585.8200, -60.215
1585.8400, -60.230
1585.8600, -60.209
1585.8800, -60.214
1585.9000, -60.244
1585.9200, -60.244
1585.9400, -60.240
1585.9600, -60.244
1585.9800, -60.256
1586.0000, -60.260
1586.0200, -60.253
1586.0400, -60.267
1586.0600, -60.286
1586.0800, -60.293
1586.1000, -60.276
1586.1200, -60.296
1586.1400, -60.307
1586.1600, -60.294
1586.1800, -60.299
1586.2000, -60.316
1586.2200, -60.309
1586.2400, -60.327
1586.2600, -60.351
1586.2800, -60.316
1586.3000, -60.301
1586.3200, -60.333
1586.3400, -60.357
1586.3600, -60.355
1586.3800, -60.356
1586.4000, -60.391
1586.4200, -60.352
1586.4400, -60.322
1586.4600, -60.358
1586.4800, -60.384
1586.5000, -60.381
1586.5200, -60.406
1586.5400, -60.398
1586.5600, -60.411
1586.5800, -60.396
1586.6000, -60.417
1586.6200, -60.409
1586.6400, -60.438
1586.6600, -60.431
1586.6800, -60.438
1586.7000, -60.437
1586.7200, -60.461
1586.7400, -60.435
1586.7600, -60.455
1586.7800, -60.442
1586.8000, -60.434
1586.8200, -60.495
1586.8400, -60.452
1586.8600, -60.504
1586.8800, -60.494
1586.9000, -60.459
1586.9200, -60.526
1586.9400, -60.489
1586.9600, -60.516
1586.9800, -60.514
1587.0000, -60.497
1587.0200, -60.505
1587.0400, -60.506
1587.0600, -60.549
1587.0800, -60.509
1587.1000, -60.542
1587.1200, -60.536
1587.1400, -60.553
1587.1600, -60.552
1587.1800, -60.571
1587.2000, -60.584
1587.2200, -60.545
1587.2400, -60.547
1587.2600, -60.603
1587.2800, -60.563
1587.3000, -60.583
1587.3200, -60.594
1587.3400, -60.603
1587.3600, -60.605
1587.3800, -60.599
1587.4000, -60.603
1587.4200, -60.631
1587.4400, -60.629
1587.4600, -60.640
1587.4800, -60.637
1587.5000, -60.623
1587.5200, -60.650
1587.5400, -60.642
1587.5600, -60.610
1587.5800, -60.662
1587.6000, -60.653
1587.6200, -60.697
1587.6400, -60.674
1587.6600, -60.647
1587.6800, -60.686
1587.7000, -60.663
1587.7200, -60.704
1587.7400, -60.683
1587.7600, -60.740
1587.7800, -60.717
1587.8000, -60.703
1587.8200, -60.699
1587.8400, -60.716
1587.8600, -60.755
1587.8800, -60.735
1587.9000, -60.724
1587.9200, -60.712
1587.9400, -60.754
1587.9600, -60.768
1587.9800, -60.743
1588.0000, -60.779
1588.0200, -60.773
1588.0400, -60.774
1588.0600, -60.752
1588.0800, -60.796
1588.1000, -60.781
1588.1200, -60.796
1588.1400, -60.790
1588.1600, -60.787
1588.1800, -60.775
1588.2000, -60.806
1588.2200, -60.776
1588.2400, -60.831
1588.2600, -60.813
1588.2800, -60.824
1588.3000, -60.860
1588.3200, -60.836
1588.3400, -60.800
1588.3600, -60.840
1588.3800, -60.834
1588.4000, -60.862
1588.4200, -60.861
1588.4400, -60.834
1588.4600, -60.863
1588.4800, -60.873
1588.5000, -60.838
1588.5200, -60.872
1588.5400, -60.854
1588.5600, -60.903
1588.5800, -60.881
1588.6000, -60.888
1588.6200, -60.896
1588.6400, -60.897
1588.6600, -60.908
1588.6800, -60.920
1588.7000, -60.907
1588.7200, -60.929
1588.7400, -60.906
1588.7600, -60.956
1588.7800, -60.926
1588.8000, -60.938
1588.8200, -60.926
1588.8400, -60.951
1588.8600, -60.936
1588.8800, -60.944
1588.9000, -60.927
1588.9200, -60.975
1588.9400, -60.951
1588.9600, -60.997
1588.9800, -60.971
1589.0000, -60.968
1589.0200, -61.001
1589.0400, -60.995
1589.0600, -60.991
1589.0800, -60.990
1589.1000, -61.005
1589.1200, -60.982
1589.1400, -61.038
1589.1600, -61.010
1589.1800, -61.044
1589.2000, -61.006
1589.2200, -61.044
1589.2400, -61.028
1589.2600, -61.059
1589.2800, -61.031
1589.3000, -61.107
1589.3200, -60.988
1589.3400, -61.035
1589.3600, -61.059
1589.3800, -61.043
1589.4000, -61.089
1589.4200, -61.061
1589.4400, -61.076
1589.4600, -61.058
1589.4800, -61.125
1589.5000, -61.081
1589.5200, -61.103
1589.5400, -61.113
1589.5600, -61.114
1589.5800, -61.096
1589.6000, -61.115
1589.6200, -61.143
1589.6400, -61.094
1589.6600, -61.087
1589.6800, -61.139
1589.7000, -61.153
1589.7200, -61.133
1589.7400, -61.102
1589.7600, -61.176
1589.7800, -61.131
1589.8000, -61.141
1589.8200, -61.158
1589.8400, -61.167
1589.8600, -61.136
1589.8800, -61.193
1589.9000, -61.163
1589.9200, -61.188
1589.9400, -61.224
1589.9600, -61.192
1589.9800, -61.200
1590.0000, -61.194
1590.0200, -61.227
1590.0400, -61.223
1590.0600, -61.217
1590.0800, -61.219
1590.1000, -61.203
1590.1200, -61.204
1590.1400, -61.200
1590.1600, -61.258
1590.1800, -61.202
1590.2000, -61.258
1590.2200, -61.211
1590.2400, -61.244
1590.2600, -61.223
1590.2800, -61.277
1590.3000, -61.270
1590.3200, -61.275
1590.3400, -61.288
1590.3600, -61.266
1590.3800, -61.253
1590.4000, -61.274
1590.4200, -61.290
1590.4400, -61.333
1590.4600, -61.298
1590.4800, -61.280
1590.5000, -61.311
1590.5200, -61.327
1590.5400, -61.336
1590.5600, -61.302
1590.5800, -61.335
1590.6000, -61.321
1590.6200, -61.335
1590.6400, -61.320
1590.6600, -61.367
1590.6800, -61.331
1590.7000, -61.344
1590.7200, -61.359
1590.7400, -61.329
1590.7600, -61.383
1590.7800, -61.362
1590.8000, -61.372
1590.8200, -61.381
1590.8400, -61.388
1590.8600, -61.378
1590.8800, -61.392
1590.9000, -61.382
1590.9200, -61.389
1590.9400, -61.431
1590.9600, -61.401
1590.9800, -61.427
1591.0000, -61.393
1591.0200, -61.419
1591.0400, -61.448
1591.0600, -61.438
1591.0800, -61.427
1591.1000, -61.400
1591.1200, -61.485
1591.1400, -61.415
1591.1600, -61.465
1591.1800, -61.447
1591.2000, -61.474
1591.2200, -61.469
1591.2400, -61.500
1591.2600, -61.463
1591.2800, -61.504
1591.3000, -61.460
1591.3200, -61.504
1591.3400, -61.457
1591.3600, -61.534
1591.3800, -61.521
1591.4000, -61.503
1591.4200, -61.516
1591.4400, -61.544
1591.4600, -61.534
1591.4800, -61.543
1591.5000, -61.519
1591.5200, -61.526
1591.5400, -61.515
1591.5600, -61.533
1591.5800, -61.570
1591.6000, -61.593
1591.6200, -61.554
1591.6400, -61.559
1591.6600, -61.585
1591.6800, -61.601
1591.7000, -61.551
1591.7200, -61.586
1591.7400, -61.599
1591.7600, -61.574
1591.7800, -61.590
1591.8000, -61.616
1591.8200, -61.636
1591.8400, -61.609
1591.8600, -61.593
1591.8800, -61.645
1591.9000, -61.621
1591.9200, -61.635
1591.9400, -61.597
1591.9600, -61.633
1591.9800, -61.613
1592.0000, -61.681
1592.0200, -61.663
1592.0400, -61.627
1592.0600, -61.630
1592.0800, -61.665
1592.1000, -61.665
1592.1200, -61.643
1592.1400, -61.642
1592.1600, -61.693
1592.1800, -61.682
1592.2000, -61.690
1592.2200, -61.702
1592.2400, -61.639
1592.2600, -61.715
1592.2800, -61.704
1592.3000, -61.741
1592.3200, -61.704
1592.3400, -61.716
1592.3600, -61.726
1592.3800, -61.703
1592.4000, -61.753
1592.4200, -61.746
1592.4400, -61.729
1592.4600, -61.733
1592.4800, -61.728
1592.5000, -61.760
1592.5200, -61.738
1592.5400, -61.770
1592.5600, -61.771
1592.5800, -61.782
1592.6000, -61.738
1592.6200, -61.763
1592.6400, -61.775
1592.6600, -61.802
1592.6800, -61.761
1592.7000, -61.825
1592.7200, -61.763
1592.7400, -61.804
1592.7600, -61.818
1592.7800, -61.750
1592.8000, -61.809
1592.8200, -61.796
1592.8400, -61.842
1592.8600, -61.774
1592.8800, -61.832
1592.9000, -61.878
1592.9200, -61.806
1592.9400, -61.868
1592.9600, -61.838
1592.9800, -61.855
1593.0000, -61.847
1593.0200, -61.865
1593.0400, -61.860
1593.0600, -61.852
1593.0800, -61.885
1593.1000, -61.839
1593.1200, -61.898
1593.1400, -61.880
1593.1600, -61.864
1593.1800, -61.909
1593.2000, -61.926
1593.2200, -61.894
1593.2400, -61.892
1593.2600, -61.878
1593.2800, -61.952
1593.3000, -61.883
1593.3200, -61.930
1593.3400, -61.902
1593.3600, -61.902
1593.3800, -61.911
1593.4000, -61.888
1593.4200, -61.940
1593.4400, -61.950
1593.4600, -61.965
1593.4800, -61.949
1593.5000, -61.932
1593.5200, -61.933
1593.5400, -61.933
1593.5600, -61.951
1593.5800, -61.988
1593.6000, -61.963
1593.6200, -61.985
1593.6400, -61.987
1593.6600, -61.983
1593.6800, -61.953
1593.7000, -61.991
1593.7200, -62.013
1593.7400, -61.945
1593.7600, -62.031
1593.7800, -62.066
1593.8000, -61.952
1593.8200, -62.045
1593.8400, -62.037
1593.8600, -62.010
1593.8800, -62.025
1593.9000, -62.032
1593.9200, -62.058
1593.9400, -62.068
1593.9600, -62.063
1593.9800, -62.009
1594.0000, -62.055
1594.0200, -62.060
1594.0400, -62.068
1594.0600, -62.058
1594.0800, -62.083
1594.1000, -62.049
1594.1200, -62.075
1594.1400, -62.099
1594.1600, -62.081
1594.1800, -62.075
1594.2000, -62.089
1594.2200, -62.147
1594.2400, -62.084
1594.2600, -62.105
1594.2800, -62.100
1594.3000, -62.166
1594.3200, -62.108
1594.3400, -62.120
1594.3600, -62.116
1594.3800, -62.122
1594.4000, -62.167
1594.4200, -62.126
1594.4400, -62.158
1594.4600, -62.146
1594.4800, -62.158
1594.5000, -62.197
1594.5200, -62.156
1594.5400, -62.153
1594.5600, -62.165
1594.5800, -62.166
1594.6000, -62.226
1594.6200, -62.217
1594.6400, -62.140
1594.6600, -62.198
1594.6800, -62.234
1594.7000, -62.223
1594.7200, -62.205
1594.7400, -62.210
1594.7600, -62.207
1594.7800, -62.252
1594.8000, -62.187
1594.8200, -62.198
1594.8400, -62.263
1594.8600, -62.213
1594.8800, -62.199
1594.9000, -62.230
1594.9200, -62.245
1594.9400, -62.236
1594.9600, -62.250
1594.9800, -62.286
1595.0000, -62.235
1595.0200, -62.278
1595.0400, -62.271
1595.0600, -62.330
1595.0800, -62.281
1595.1000, -62.267
1595.1200, -62.308
1595.1400, -62.323
1595.1600, -62.289
1595.1800, -62.305
1595.2000, -62.240
1595.2200, -62.263
1595.2400, -62.303
1595.2600, -62.300
1595.2800, -62.331
1595.3000, -62.321
1595.3200, -62.341
1595.3400, -62.300
1595.3600, -62.345
1595.3800, -62.359
1595.4000, -62.330
1595.4200, -62.337
1595.4400, -62.358
1595.4600, -62.345
1595.4800, -62.362
1595.5000, -62.410
1595.5200, -62.383
1595.5400, -62.365
1595.5600, -62.358
1595.5800, -62.390
1595.6000, -62.379
1595.6200, -62.409
1595.6400, -62.371
1595.6600, -62.431
1595.6800, -62.389
1595.7000, -62.397
1595.7200, -62.442
1595.7400, -62.456
1595.7600, -62.405
1595.7800, -62.456
1595.8000, -62.406
1595.8200, -62.427
1595.8400, -62.418
1595.8600, -62.452
1595.8800, -62.445
1595.9000, -62.424
1595.9200, -62.453
1595.9400, -62.447
1595.9600, -62.477
1595.9800, -62.512
1596.0000, -62.487
1596.0200, -62.470
1596.0400, -62.484
1596.0600, -62.502
1596.0800, -62.489
1596.1000, -62.483
1596.1200, -62.508
1596.1400, -62.502
1596.1600, -62.509
1596.1800, -62.513
1596.2000, -62.509
1596.2200, -62.551
1596.2400, -62.513
1596.2600, -62.534
1596.2800, -62.510
1596.3000, -62.539
1596.3200, -62.507
1596.3400, -62.546
1596.3600, -62.553
1596.3800, -62.543
1596.4000, -62.547
1596.4200, -62.535
1596.4400, -62.595
1596.4600, -62.528
1596.4800, -62.582
1596.5000, -62.571
1596.5200, -62.534
1596.5400, -62.576
1596.5600, -62.612
1596.5800, -62.582
1596.6000, -62.636
1596.6200, -62.514
1596.6400, -62.579
1596.6600, -62.633
1596.6800, -62.626
1596.7000, -62.616
1596.7200, -62.602
1596.7400, -62.628
1596.7600, -62.626
1596.7800, -62.638
1596.8000, -62.625
1596.8200, -62.672
1596.8400, -62.669
1596.8600, -62.756
1596.8800, -62.560
1596.9000, -62.684
1596.9200, -62.683
1596.9400, -62.680
1596.9600, -62.675
1596.9800, -62.684
1597.0000, -62.683
1597.0200, -62.624
1597.0400, -62.662
1597.0600, -62.683
1597.0800, -62.688
1597.1000, -62.764
1597.1200, -62.631
1597.1400, -62.707
1597.1600, -62.688
1597.1800, -62.686
1597.2000, -62.732
1597.2200, -62.703
1597.2400, -62.713
1597.2600, -62.779
1597.2800, -62.732
1597.3000, -62.752
1597.3200, -62.733
1597.3400, -62.721
1597.3600, -62.720
1597.3800, -62.766
1597.4000, -62.815
1597.4200, -62.747
1597.4400, -62.743
1597.4600, -62.758
1597.4800, -62.819
1597.5000, -62.787
1597.5200, -62.794
1597.5400, -62.713
1597.5600, -62.811
1597.5800, -62.830
1597.6000, -62.748
1597.6200, -62.822
1597.6400, -62.825
1597.6600, -62.755
1597.6800, -62.780
1597.7000, -62.776
1597.7200, -62.823
1597.7400, -62.835
1597.7600, -62.830
1597.7800, -62.828
1597.8000, -62.844
1597.8200, -62.820
1597.8400, -62.839
1597.8600, -62.809
1597.8800, -62.805
1597.9000, -62.876
1597.9200, -62.902
1597.9400, -62.806
1597.9600, -62.865
1597.9800, -62.845
1598.0000, -62.901
1598.0200, -62.824
1598.0400, -62.849
1598.0600, -62.934
1598.0800, -62.871
1598.1000, -62.919
1598.1200, -62.871
1598.1400, -62.889
1598.1600, -62.882
1598.1800, -62.906
1598.2000, -62.916
1598.2200, -62.914
1598.2400, -62.914
1598.2600, -62.984
1598.2800, -62.900
1598.3000, -62.962
1598.3200, -62.920
1598.3400, -62.999
1598.3600, -62.962
1598.3800, -62.940
1598.4000, -62.988
1598.4200, -62.965
1598.4400, -63.045
1598.4600, -62.940
1598.4800, -62.979
1598.5000, -62.983
1598.5200, -62.967
1598.5400, -63.009
1598.5600, -62.971
1598.5800, -63.022
1598.6000, -62.962
1598.6200, -63.036
1598.6400, -62.956
1598.6600, -63.014
1598.6800, -63.038
1598.7000, -62.987
1598.7200, -63.038
1598.7400, -63.097
1598.7600, -62.960
1598.7800, -63.015
1598.8000, -63.033
1598.8200, -63.130
1598.8400, -62.981
1598.8600, -63.061
1598.8800, -63.053
1598.9000, -63.071
1598.9200, -63.038
1598.9400, -63.047
1598.9600, -63.035
1598.9800, -63.046
1599.0000, -63.093
1599.0200, -63.095
1599.0400, -63.086
1599.0600, -63.125
1599.0800, -63.066
1599.1000, -63.110
1599.1200, -63.079
1599.1400, -63.127
1599.1600, -63.118
1599.1800, -63.117
1599.2000, -63.124
1599.2200, -63.120
1599.2400, -63.151
1599.2600, -63.122
1599.2800, -63.144
1599.3000, -63.122
1599.3200, -63.167
1599.3400, -63.139
1599.3600, -63.146
1599.3800, -63.156
1599.4000, -63.133
1599.4200, -63.180
1599.4400, -63.189
1599.4600, -63.141
1599.4800, -63.222
1599.5000, -63.178
1599.5200, -63.191
1599.5400, -63.198
1599.5600, -63.229
1599.5800, -63.294
1599.6000, -63.191
1599.6200, -63.166
1599.6400, -63.193
1599.6600, -63.285
1599.6800, -63.203
1599.7000, -63.284
1599.7200, -63.184
1599.7400, -63.255
1599.7600, -63.251
1599.7800, -63.172
1599.8000, -63.199
1599.8200, -63.281
1599.8400, -63.215
1599.8600, -63.313
1599.8800, -63.224
1599.9000, -63.264
1599.9200, -63.286
1599.9400, -63.252
1599.9600, -63.239
1599.9800, -63.279
1600.0000, -63.291
