70BCSV 	
// AQ6370B OPTICAL SPECTRUM ANALYZER //                 
25
"CTRWL",1550.000000
"SPAN", 100.000000
"START WL",1500.000000
"STOP WL",1600.000000
"WLFREQ", 0
"REFL",-28.8
"LSCL", 5.0
"RESLN",0.100
"AVG",   1
"SMPLAUTO",      0
"SMPL",       5001
"SMPLINTVL",0.0200
"HIGH1"
"MEAS"
"LSUNT",0
"NMSKH","OFF"
"RESCOR",0
"RESPARM", 9050
"FREQPARM", 9050






"[TRACE DATA]"
1500.0000, -62.140
1500.0200, -62.173
1500.0400, -62.155
1500.0600, -62.157
1500.0800, -62.131
1500.1000, -62.158
1500.1200, -62.110
1500.1400, -62.123
1500.1600, -62.136
1500.1800, -62.107
1500.2000, -62.098
1500.2200, -62.109
1500.2400, -62.102
1500.2600, -62.121
1500.2800, -62.093
1500.3000, -62.098
1500.3200, -62.053
1500.3400, -62.096
1500.3600, -62.033
1500.3800, -62.111
1500.4000, -62.051
1500.4200, -62.058
1500.4400, -62.040
1500.4600, -62.039
1500.4800, -62.043
1500.5000, -62.032
1500.5200, -62.063
1500.5400, -62.020
1500.5600, -62.014
1500.5800, -61.994
1500.6000, -62.056
1500.6200, -61.978
1500.6400, -61.981
1500.6600, -62.045
1500.6800, -61.978
1500.7000, -61.983
1500.7200, -61.981
1500.7400, -62.006
1500.7600, -61.958
1500.7800, -61.962
1500.8000, -61.978
1500.8200, -61.933
1500.8400, -61.944
1500.8600, -61.937
1500.8800, -61.949
1500.9000, -61.938
1500.9200, -61.898
1500.9400, -61.935
1500.9600, -61.877
1500.9800, -61.887
1501.0000, -61.916
1501.0200, -61.844
1501.0400, -61.883
1501.0600, -61.898
1501.0800, -61.869
1501.1000, -61.906
1501.1200, -61.855
1501.1400, -61.817
1501.1600, -61.880
1501.1800, -61.869
1501.2000, -61.850
1501.2200, -61.859
1501.2400, -61.828
1501.2600, -61.817
1501.2800, -61.809
1501.3000, -61.816
1501.3200, -61.796
1501.3400, -61.805
1501.3600, -61.793
1501.3800, -61.779
1501.4000, -61.785
1501.4200, -61.762
1501.4400, -61.802
1501.4600, -61.750
1501.4800, -61.734
1501.5000, -61.778
1501.5200, -61.770
1501.5400, -61.705
1501.5600, -61.748
1501.5800, -61.731
1501.6000, -61.751
1501.6200, -61.728
1501.6400, -61.734
1501.6600, -61.666
1501.6800, -61.708
1501.7000, -61.712
1501.7200, -61.720
1501.7400, -61.680
1501.7600, -61.675
1501.7800, -61.707
1501.8000, -61.691
1501.8200, -61.693
1501.8400, -61.677
1501.8600, -61.644
1501.8800, -61.643
1501.9000, -61.637
1501.9200, -61.640
1501.9400, -61.646
1501.9600, -61.618
1501.9800, -61.603
1502.0000, -61.599
1502.0200, -61.614
1502.0400, -61.580
1502.0600, -61.602
1502.0800, -61.585
1502.1000, -61.572
1502.1200, -61.600
1502.1400, -61.571
1502.1600, -61.564
1502.1800, -61.547
1502.2000, -61.544
1502.2200, -61.546
1502.2400, -61.526
1502.2600, -61.544
1502.2800, -61.532
1502.3000, -61.504
1502.3200, -61.500
1502.3400, -61.500
1502.3600, -61.516
1502.3800, -61.486
1502.4000, -61.526
1502.4200, -61.488
1502.4400, -61.466
1502.4600, -61.453
1502.4800, -61.432
1502.5000, -61.480
1502.5200, -61.447
1502.5400, -61.433
1502.5600, -61.448
1502.5800, -61.416
1502.6000, -61.446
1502.6200, -61.449
1502.6400, -61.394
1502.6600, -61.379
1502.6800, -61.428
1502.7000, -61.398
1502.7200, -61.384
1502.7400, -61.386
1502.7600, -61.351
1502.7800, -61.370
1502.8000, -61.384
1502.8200, -61.374
1502.8400, -61.337
1502.8600, -61.334
1502.8800, -61.323
1502.9000, -61.319
1502.9200, -61.324
1502.9400, -61.332
1502.9600, -61.291
1502.9800, -61.307
1503.0000, -61.226
1503.0200, -61.314
1503.0400, -61.277
1503.0600, -61.249
1503.0800, -61.262
1503.1000, -61.292
1503.1200, -61.254
1503.1400, -61.217
1503.1600, -61.225
1503.1800, -61.255
1503.2000, -61.232
1503.2200, -61.232
1503.2400, -61.209
1503.2600, -61.169
1503.2800, -61.220
1503.3000, -61.184
1503.3200, -61.216
1503.3400, -61.165
1503.3600, -61.197
1503.3800, -61.153
1503.4000, -61.145
1503.4200, -61.153
1503.4400, -61.161
1503.4600, -61.160
1503.4800, -61.150
1503.5000, -61.124
1503.5200, -61.105
1503.5400, -61.111
1503.5600, -61.105
1503.5800, -61.113
1503.6000, -61.062
1503.6200, -61.102
1503.6400, -61.091
1503.6600, -61.061
1503.6800, -61.072
1503.7000, -61.046
1503.7200, -61.061
1503.7400, -61.027
1503.7600, -61.045
1503.7800, -61.037
1503.8000, -61.028
1503.8200, -61.029
1503.8400, -61.019
1503.8600, -60.990
1503.8800, -61.037
1503.9000, -61.005
1503.9200, -61.002
1503.9400, -60.979
1503.9600, -60.947
1503.9800, -60.966
1504.0000, -60.956
1504.0200, -60.980
1504.0400, -60.944
1504.0600, -60.933
1504.0800, -60.945
1504.1000, -60.931
1504.1200, -60.902
1504.1400, -60.941
1504.1600, -60.875
1504.1800, -60.912
1504.2000, -60.898
1504.2200, -60.833
1504.2400, -60.887
1504.2600, -60.845
1504.2800, -60.853
1504.3000, -60.866
1504.3200, -60.849
1504.3400, -60.854
1504.3600, -60.826
1504.3800, -60.876
1504.4000, -60.798
1504.4200, -60.787
1504.4400, -60.827
1504.4600, -60.795
1504.4800, -60.775
1504.5000, -60.778
1504.5200, -60.794
1504.5400, -60.762
1504.5600, -60.739
1504.5800, -60.759
1504.6000, -60.749
1504.6200, -60.759
1504.6400, -60.754
1504.6600, -60.720
1504.6800, -60.707
1504.7000, -60.726
1504.7200, -60.700
1504.7400, -60.684
1504.7600, -60.683
1504.7800, -60.689
1504.8000, -60.692
1504.8200, -60.680
1504.8400, -60.663
1504.8600, -60.644
1504.8800, -60.634
1504.9000, -60.658
1504.9200, -60.614
1504.9400, -60.616
1504.9600, -60.633
1504.9800, -60.591
1505.0000, -60.590
1505.0200, -60.597
1505.0400, -60.604
1505.0600, -60.553
1505.0800, -60.589
1505.1000, -60.547
1505.1200, -60.584
1505.1400, -60.527
1505.1600, -60.521
1505.1800, -60.552
1505.2000, -60.518
1505.2200, -60.516
1505.2400, -60.525
1505.2600, -60.528
1505.2800, -60.503
1505.3000, -60.481
1505.3200, -60.487
1505.3400, -60.486
1505.3600, -60.470
1505.3800, -60.432
1505.4000, -60.452
1505.4200, -60.457
1505.4400, -60.443
1505.4600, -60.423
1505.4800, -60.426
1505.5000, -60.407
1505.5200, -60.415
1505.5400, -60.392
1505.5600, -60.364
1505.5800, -60.397
1505.6000, -60.370
1505.6200, -60.383
1505.6400, -60.354
1505.6600, -60.341
1505.6800, -60.333
1505.7000, -60.323
1505.7200, -60.340
1505.7400, -60.339
1505.7600, -60.313
1505.7800, -60.303
1505.8000, -60.291
1505.8200, -60.279
1505.8400, -60.277
1505.8600, -60.278
1505.8800, -60.267
1505.9000, -60.265
1505.9200, -60.246
1505.9400, -60.255
1505.9600, -60.265
1505.9800, -60.246
1506.0000, -60.232
1506.0200, -60.184
1506.0400, -60.194
1506.0600, -60.179
1506.0800, -60.205
1506.1000, -60.192
1506.1200, -60.172
1506.1400, -60.150
1506.1600, -60.136
1506.1800, -60.154
1506.2000, -60.172
1506.2200, -60.121
1506.2400, -60.133
1506.2600, -60.139
1506.2800, -60.113
1506.3000, -60.112
1506.3200, -60.122
1506.3400, -60.104
1506.3600, -60.080
1506.3800, -60.079
1506.4000, -60.082
1506.4200, -60.078
1506.4400, -60.066
1506.4600, -60.020
1506.4800, -60.060
1506.5000, -60.045
1506.5200, -60.000
1506.5400, -60.014
1506.5600, -60.004
1506.5800, -59.994
1506.6000, -59.987
1506.6200, -59.993
1506.6400, -59.968
1506.6600, -59.970
1506.6800, -59.972
1506.7000, -59.946
1506.7200, -59.926
1506.7400, -59.934
1506.7600, -59.917
1506.7800, -59.923
1506.8000, -59.905
1506.8200, -59.900
1506.8400, -59.890
1506.8600, -59.880
1506.8800, -59.893
1506.9000, -59.844
1506.9200, -59.860
1506.9400, -59.839
1506.9600, -59.852
1506.9800, -59.833
1507.0000, -59.837
1507.0200, -59.829
1507.0400, -59.813
1507.0600, -59.799
1507.0800, -59.797
1507.1000, -59.819
1507.1200, -59.753
1507.1400, -59.803
1507.1600, -59.780
1507.1800, -59.758
1507.2000, -59.752
1507.2200, -59.765
1507.2400, -59.723
1507.2600, -59.725
1507.2800, -59.739
1507.3000, -59.741
1507.3200, -59.731
1507.3400, -59.699
1507.3600, -59.693
1507.3800, -59.677
1507.4000, -59.680
1507.4200, -59.664
1507.4400, -59.663
1507.4600, -59.651
1507.4800, -59.629
1507.5000, -59.640
1507.5200, -59.625
1507.5400, -59.615
1507.5600, -59.610
1507.5800, -59.596
1507.6000, -59.589
1507.6200, -59.588
1507.6400, -59.572
1507.6600, -59.543
1507.6800, -59.561
1507.7000, -59.565
1507.7200, -59.539
1507.7400, -59.523
1507.7600, -59.526
1507.7800, -59.551
1507.8000, -59.477
1507.8200, -59.491
1507.8400, -59.505
1507.8600, -59.464
1507.8800, -59.497
1507.9000, -59.456
1507.9200, -59.449
1507.9400, -59.453
1507.9600, -59.439
1507.9800, -59.452
1508.0000, -59.432
1508.0200, -59.406
1508.0400, -59.419
1508.0600, -59.412
1508.0800, -59.389
1508.1000, -59.404
1508.1200, -59.368
1508.1400, -59.372
1508.1600, -59.360
1508.1800, -59.377
1508.2000, -59.349
1508.2200, -59.338
1508.2400, -59.335
1508.2600, -59.333
1508.2800, -59.341
1508.3000, -59.322
1508.3200, -59.310
1508.3400, -59.297
1508.3600, -59.306
1508.3800, -59.265
1508.4000, -59.286
1508.4200, -59.243
1508.4400, -59.257
1508.4600, -59.240
1508.4800, -59.234
1508.5000, -59.229
1508.5200, -59.246
1508.5400, -59.207
1508.5600, -59.226
1508.5800, -59.196
1508.6000, -59.174
1508.6200, -59.170
1508.6400, -59.166
1508.6600, -59.171
1508.6800, -59.149
1508.7000, -59.149
1508.7200, -59.147
1508.7400, -59.134
1508.7600, -59.122
1508.7800, -59.100
1508.8000, -59.099
1508.8200, -59.107
1508.8400, -59.087
1508.8600, -59.081
1508.8800, -59.061
1508.9000, -59.063
1508.9200, -59.058
1508.9400, -59.038
1508.9600, -59.049
1508.9800, -59.035
1509.0000, -59.016
1509.0200, -59.013
1509.0400, -58.983
1509.0600, -59.003
1509.0800, -58.994
1509.1000, -58.984
1509.1200, -58.986
1509.1400, -58.964
1509.1600, -58.977
1509.1800, -58.943
1509.2000, -58.935
1509.2200, -58.905
1509.2400, -58.924
1509.2600, -58.912
1509.2800, -58.895
1509.3000, -58.888
1509.3200, -58.889
1509.3400, -58.872
1509.3600, -58.861
1509.3800, -58.864
1509.4000, -58.836
1509.4200, -58.866
1509.4400, -58.816
1509.4600, -58.813
1509.4800, -58.796
1509.5000, -58.802
1509.5200, -58.791
1509.5400, -58.782
1509.5600, -58.772
1509.5800, -58.754
1509.6000, -58.765
1509.6200, -58.749
1509.6400, -58.746
1509.6600, -58.735
1509.6800, -58.733
1509.7000, -58.693
1509.7200, -58.708
1509.7400, -58.696
1509.7600, -58.680
1509.7800, -58.675
1509.8000, -58.648
1509.8200, -58.652
1509.8400, -58.624
1509.8600, -58.650
1509.8800, -58.637
1509.9000, -58.622
1509.9200, -58.600
1509.9400, -58.622
1509.9600, -58.599
1509.9800, -58.578
1510.0000, -58.572
1510.0200, -58.580
1510.0400, -58.567
1510.0600, -58.567
1510.0800, -58.557
1510.1000, -58.537
1510.1200, -58.541
1510.1400, -58.486
1510.1600, -58.528
1510.1800, -58.490
1510.2000, -58.482
1510.2200, -58.500
1510.2400, -58.463
1510.2600, -58.458
1510.2800, -58.442
1510.3000, -58.436
1510.3200, -58.440
1510.3400, -58.411
1510.3600, -58.393
1510.3800, -58.388
1510.4000, -58.384
1510.4200, -58.386
1510.4400, -58.354
1510.4600, -58.352
1510.4800, -58.322
1510.5000, -58.319
1510.5200, -58.320
1510.5400, -58.294
1510.5600, -58.296
1510.5800, -58.301
1510.6000, -58.306
1510.6200, -58.260
1510.6400, -58.248
1510.6600, -58.242
1510.6800, -58.230
1510.7000, -58.214
1510.7200, -58.206
1510.7400, -58.185
1510.7600, -58.188
1510.7800, -58.169
1510.8000, -58.176
1510.8200, -58.159
1510.8400, -58.156
1510.8600, -58.131
1510.8800, -58.129
1510.9000, -58.111
1510.9200, -58.099
1510.9400, -58.095
1510.9600, -58.088
1510.9800, -58.086
1511.0000, -58.066
1511.0200, -58.073
1511.0400, -58.059
1511.0600, -58.020
1511.0800, -58.017
1511.1000, -58.012
1511.1200, -58.009
1511.1400, -57.992
1511.1600, -57.972
1511.1800, -57.969
1511.2000, -57.953
1511.2200, -57.947
1511.2400, -57.939
1511.2600, -57.932
1511.2800, -57.926
1511.3000, -57.924
1511.3200, -57.885
1511.3400, -57.902
1511.3600, -57.868
1511.3800, -57.865
1511.4000, -57.861
1511.4200, -57.845
1511.4400, -57.816
1511.4600, -57.807
1511.4800, -57.788
1511.5000, -57.790
1511.5200, -57.790
1511.5400, -57.770
1511.5600, -57.766
1511.5800, -57.746
1511.6000, -57.744
1511.6200, -57.731
1511.6400, -57.712
1511.6600, -57.702
1511.6800, -57.694
1511.7000, -57.689
1511.7200, -57.673
1511.7400, -57.656
1511.7600, -57.652
1511.7800, -57.633
1511.8000, -57.645
1511.8200, -57.619
1511.8400, -57.604
1511.8600, -57.577
1511.8800, -57.593
1511.9000, -57.572
1511.9200, -57.562
1511.9400, -57.556
1511.9600, -57.540
1511.9800, -57.531
1512.0000, -57.505
1512.0200, -57.504
1512.0400, -57.501
1512.0600, -57.490
1512.0800, -57.468
1512.1000, -57.468
1512.1200, -57.472
1512.1400, -57.436
1512.1600, -57.424
1512.1800, -57.426
1512.2000, -57.406
1512.2200, -57.417
1512.2400, -57.391
1512.2600, -57.384
1512.2800, -57.374
1512.3000, -57.355
1512.3200, -57.347
1512.3400, -57.308
1512.3600, -57.326
1512.3800, -57.300
1512.4000, -57.307
1512.4200, -57.282
1512.4400, -57.291
1512.4600, -57.264
1512.4800, -57.240
1512.5000, -57.234
1512.5200, -57.236
1512.5400, -57.216
1512.5600, -57.199
1512.5800, -57.183
1512.6000, -57.171
1512.6200, -57.177
1512.6400, -57.155
1512.6600, -57.148
1512.6800, -57.131
1512.7000, -57.126
1512.7200, -57.105
1512.7400, -57.095
1512.7600, -57.085
1512.7800, -57.085
1512.8000, -57.059
1512.8200, -57.062
1512.8400, -57.041
1512.8600, -57.033
1512.8800, -57.019
1512.9000, -57.022
1512.9200, -57.005
1512.9400, -56.997
1512.9600, -56.983
1512.9800, -56.969
1513.0000, -56.950
1513.0200, -56.950
1513.0400, -56.935
1513.0600, -56.923
1513.0800, -56.905
1513.1000, -56.894
1513.1200, -56.897
1513.1400, -56.872
1513.1600, -56.880
1513.1800, -56.865
1513.2000, -56.857
1513.2200, -56.836
1513.2400, -56.818
1513.2600, -56.804
1513.2800, -56.793
1513.3000, -56.783
1513.3200, -56.769
1513.3400, -56.753
1513.3600, -56.736
1513.3800, -56.729
1513.4000, -56.722
1513.4200, -56.703
1513.4400, -56.701
1513.4600, -56.676
1513.4800, -56.678
1513.5000, -56.642
1513.5200, -56.642
1513.5400, -56.628
1513.5600, -56.618
1513.5800, -56.599
1513.6000, -56.579
1513.6200, -56.582
1513.6400, -56.569
1513.6600, -56.556
1513.6800, -56.544
1513.7000, -56.530
1513.7200, -56.527
1513.7400, -56.505
1513.7600, -56.493
1513.7800, -56.483
1513.8000, -56.474
1513.8200, -56.465
1513.8400, -56.452
1513.8600, -56.434
1513.8800, -56.428
1513.9000, -56.408
1513.9200, -56.394
1513.9400, -56.379
1513.9600, -56.375
1513.9800, -56.362
1514.0000, -56.345
1514.0200, -56.336
1514.0400, -56.318
1514.0600, -56.310
1514.0800, -56.293
1514.1000, -56.289
1514.1200, -56.273
1514.1400, -56.258
1514.1600, -56.250
1514.1800, -56.228
1514.2000, -56.234
1514.2200, -56.215
1514.2400, -56.202
1514.2600, -56.168
1514.2800, -56.165
1514.3000, -56.142
1514.3200, -56.137
1514.3400, -56.128
1514.3600, -56.102
1514.3800, -56.097
1514.4000, -56.091
1514.4200, -56.075
1514.4400, -56.061
1514.4600, -56.049
1514.4800, -56.027
1514.5000, -56.031
1514.5200, -55.997
1514.5400, -55.989
1514.5600, -55.978
1514.5800, -55.971
1514.6000, -55.955
1514.6200, -55.951
1514.6400, -55.933
1514.6600, -55.918
1514.6800, -55.903
1514.7000, -55.888
1514.7200, -55.869
1514.7400, -55.871
1514.7600, -55.858
1514.7800, -55.843
1514.8000, -55.841
1514.8200, -55.815
1514.8400, -55.801
1514.8600, -55.797
1514.8800, -55.781
1514.9000, -55.774
1514.9200, -55.748
1514.9400, -55.744
1514.9600, -55.725
1514.9800, -55.712
1515.0000, -55.695
1515.0200, -55.690
1515.0400, -55.664
1515.0600, -55.653
1515.0800, -55.643
1515.1000, -55.627
1515.1200, -55.614
1515.1400, -55.597
1515.1600, -55.585
1515.1800, -55.576
1515.2000, -55.549
1515.2200, -55.526
1515.2400, -55.521
1515.2600, -55.507
1515.2800, -55.495
1515.3000, -55.467
1515.3200, -55.465
1515.3400, -55.446
1515.3600, -55.446
1515.3800, -55.421
1515.4000, -55.398
1515.4200, -55.400
1515.4400, -55.379
1515.4600, -55.367
1515.4800, -55.343
1515.5000, -55.333
1515.5200, -55.321
1515.5400, -55.309
1515.5600, -55.296
1515.5800, -55.283
1515.6000, -55.263
1515.6200, -55.253
1515.6400, -55.246
1515.6600, -55.221
1515.6800, -55.218
1515.7000, -55.195
1515.7200, -55.189
1515.7400, -55.169
1515.7600, -55.162
1515.7800, -55.144
1515.8000, -55.133
1515.8200, -55.122
1515.8400, -55.103
1515.8600, -55.079
1515.8800, -55.068
1515.9000, -55.053
1515.9200, -55.042
1515.9400, -55.027
1515.9600, -54.999
1515.9800, -55.001
1516.0000, -54.986
1516.0200, -54.959
1516.0400, -54.950
1516.0600, -54.943
1516.0800, -54.905
1516.1000, -54.902
1516.1200, -54.887
1516.1400, -54.865
1516.1600, -54.850
1516.1800, -54.824
1516.2000, -54.811
1516.2200, -54.806
1516.2400, -54.789
1516.2600, -54.770
1516.2800, -54.763
1516.3000, -54.748
1516.3200, -54.717
1516.3400, -54.718
1516.3600, -54.689
1516.3800, -54.669
1516.4000, -54.662
1516.4200, -54.655
1516.4400, -54.637
1516.4600, -54.625
1516.4800, -54.595
1516.5000, -54.575
1516.5200, -54.560
1516.5400, -54.536
1516.5600, -54.533
1516.5800, -54.519
1516.6000, -54.504
1516.6200, -54.479
1516.6400, -54.463
1516.6600, -54.447
1516.6800, -54.443
1516.7000, -54.432
1516.7200, -54.397
1516.7400, -54.386
1516.7600, -54.374
1516.7800, -54.350
1516.8000, -54.329
1516.8200, -54.327
1516.8400, -54.318
1516.8600, -54.286
1516.8800, -54.267
1516.9000, -54.244
1516.9200, -54.238
1516.9400, -54.229
1516.9600, -54.193
1516.9800, -54.173
1517.0000, -54.154
1517.0200, -54.136
1517.0400, -54.114
1517.0600, -54.100
1517.0800, -54.097
1517.1000, -54.060
1517.1200, -54.046
1517.1400, -54.023
1517.1600, -54.014
1517.1800, -53.997
1517.2000, -53.983
1517.2200, -53.953
1517.2400, -53.933
1517.2600, -53.915
1517.2800, -53.902
1517.3000, -53.886
1517.3200, -53.856
1517.3400, -53.851
1517.3600, -53.834
1517.3800, -53.822
1517.4000, -53.788
1517.4200, -53.766
1517.4400, -53.750
1517.4600, -53.738
1517.4800, -53.720
1517.5000, -53.702
1517.5200, -53.677
1517.5400, -53.666
1517.5600, -53.645
1517.5800, -53.624
1517.6000, -53.614
1517.6200, -53.595
1517.6400, -53.574
1517.6600, -53.555
1517.6800, -53.529
1517.7000, -53.511
1517.7200, -53.494
1517.7400, -53.459
1517.7600, -53.465
1517.7800, -53.447
1517.8000, -53.411
1517.8200, -53.392
1517.8400, -53.371
1517.8600, -53.353
1517.8800, -53.344
1517.9000, -53.309
1517.9200, -53.295
1517.9400, -53.266
1517.9600, -53.249
1517.9800, -53.229
1518.0000, -53.219
1518.0200, -53.197
1518.0400, -53.167
1518.0600, -53.147
1518.0800, -53.124
1518.1000, -53.105
1518.1200, -53.090
1518.1400, -53.066
1518.1600, -53.043
1518.1800, -53.017
1518.2000, -53.000
1518.2200, -52.988
1518.2400, -52.963
1518.2600, -52.934
1518.2800, -52.925
1518.3000, -52.911
1518.3200, -52.870
1518.3400, -52.854
1518.3600, -52.825
1518.3800, -52.833
1518.4000, -52.795
1518.4200, -52.773
1518.4400, -52.751
1518.4600, -52.728
1518.4800, -52.705
1518.5000, -52.679
1518.5200, -52.664
1518.5400, -52.649
1518.5600, -52.624
1518.5800, -52.605
1518.6000, -52.573
1518.6200, -52.556
1518.6400, -52.536
1518.6600, -52.518
1518.6800, -52.493
1518.7000, -52.479
1518.7200, -52.456
1518.7400, -52.425
1518.7600, -52.396
1518.7800, -52.367
1518.8000, -52.353
1518.8200, -52.345
1518.8400, -52.308
1518.8600, -52.288
1518.8800, -52.261
1518.9000, -52.234
1518.9200, -52.220
1518.9400, -52.190
1518.9600, -52.171
1518.9800, -52.135
1519.0000, -52.111
1519.0200, -52.090
1519.0400, -52.058
1519.0600, -52.050
1519.0800, -52.023
1519.1000, -51.994
1519.1200, -51.964
1519.1400, -51.940
1519.1600, -51.909
1519.1800, -51.890
1519.2000, -51.876
1519.2200, -51.844
1519.2400, -51.827
1519.2600, -51.806
1519.2800, -51.760
1519.3000, -51.749
1519.3200, -51.722
1519.3400, -51.687
1519.3600, -51.665
1519.3800, -51.635
1519.4000, -51.612
1519.4200, -51.585
1519.4400, -51.562
1519.4600, -51.542
1519.4800, -51.512
1519.5000, -51.486
1519.5200, -51.469
1519.5400, -51.443
1519.5600, -51.419
1519.5800, -51.386
1519.6000, -51.352
1519.6200, -51.341
1519.6400, -51.298
1519.6600, -51.280
1519.6800, -51.253
1519.7000, -51.228
1519.7200, -51.205
1519.7400, -51.179
1519.7600, -51.152
1519.7800, -51.114
1519.8000, -51.086
1519.8200, -51.059
1519.8400, -51.028
1519.8600, -51.002
1519.8800, -50.971
1519.9000, -50.953
1519.9200, -50.923
1519.9400, -50.893
1519.9600, -50.853
1519.9800, -50.830
1520.0000, -50.806
1520.0200, -50.770
1520.0400, -50.740
1520.0600, -50.714
1520.0800, -50.685
1520.1000, -50.643
1520.1200, -50.623
1520.1400, -50.595
1520.1600, -50.555
1520.1800, -50.521
1520.2000, -50.490
1520.2200, -50.464
1520.2400, -50.454
1520.2600, -50.420
1520.2800, -50.396
1520.3000, -50.358
1520.3200, -50.316
1520.3400, -50.290
1520.3600, -50.253
1520.3800, -50.232
1520.4000, -50.221
1520.4200, -50.179
1520.4400, -50.141
1520.4600, -50.118
1520.4800, -50.081
1520.5000, -50.052
1520.5200, -50.013
1520.5400, -49.985
1520.5600, -49.954
1520.5800, -49.918
1520.6000, -49.885
1520.6200, -49.868
1520.6400, -49.827
1520.6600, -49.787
1520.6800, -49.755
1520.7000, -49.733
1520.7200, -49.692
1520.7400, -49.658
1520.7600, -49.634
1520.7800, -49.595
1520.8000, -49.563
1520.8200, -49.543
1520.8400, -49.503
1520.8600, -49.457
1520.8800, -49.416
1520.9000, -49.377
1520.9200, -49.338
1520.9400, -49.313
1520.9600, -49.280
1520.9800, -49.240
1521.0000, -49.214
1521.0200, -49.179
1521.0400, -49.130
1521.0600, -49.115
1521.0800, -49.075
1521.1000, -49.039
1521.1200, -48.995
1521.1400, -48.955
1521.1600, -48.935
1521.1800, -48.897
1521.2000, -48.859
1521.2200, -48.826
1521.2400, -48.792
1521.2600, -48.760
1521.2800, -48.714
1521.3000, -48.673
1521.3200, -48.645
1521.3400, -48.617
1521.3600, -48.590
1521.3800, -48.555
1521.4000, -48.510
1521.4200, -48.466
1521.4400, -48.434
1521.4600, -48.403
1521.4800, -48.378
1521.5000, -48.341
1521.5200, -48.296
1521.5400, -48.250
1521.5600, -48.216
1521.5800, -48.178
1521.6000, -48.137
1521.6200, -48.098
1521.6400, -48.070
1521.6600, -48.049
1521.6800, -48.002
1521.7000, -47.961
1521.7200, -47.910
1521.7400, -47.869
1521.7600, -47.843
1521.7800, -47.790
1521.8000, -47.750
1521.8200, -47.711
1521.8400, -47.678
1521.8600, -47.637
1521.8800, -47.605
1521.9000, -47.585
1521.9200, -47.545
1521.9400, -47.498
1521.9600, -47.448
1521.9800, -47.418
1522.0000, -47.377
1522.0200, -47.330
1522.0400, -47.290
1522.0600, -47.252
1522.0800, -47.230
1522.1000, -47.191
1522.1200, -47.148
1522.1400, -47.110
1522.1600, -47.065
1522.1800, -47.035
1522.2000, -47.005
1522.2200, -46.949
1522.2400, -46.905
1522.2600, -46.878
1522.2800, -46.837
1522.3000, -46.809
1522.3200, -46.773
1522.3400, -46.730
1522.3600, -46.686
1522.3800, -46.641
1522.4000, -46.610
1522.4200, -46.573
1522.4400, -46.528
1522.4600, -46.486
1522.4800, -46.445
1522.5000, -46.406
1522.5200, -46.365
1522.5400, -46.322
1522.5600, -46.273
1522.5800, -46.244
1522.6000, -46.206
1522.6200, -46.182
1522.6400, -46.131
1522.6600, -46.084
1522.6800, -46.040
1522.7000, -45.998
1522.7200, -45.961
1522.7400, -45.911
1522.7600, -45.867
1522.7800, -45.831
1522.8000, -45.794
1522.8200, -45.758
1522.8400, -45.726
1522.8600, -45.682
1522.8800, -45.635
1522.9000, -45.598
1522.9200, -45.558
1522.9400, -45.517
1522.9600, -45.472
1522.9800, -45.424
1523.0000, -45.388
1523.0200, -45.349
1523.0400, -45.316
1523.0600, -45.275
1523.0800, -45.234
1523.1000, -45.198
1523.1200, -45.163
1523.1400, -45.124
1523.1600, -45.074
1523.1800, -45.028
1523.2000, -44.997
1523.2200, -44.959
1523.2400, -44.923
1523.2600, -44.887
1523.2800, -44.844
1523.3000, -44.801
1523.3200, -44.755
1523.3400, -44.715
1523.3600, -44.694
1523.3800, -44.636
1523.4000, -44.589
1523.4200, -44.552
1523.4400, -44.519
1523.4600, -44.480
1523.4800, -44.447
1523.5000, -44.395
1523.5200, -44.357
1523.5400, -44.326
1523.5600, -44.279
1523.5800, -44.231
1523.6000, -44.198
1523.6200, -44.158
1523.6400, -44.110
1523.6600, -44.076
1523.6800, -44.030
1523.7000, -43.992
1523.7200, -43.963
1523.7400, -43.919
1523.7600, -43.883
1523.7800, -43.842
1523.8000, -43.801
1523.8200, -43.760
1523.8400, -43.717
1523.8600, -43.673
1523.8800, -43.637
1523.9000, -43.601
1523.9200, -43.555
1523.9400, -43.515
1523.9600, -43.478
1523.9800, -43.438
1524.0000, -43.405
1524.0200, -43.369
1524.0400, -43.328
1524.0600, -43.297
1524.0800, -43.256
1524.1000, -43.217
1524.1200, -43.170
1524.1400, -43.140
1524.1600, -43.102
1524.1800, -43.067
1524.2000, -43.033
1524.2200, -42.997
1524.2400, -42.947
1524.2600, -42.910
1524.2800, -42.878
1524.3000, -42.837
1524.3200, -42.800
1524.3400, -42.752
1524.3600, -42.716
1524.3800, -42.682
1524.4000, -42.661
1524.4200, -42.614
1524.4400, -42.576
1524.4600, -42.541
1524.4800, -42.501
1524.5000, -42.457
1524.5200, -42.407
1524.5400, -42.372
1524.5600, -42.339
1524.5800, -42.305
1524.6000, -42.262
1524.6200, -42.224
1524.6400, -42.193
1524.6600, -42.146
1524.6800, -42.105
1524.7000, -42.076
1524.7200, -42.035
1524.7400, -41.990
1524.7600, -41.958
1524.7800, -41.918
1524.8000, -41.879
1524.8200, -41.827
1524.8400, -41.792
1524.8600, -41.759
1524.8800, -41.728
1524.9000, -41.687
1524.9200, -41.649
1524.9400, -41.610
1524.9600, -41.572
1524.9800, -41.538
1525.0000, -41.502
1525.0200, -41.463
1525.0400, -41.427
1525.0600, -41.387
1525.0800, -41.350
1525.1000, -41.313
1525.1200, -41.283
1525.1400, -41.241
1525.1600, -41.211
1525.1800, -41.171
1525.2000, -41.128
1525.2200, -41.093
1525.2400, -41.055
1525.2600, -41.026
1525.2800, -40.994
1525.3000, -40.950
1525.3200, -40.919
1525.3400, -40.892
1525.3600, -40.848
1525.3800, -40.802
1525.4000, -40.780
1525.4200, -40.733
1525.4400, -40.694
1525.4600, -40.655
1525.4800, -40.617
1525.5000, -40.577
1525.5200, -40.535
1525.5400, -40.499
1525.5600, -40.454
1525.5800, -40.430
1525.6000, -40.388
1525.6200, -40.346
1525.6400, -40.319
1525.6600, -40.277
1525.6800, -40.251
1525.7000, -40.206
1525.7200, -40.161
1525.7400, -40.122
1525.7600, -40.079
1525.7800, -40.039
1525.8000, -40.004
1525.8200, -39.964
1525.8400, -39.932
1525.8600, -39.900
1525.8800, -39.860
1525.9000, -39.840
1525.9200, -39.794
1525.9400, -39.753
1525.9600, -39.720
1525.9800, -39.685
1526.0000, -39.655
1526.0200, -39.619
1526.0400, -39.588
1526.0600, -39.553
1526.0800, -39.518
1526.1000, -39.481
1526.1200, -39.452
1526.1400, -39.401
1526.1600, -39.362
1526.1800, -39.328
1526.2000, -39.295
1526.2200, -39.278
1526.2400, -39.222
1526.2600, -39.184
1526.2800, -39.157
1526.3000, -39.133
1526.3200, -39.082
1526.3400, -39.049
1526.3600, -39.018
1526.3800, -38.985
1526.4000, -38.953
1526.4200, -38.911
1526.4400, -38.881
1526.4600, -38.842
1526.4800, -38.815
1526.5000, -38.768
1526.5200, -38.734
1526.5400, -38.699
1526.5600, -38.643
1526.5800, -38.613
1526.6000, -38.582
1526.6200, -38.542
1526.6400, -38.508
1526.6600, -38.474
1526.6800, -38.447
1526.7000, -38.403
1526.7200, -38.372
1526.7400, -38.331
1526.7600, -38.289
1526.7800, -38.256
1526.8000, -38.208
1526.8200, -38.186
1526.8400, -38.149
1526.8600, -38.102
1526.8800, -38.070
1526.9000, -38.031
1526.9200, -38.004
1526.9400, -37.962
1526.9600, -37.926
1526.9800, -37.880
1527.0000, -37.857
1527.0200, -37.816
1527.0400, -37.792
1527.0600, -37.744
1527.0800, -37.722
1527.1000, -37.688
1527.1200, -37.643
1527.1400, -37.615
1527.1600, -37.566
1527.1800, -37.531
1527.2000, -37.487
1527.2200, -37.466
1527.2400, -37.431
1527.2600, -37.385
1527.2800, -37.349
1527.3000, -37.331
1527.3200, -37.286
1527.3400, -37.263
1527.3600, -37.211
1527.3800, -37.185
1527.4000, -37.142
1527.4200, -37.093
1527.4400, -37.051
1527.4600, -37.028
1527.4800, -36.983
1527.5000, -36.930
1527.5200, -36.904
1527.5400, -36.863
1527.5600, -36.832
1527.5800, -36.784
1527.6000, -36.773
1527.6200, -36.723
1527.6400, -36.677
1527.6600, -36.637
1527.6800, -36.596
1527.7000, -36.574
1527.7200, -36.526
1527.7400, -36.488
1527.7600, -36.464
1527.7800, -36.410
1527.8000, -36.379
1527.8200, -36.327
1527.8400, -36.304
1527.8600, -36.274
1527.8800, -36.232
1527.9000, -36.191
1527.9200, -36.175
1527.9400, -36.124
1527.9600, -36.082
1527.9800, -36.042
1528.0000, -36.009
1528.0200, -35.957
1528.0400, -35.912
1528.0600, -35.873
1528.0800, -35.847
1528.1000, -35.794
1528.1200, -35.762
1528.1400, -35.725
1528.1600, -35.702
1528.1800, -35.662
1528.2000, -35.594
1528.2200, -35.570
1528.2400, -35.542
1528.2600, -35.490
1528.2800, -35.451
1528.3000, -35.429
1528.3200, -35.384
1528.3400, -35.339
1528.3600, -35.284
1528.3800, -35.252
1528.4000, -35.236
1528.4200, -35.179
1528.4400, -35.144
1528.4600, -35.142
1528.4800, -35.101
1528.5000, -35.044
1528.5200, -35.019
1528.5400, -34.988
1528.5600, -34.936
1528.5800, -34.896
1528.6000, -34.858
1528.6200, -34.845
1528.6400, -34.816
1528.6600, -34.755
1528.6800, -34.734
1528.7000, -34.692
1528.7200, -34.635
1528.7400, -34.602
1528.7600, -34.550
1528.7800, -34.532
1528.8000, -34.486
1528.8200, -34.449
1528.8400, -34.400
1528.8600, -34.374
1528.8800, -34.323
1528.9000, -34.296
1528.9200, -34.245
1528.9400, -34.204
1528.9600, -34.161
1528.9800, -34.112
1529.0000, -34.087
1529.0200, -34.038
1529.0400, -34.003
1529.0600, -33.963
1529.0800, -33.944
1529.1000, -33.909
1529.1200, -33.838
1529.1400, -33.799
1529.1600, -33.782
1529.1800, -33.728
1529.2000, -33.702
1529.2200, -33.655
1529.2400, -33.628
1529.2600, -33.558
1529.2800, -33.497
1529.3000, -33.444
1529.3200, -33.428
1529.3400, -33.366
1529.3600, -33.306
1529.3800, -33.288
1529.4000, -33.226
1529.4200, -33.219
1529.4400, -33.168
1529.4600, -33.155
1529.4800, -33.083
1529.5000, -33.051
1529.5200, -33.022
1529.5400, -32.998
1529.5600, -33.023
1529.5800, -32.938
1529.6000, -32.913
1529.6200, -32.855
1529.6400, -32.786
1529.6600, -32.765
1529.6800, -32.713
1529.7000, -32.704
1529.7200, -32.675
1529.7400, -32.625
1529.7600, -32.585
1529.7800, -32.563
1529.8000, -32.498
1529.8200, -32.468
1529.8400, -32.405
1529.8600, -32.350
1529.8800, -32.314
1529.9000, -32.282
1529.9200, -32.275
1529.9400, -32.206
1529.9600, -32.140
1529.9800, -32.077
1530.0000, -32.052
1530.0200, -31.989
1530.0400, -31.922
1530.0600, -31.892
1530.0800, -31.877
1530.1000, -31.810
1530.1200, -31.778
1530.1400, -31.729
1530.1600, -31.710
1530.1800, -31.677
1530.2000, -31.623
1530.2200, -31.571
1530.2400, -31.562
1530.2600, -31.497
1530.2800, -31.464
1530.3000, -31.462
1530.3200, -31.412
1530.3400, -31.373
1530.3600, -31.281
1530.3800, -31.227
1530.4000, -31.195
1530.4200, -31.119
1530.4400, -31.045
1530.4600, -31.022
1530.4800, -31.004
1530.5000, -30.923
1530.5200, -30.872
1530.5400, -30.852
1530.5600, -30.792
1530.5800, -30.753
1530.6000, -30.713
1530.6200, -30.658
1530.6400, -30.632
1530.6600, -30.587
1530.6800, -30.547
1530.7000, -30.545
1530.7200, -30.523
1530.7400, -30.508
1530.7600, -30.442
1530.7800, -30.417
1530.8000, -30.407
1530.8200, -30.462
1530.8400, -30.391
1530.8600, -30.331
1530.8800, -30.261
1530.9000, -30.218
1530.9200, -30.220
1530.9400, -30.187
1530.9600, -30.118
1530.9800, -30.132
1531.0000, -30.142
1531.0200, -30.153
1531.0400, -30.086
1531.0600, -30.033
1531.0800, -29.994
1531.1000, -29.990
1531.1200, -29.907
1531.1400, -29.846
1531.1600, -29.830
1531.1800, -29.799
1531.2000, -29.743
1531.2200, -29.714
1531.2400, -29.673
1531.2600, -29.610
1531.2800, -29.526
1531.3000, -29.425
1531.3200, -29.416
1531.3400, -29.310
1531.3600, -29.300
1531.3800, -29.246
1531.4000, -29.229
1531.4200, -29.216
1531.4400, -29.148
1531.4600, -29.184
1531.4800, -29.177
1531.5000, -29.133
1531.5200, -29.178
1531.5400, -29.157
1531.5600, -29.151
1531.5800, -29.147
1531.6000, -29.106
1531.6200, -29.116
1531.6400, -29.150
1531.6600, -29.117
1531.6800, -29.057
1531.7000, -28.986
1531.7200, -28.959
1531.7400, -28.926
1531.7600, -28.953
1531.7800, -28.887
1531.8000, -28.829
1531.8200, -28.826
1531.8400, -28.823
1531.8600, -28.789
1531.8800, -28.603
1531.9000, -28.636
1531.9200, -28.638
1531.9400, -28.689
1531.9600, -28.660
1531.9800, -28.633
1532.0000, -28.611
1532.0200, -28.605
1532.0400, -28.653
1532.0600, -28.693
1532.0800, -28.720
1532.1000, -28.774
1532.1200, -28.891
1532.1400, -28.905
1532.1600, -28.883
1532.1800, -28.889
1532.2000, -28.844
1532.2200, -28.790
1532.2400, -28.761
1532.2600, -28.771
1532.2800, -28.806
1532.3000, -28.745
1532.3200, -28.797
1532.3400, -28.745
1532.3600, -28.739
1532.3800, -28.908
1532.4000, -28.832
1532.4200, -28.820
1532.4400, -28.850
1532.4600, -28.790
1532.4800, -28.791
1532.5000, -28.772
1532.5200, -28.780
1532.5400, -28.867
1532.5600, -28.952
1532.5800, -29.090
1532.6000, -29.035
1532.6200, -29.001
1532.6400, -29.025
1532.6600, -29.032
1532.6800, -29.037
1532.7000, -29.028
1532.7200, -29.023
1532.7400, -29.102
1532.7600, -29.061
1532.7800, -29.241
1532.8000, -29.042
1532.8200, -29.131
1532.8400, -29.181
1532.8600, -29.262
1532.8800, -29.285
1532.9000, -29.295
1532.9200, -29.371
1532.9400, -29.422
1532.9600, -29.464
1532.9800, -29.556
1533.0000, -29.577
1533.0200, -29.592
1533.0400, -29.670
1533.0600, -29.649
1533.0800, -29.689
1533.1000, -29.746
1533.1200, -29.741
1533.1400, -29.803
1533.1600, -29.779
1533.1800, -29.869
1533.2000, -29.879
1533.2200, -29.901
1533.2400, -29.949
1533.2600, -30.030
1533.2800, -30.032
1533.3000, -30.173
1533.3200, -30.112
1533.3400, -30.143
1533.3600, -30.178
1533.3800, -30.209
1533.4000, -30.246
1533.4200, -30.344
1533.4400, -30.495
1533.4600, -30.550
1533.4800, -30.607
1533.5000, -30.626
1533.5200, -30.700
1533.5400, -30.786
1533.5600, -30.883
1533.5800, -30.950
1533.6000, -31.048
1533.6200, -31.093
1533.6400, -31.159
1533.6600, -31.270
1533.6800, -31.326
1533.7000, -31.391
1533.7200, -31.455
1533.7400, -31.538
1533.7600, -31.603
1533.7800, -31.663
1533.8000, -31.737
1533.8200, -31.800
1533.8400, -31.867
1533.8600, -31.918
1533.8800, -32.015
1533.9000, -32.128
1533.9200, -32.279
1533.9400, -32.234
1533.9600, -32.339
1533.9800, -32.390
1534.0000, -32.436
1534.0200, -32.461
1534.0400, -32.513
1534.0600, -32.574
1534.0800, -32.628
1534.1000, -32.678
1534.1200, -32.756
1534.1400, -32.787
1534.1600, -32.844
1534.1800, -32.929
1534.2000, -32.992
1534.2200, -33.042
1534.2400, -33.083
1534.2600, -33.187
1534.2800, -33.216
1534.3000, -33.294
1534.3200, -33.363
1534.3400, -33.449
1534.3600, -33.511
1534.3800, -33.600
1534.4000, -33.631
1534.4200, -33.695
1534.4400, -33.720
1534.4600, -33.789
1534.4800, -33.887
1534.5000, -33.943
1534.5200, -33.977
1534.5400, -34.039
1534.5600, -34.101
1534.5800, -34.181
1534.6000, -34.229
1534.6200, -34.268
1534.6400, -34.320
1534.6600, -34.394
1534.6800, -34.441
1534.7000, -34.475
1534.7200, -34.544
1534.7400, -34.614
1534.7600, -34.677
1534.7800, -34.722
1534.8000, -34.789
1534.8200, -34.866
1534.8400, -34.931
1534.8600, -34.990
1534.8800, -35.068
1534.9000, -35.099
1534.9200, -35.150
1534.9400, -35.201
1534.9600, -35.254
1534.9800, -35.317
1535.0000, -35.372
1535.0200, -35.420
1535.0400, -35.482
1535.0600, -35.537
1535.0800, -35.591
1535.1000, -35.654
1535.1200, -35.708
1535.1400, -35.774
1535.1600, -35.826
1535.1800, -35.883
1535.2000, -35.923
1535.2200, -35.966
1535.2400, -36.036
1535.2600, -36.096
1535.2800, -36.165
1535.3000, -36.240
1535.3200, -36.279
1535.3400, -36.326
1535.3600, -36.365
1535.3800, -36.414
1535.4000, -36.463
1535.4200, -36.512
1535.4400, -36.570
1535.4600, -36.619
1535.4800, -36.677
1535.5000, -36.734
1535.5200, -36.777
1535.5400, -36.829
1535.5600, -36.889
1535.5800, -36.952
1535.6000, -36.992
1535.6200, -37.031
1535.6400, -37.078
1535.6600, -37.124
1535.6800, -37.181
1535.7000, -37.229
1535.7200, -37.265
1535.7400, -37.316
1535.7600, -37.368
1535.7800, -37.427
1535.8000, -37.480
1535.8200, -37.525
1535.8400, -37.561
1535.8600, -37.604
1535.8800, -37.644
1535.9000, -37.696
1535.9200, -37.730
1535.9400, -37.771
1535.9600, -37.828
1535.9800, -37.873
1536.0000, -37.917
1536.0200, -37.961
1536.0400, -38.003
1536.0600, -38.051
1536.0800, -38.102
1536.1000, -38.143
1536.1200, -38.176
1536.1400, -38.215
1536.1600, -38.266
1536.1800, -38.308
1536.2000, -38.364
1536.2200, -38.401
1536.2400, -38.429
1536.2600, -38.478
1536.2800, -38.510
1536.3000, -38.550
1536.3200, -38.601
1536.3400, -38.626
1536.3600, -38.660
1536.3800, -38.708
1536.4000, -38.751
1536.4200, -38.783
1536.4400, -38.813
1536.4600, -38.868
1536.4800, -38.902
1536.5000, -38.955
1536.5200, -38.980
1536.5400, -39.015
1536.5600, -39.037
1536.5800, -39.074
1536.6000, -39.102
1536.6200, -39.135
1536.6400, -39.162
1536.6600, -39.186
1536.6800, -39.225
1536.7000, -39.262
1536.7200, -39.302
1536.7400, -39.332
1536.7600, -39.355
1536.7800, -39.381
1536.8000, -39.417
1536.8200, -39.452
1536.8400, -39.491
1536.8600, -39.502
1536.8800, -39.550
1536.9000, -39.581
1536.9200, -39.613
1536.9400, -39.638
1536.9600, -39.669
1536.9800, -39.697
1537.0000, -39.736
1537.0200, -39.761
1537.0400, -39.783
1537.0600, -39.813
1537.0800, -39.849
1537.1000, -39.876
1537.1200, -39.915
1537.1400, -39.936
1537.1600, -39.953
1537.1800, -39.989
1537.2000, -40.011
1537.2200, -40.036
1537.2400, -40.061
1537.2600, -40.077
1537.2800, -40.103
1537.3000, -40.146
1537.3200, -40.148
1537.3400, -40.181
1537.3600, -40.203
1537.3800, -40.237
1537.4000, -40.262
1537.4200, -40.295
1537.4400, -40.315
1537.4600, -40.329
1537.4800, -40.347
1537.5000, -40.375
1537.5200, -40.398
1537.5400, -40.409
1537.5600, -40.429
1537.5800, -40.452
1537.6000, -40.485
1537.6200, -40.506
1537.6400, -40.541
1537.6600, -40.549
1537.6800, -40.560
1537.7000, -40.576
1537.7200, -40.606
1537.7400, -40.617
1537.7600, -40.639
1537.7800, -40.642
1537.8000, -40.667
1537.8200, -40.703
1537.8400, -40.727
1537.8600, -40.740
1537.8800, -40.758
1537.9000, -40.776
1537.9200, -40.807
1537.9400, -40.818
1537.9600, -40.824
1537.9800, -40.851
1538.0000, -40.871
1538.0200, -40.885
1538.0400, -40.913
1538.0600, -40.928
1538.0800, -40.936
1538.1000, -40.964
1538.1200, -40.967
1538.1400, -40.989
1538.1600, -41.008
1538.1800, -41.019
1538.2000, -41.025
1538.2200, -41.053
1538.2400, -41.051
1538.2600, -41.074
1538.2800, -41.090
1538.3000, -41.111
1538.3200, -41.119
1538.3400, -41.131
1538.3600, -41.134
1538.3800, -41.141
1538.4000, -41.153
1538.4200, -41.173
1538.4400, -41.179
1538.4600, -41.187
1538.4800, -41.193
1538.5000, -41.210
1538.5200, -41.231
1538.5400, -41.249
1538.5600, -41.264
1538.5800, -41.262
1538.6000, -41.266
1538.6200, -41.282
1538.6400, -41.292
1538.6600, -41.298
1538.6800, -41.297
1538.7000, -41.306
1538.7200, -41.335
1538.7400, -41.340
1538.7600, -41.346
1538.7800, -41.361
1538.8000, -41.365
1538.8200, -41.378
1538.8400, -41.399
1538.8600, -41.396
1538.8800, -41.394
1538.9000, -41.407
1538.9200, -41.417
1538.9400, -41.423
1538.9600, -41.440
1538.9800, -41.439
1539.0000, -41.446
1539.0200, -41.459
1539.0400, -41.457
1539.0600, -41.480
1539.0800, -41.478
1539.1000, -41.475
1539.1200, -41.484
1539.1400, -41.495
1539.1600, -41.497
1539.1800, -41.507
1539.2000, -41.514
1539.2200, -41.531
1539.2400, -41.523
1539.2600, -41.529
1539.2800, -41.535
1539.3000, -41.537
1539.3200, -41.543
1539.3400, -41.548
1539.3600, -41.549
1539.3800, -41.548
1539.4000, -41.552
1539.4200, -41.556
1539.4400, -41.570
1539.4600, -41.577
1539.4800, -41.576
1539.5000, -41.582
1539.5200, -41.582
1539.5400, -41.589
1539.5600, -41.592
1539.5800, -41.596
1539.6000, -41.597
1539.6200, -41.616
1539.6400, -41.612
1539.6600, -41.609
1539.6800, -41.618
1539.7000, -41.617
1539.7200, -41.622
1539.7400, -41.627
1539.7600, -41.632
1539.7800, -41.625
1539.8000, -41.622
1539.8200, -41.635
1539.8400, -41.640
1539.8600, -41.638
1539.8800, -41.652
1539.9000, -41.646
1539.9200, -41.645
1539.9400, -41.649
1539.9600, -41.647
1539.9800, -41.649
1540.0000, -41.649
1540.0200, -41.651
1540.0400, -41.656
1540.0600, -41.657
1540.0800, -41.666
1540.1000, -41.659
1540.1200, -41.673
1540.1400, -41.677
1540.1600, -41.669
1540.1800, -41.672
1540.2000, -41.669
1540.2200, -41.670
1540.2400, -41.670
1540.2600, -41.674
1540.2800, -41.661
1540.3000, -41.648
1540.3200, -41.655
1540.3400, -41.653
1540.3600, -41.652
1540.3800, -41.654
1540.4000, -41.653
1540.4200, -41.650
1540.4400, -41.647
1540.4600, -41.645
1540.4800, -41.653
1540.5000, -41.638
1540.5200, -41.650
1540.5400, -41.651
1540.5600, -41.647
1540.5800, -41.638
1540.6000, -41.637
1540.6200, -41.635
1540.6400, -41.633
1540.6600, -41.631
1540.6800, -41.629
1540.7000, -41.625
1540.7200, -41.619
1540.7400, -41.622
1540.7600, -41.623
1540.7800, -41.625
1540.8000, -41.621
1540.8200, -41.617
1540.8400, -41.610
1540.8600, -41.607
1540.8800, -41.607
1540.9000, -41.604
1540.9200, -41.600
1540.9400, -41.602
1540.9600, -41.603
1540.9800, -41.596
1541.0000, -41.593
1541.0200, -41.598
1541.0400, -41.604
1541.0600, -41.589
1541.0800, -41.585
1541.1000, -41.585
1541.1200, -41.580
1541.1400, -41.573
1541.1600, -41.576
1541.1800, -41.583
1541.2000, -41.562
1541.2200, -41.555
1541.2400, -41.558
1541.2600, -41.562
1541.2800, -41.559
1541.3000, -41.550
1541.3200, -41.553
1541.3400, -41.551
1541.3600, -41.551
1541.3800, -41.545
1541.4000, -41.539
1541.4200, -41.534
1541.4400, -41.532
1541.4600, -41.529
1541.4800, -41.528
1541.5000, -41.530
1541.5200, -41.533
1541.5400, -41.525
1541.5600, -41.519
1541.5800, -41.516
1541.6000, -41.516
1541.6200, -41.505
1541.6400, -41.513
1541.6600, -41.510
1541.6800, -41.503
1541.7000, -41.501
1541.7200, -41.493
1541.7400, -41.495
1541.7600, -41.482
1541.7800, -41.485
1541.8000, -41.480
1541.8200, -41.476
1541.8400, -41.474
1541.8600, -41.481
1541.8800, -41.475
1541.9000, -41.471
1541.9200, -41.463
1541.9400, -41.461
1541.9600, -41.453
1541.9800, -41.450
1542.0000, -41.449
1542.0200, -41.438
1542.0400, -41.434
1542.0600, -41.431
1542.0800, -41.426
1542.1000, -41.414
1542.1200, -41.410
1542.1400, -41.399
1542.1600, -41.402
1542.1800, -41.401
1542.2000, -41.398
1542.2200, -41.396
1542.2400, -41.389
1542.2600, -41.388
1542.2800, -41.384
1542.3000, -41.376
1542.3200, -41.364
1542.3400, -41.359
1542.3600, -41.352
1542.3800, -41.348
1542.4000, -41.354
1542.4200, -41.353
1542.4400, -41.343
1542.4600, -41.337
1542.4800, -41.333
1542.5000, -41.326
1542.5200, -41.317
1542.5400, -41.322
1542.5600, -41.324
1542.5800, -41.315
1542.6000, -41.315
1542.6200, -41.312
1542.6400, -41.307
1542.6600, -41.309
1542.6800, -41.302
1542.7000, -41.300
1542.7200, -41.297
1542.7400, -41.290
1542.7600, -41.289
1542.7800, -41.284
1542.8000, -41.284
1542.8200, -41.274
1542.8400, -41.273
1542.8600, -41.272
1542.8800, -41.266
1542.9000, -41.256
1542.9200, -41.254
1542.9400, -41.243
1542.9600, -41.248
1542.9800, -41.245
1543.0000, -41.231
1543.0200, -41.220
1543.0400, -41.213
1543.0600, -41.205
1543.0800, -41.208
1543.1000, -41.205
1543.1200, -41.199
1543.1400, -41.193
1543.1600, -41.190
1543.1800, -41.185
1543.2000, -41.192
1543.2200, -41.181
1543.2400, -41.178
1543.2600, -41.170
1543.2800, -41.172
1543.3000, -41.169
1543.3200, -41.173
1543.3400, -41.167
1543.3600, -41.160
1543.3800, -41.156
1543.4000, -41.152
1543.4200, -41.142
1543.4400, -41.145
1543.4600, -41.147
1543.4800, -41.145
1543.5000, -41.140
1543.5200, -41.135
1543.5400, -41.131
1543.5600, -41.132
1543.5800, -41.125
1543.6000, -41.129
1543.6200, -41.132
1543.6400, -41.126
1543.6600, -41.118
1543.6800, -41.124
1543.7000, -41.119
1543.7200, -41.112
1543.7400, -41.105
1543.7600, -41.105
1543.7800, -41.097
1543.8000, -41.092
1543.8200, -41.100
1543.8400, -41.090
1543.8600, -41.088
1543.8800, -41.096
1543.9000, -41.088
1543.9200, -41.076
1543.9400, -41.079
1543.9600, -41.072
1543.9800, -41.074
1544.0000, -41.074
1544.0200, -41.070
1544.0400, -41.076
1544.0600, -41.063
1544.0800, -41.062
1544.1000, -41.076
1544.1200, -41.070
1544.1400, -41.050
1544.1600, -41.044
1544.1800, -41.043
1544.2000, -41.048
1544.2200, -41.060
1544.2400, -41.053
1544.2600, -41.058
1544.2800, -41.053
1544.3000, -41.048
1544.3200, -41.043
1544.3400, -41.038
1544.3600, -41.044
1544.3800, -41.045
1544.4000, -41.042
1544.4200, -41.042
1544.4400, -41.039
1544.4600, -41.036
1544.4800, -41.028
1544.5000, -41.028
1544.5200, -41.029
1544.5400, -41.024
1544.5600, -41.022
1544.5800, -41.025
1544.6000, -41.014
1544.6200, -41.018
1544.6400, -41.011
1544.6600, -41.010
1544.6800, -41.012
1544.7000, -41.008
1544.7200, -41.013
1544.7400, -41.004
1544.7600, -41.014
1544.7800, -41.011
1544.8000, -41.014
1544.8200, -41.004
1544.8400, -40.994
1544.8600, -40.990
1544.8800, -40.986
1544.9000, -40.991
1544.9200, -40.992
1544.9400, -40.992
1544.9600, -40.989
1544.9800, -40.997
1545.0000, -40.988
1545.0200, -40.998
1545.0400, -40.981
1545.0600, -40.993
1545.0800, -40.993
1545.1000, -40.981
1545.1200, -40.984
1545.1400, -40.982
1545.1600, -40.982
1545.1800, -40.979
1545.2000, -40.976
1545.2200, -40.977
1545.2400, -40.969
1545.2600, -40.977
1545.2800, -40.984
1545.3000, -40.981
1545.3200, -40.981
1545.3400, -40.982
1545.3600, -40.980
1545.3800, -40.983
1545.4000, -40.976
1545.4200, -40.974
1545.4400, -40.973
1545.4600, -40.978
1545.4800, -40.975
1545.5000, -40.967
1545.5200, -40.965
1545.5400, -40.959
1545.5600, -40.966
1545.5800, -40.962
1545.6000, -40.959
1545.6200, -40.962
1545.6400, -40.966
1545.6600, -40.970
1545.6800, -40.975
1545.7000, -40.981
1545.7200, -40.969
1545.7400, -40.958
1545.7600, -40.954
1545.7800, -40.949
1545.8000, -40.956
1545.8200, -40.949
1545.8400, -40.952
1545.8600, -40.955
1545.8800, -40.961
1545.9000, -40.957
1545.9200, -40.957
1545.9400, -40.952
1545.9600, -40.951
1545.9800, -40.945
1546.0000, -40.948
1546.0200, -40.956
1546.0400, -40.953
1546.0600, -40.952
1546.0800, -40.951
1546.1000, -40.946
1546.1200, -40.947
1546.1400, -40.945
1546.1600, -40.948
1546.1800, -40.961
1546.2000, -40.961
1546.2200, -40.962
1546.2400, -40.960
1546.2600, -40.963
1546.2800, -40.959
1546.3000, -40.961
1546.3200, -40.968
1546.3400, -40.970
1546.3600, -40.962
1546.3800, -40.962
1546.4000, -40.967
1546.4200, -40.972
1546.4400, -40.968
1546.4600, -40.969
1546.4800, -40.965
1546.5000, -40.964
1546.5200, -40.967
1546.5400, -40.964
1546.5600, -40.965
1546.5800, -40.956
1546.6000, -40.969
1546.6200, -40.971
1546.6400, -40.961
1546.6600, -40.970
1546.6800, -40.961
1546.7000, -40.962
1546.7200, -40.958
1546.7400, -40.966
1546.7600, -40.962
1546.7800, -40.959
1546.8000, -40.952
1546.8200, -40.957
1546.8400, -40.959
1546.8600, -40.952
1546.8800, -40.945
1546.9000, -40.942
1546.9200, -40.958
1546.9400, -40.960
1546.9600, -40.959
1546.9800, -40.956
1547.0000, -40.954
1547.0200, -40.949
1547.0400, -40.950
1547.0600, -40.952
1547.0800, -40.959
1547.1000, -40.956
1547.1200, -40.958
1547.1400, -40.965
1547.1600, -40.962
1547.1800, -40.967
1547.2000, -40.966
1547.2200, -40.975
1547.2400, -40.973
1547.2600, -40.970
1547.2800, -40.966
1547.3000, -40.973
1547.3200, -40.968
1547.3400, -40.966
1547.3600, -40.972
1547.3800, -40.974
1547.4000, -40.972
1547.4200, -40.964
1547.4400, -40.971
1547.4600, -40.966
1547.4800, -40.964
1547.5000, -40.965
1547.5200, -40.970
1547.5400, -40.965
1547.5600, -40.960
1547.5800, -40.960
1547.6000, -40.971
1547.6200, -40.973
1547.6400, -40.974
1547.6600, -40.979
1547.6800, -40.979
1547.7000, -40.985
1547.7200, -40.986
1547.7400, -40.990
1547.7600, -40.981
1547.7800, -40.976
1547.8000, -40.986
1547.8200, -40.985
1547.8400, -40.987
1547.8600, -40.981
1547.8800, -40.980
1547.9000, -40.979
1547.9200, -40.984
1547.9400, -40.979
1547.9600, -40.984
1547.9800, -40.996
1548.0000, -40.999
1548.0200, -41.002
1548.0400, -41.008
1548.0600, -41.001
1548.0800, -41.013
1548.1000, -41.006
1548.1200, -41.006
1548.1400, -41.008
1548.1600, -41.004
1548.1800, -41.012
1548.2000, -41.023
1548.2200, -41.019
1548.2400, -41.019
1548.2600, -41.020
1548.2800, -41.032
1548.3000, -41.028
1548.3200, -41.021
1548.3400, -41.031
1548.3600, -41.032
1548.3800, -41.028
1548.4000, -41.028
1548.4200, -41.033
1548.4400, -41.027
1548.4600, -41.021
1548.4800, -41.018
1548.5000, -41.032
1548.5200, -41.031
1548.5400, -41.019
1548.5600, -41.030
1548.5800, -41.031
1548.6000, -41.025
1548.6200, -41.036
1548.6400, -41.028
1548.6600, -41.027
1548.6800, -41.023
1548.7000, -41.027
1548.7200, -41.035
1548.7400, -41.045
1548.7600, -41.042
1548.7800, -41.057
1548.8000, -41.053
1548.8200, -41.054
1548.8400, -41.049
1548.8600, -41.052
1548.8800, -41.057
1548.9000, -41.063
1548.9200, -41.064
1548.9400, -41.074
1548.9600, -41.064
1548.9800, -41.068
1549.0000, -41.067
1549.0200, -41.069
1549.0400, -41.071
1549.0600, -41.064
1549.0800, -41.067
1549.1000, -41.070
1549.1200, -41.069
1549.1400, -41.064
1549.1600, -41.064
1549.1800, -41.075
1549.2000, -41.077
1549.2200, -41.069
1549.2400, -41.077
1549.2600, -41.081
1549.2800, -41.062
1549.3000, -41.070
1549.3200, -41.073
1549.3400, -41.065
1549.3600, -41.060
1549.3800, -41.058
1549.4000, -41.079
1549.4200, -41.078
1549.4400, -41.072
1549.4600, -41.084
1549.4800, -41.091
1549.5000, -41.081
1549.5200, -41.096
1549.5400, -41.096
1549.5600, -41.095
1549.5800, -41.091
1549.6000, -41.094
1549.6200, -41.100
1549.6400, -41.107
1549.6600, -41.105
1549.6800, -41.121
1549.7000, -41.113
1549.7200, -41.120
1549.7400, -41.107
1549.7600, -41.117
1549.7800, -41.125
1549.8000, -41.134
1549.8200, -41.136
1549.8400, -41.144
1549.8600, -41.141
1549.8800, -41.146
1549.9000, -41.148
1549.9200, -41.156
1549.9400, -41.157
1549.9600, -41.149
1549.9800, -41.161
1550.0000, -41.160
1550.0200, -41.159
1550.0400, -41.153
1550.0600, -41.156
1550.0800, -41.161
1550.1000, -41.166
1550.1200, -41.156
1550.1400, -41.166
1550.1600, -41.166
1550.1800, -41.152
1550.2000, -41.164
1550.2200, -41.167
1550.2400, -41.170
1550.2600, -41.167
1550.2800, -41.166
1550.3000, -41.186
1550.3200, -41.185
1550.3400, -41.179
1550.3600, -41.192
1550.3800, -41.193
1550.4000, -41.184
1550.4200, -41.193
1550.4400, -41.197
1550.4600, -41.200
1550.4800, -41.191
1550.5000, -41.194
1550.5200, -41.204
1550.5400, -41.199
1550.5600, -41.196
1550.5800, -41.207
1550.6000, -41.203
1550.6200, -41.211
1550.6400, -41.208
1550.6600, -41.218
1550.6800, -41.218
1550.7000, -41.232
1550.7200, -41.231
1550.7400, -41.239
1550.7600, -41.237
1550.7800, -41.248
1550.8000, -41.251
1550.8200, -41.257
1550.8400, -41.259
1550.8600, -41.254
1550.8800, -41.260
1550.9000, -41.262
1550.9200, -41.268
1550.9400, -41.263
1550.9600, -41.275
1550.9800, -41.280
1551.0000, -41.271
1551.0200, -41.270
1551.0400, -41.281
1551.0600, -41.288
1551.0800, -41.279
1551.1000, -41.293
1551.1200, -41.293
1551.1400, -41.288
1551.1600, -41.287
1551.1800, -41.289
1551.2000, -41.303
1551.2200, -41.301
1551.2400, -41.300
1551.2600, -41.310
1551.2800, -41.309
1551.3000, -41.304
1551.3200, -41.315
1551.3400, -41.317
1551.3600, -41.309
1551.3800, -41.306
1551.4000, -41.312
1551.4200, -41.319
1551.4400, -41.321
1551.4600, -41.318
1551.4800, -41.328
1551.5000, -41.317
1551.5200, -41.327
1551.5400, -41.324
1551.5600, -41.331
1551.5800, -41.336
1551.6000, -41.338
1551.6200, -41.339
1551.6400, -41.344
1551.6600, -41.347
1551.6800, -41.358
1551.7000, -41.363
1551.7200, -41.368
1551.7400, -41.371
1551.7600, -41.369
1551.7800, -41.376
1551.8000, -41.369
1551.8200, -41.376
1551.8400, -41.373
1551.8600, -41.383
1551.8800, -41.381
1551.9000, -41.376
1551.9200, -41.381
1551.9400, -41.382
1551.9600, -41.385
1551.9800, -41.384
1552.0000, -41.390
1552.0200, -41.388
1552.0400, -41.391
1552.0600, -41.390
1552.0800, -41.400
1552.1000, -41.404
1552.1200, -41.404
1552.1400, -41.415
1552.1600, -41.423
1552.1800, -41.418
1552.2000, -41.425
1552.2200, -41.425
1552.2400, -41.423
1552.2600, -41.423
1552.2800, -41.427
1552.3000, -41.426
1552.3200, -41.437
1552.3400, -41.441
1552.3600, -41.437
1552.3800, -41.439
1552.4000, -41.442
1552.4200, -41.446
1552.4400, -41.447
1552.4600, -41.454
1552.4800, -41.460
1552.5000, -41.461
1552.5200, -41.463
1552.5400, -41.464
1552.5600, -41.465
1552.5800, -41.479
1552.6000, -41.484
1552.6200, -41.489
1552.6400, -41.497
1552.6600, -41.501
1552.6800, -41.504
1552.7000, -41.498
1552.7200, -41.500
1552.7400, -41.507
1552.7600, -41.509
1552.7800, -41.505
1552.8000, -41.510
1552.8200, -41.514
1552.8400, -41.518
1552.8600, -41.517
1552.8800, -41.514
1552.9000, -41.521
1552.9200, -41.519
1552.9400, -41.516
1552.9600, -41.515
1552.9800, -41.525
1553.0000, -41.515
1553.0200, -41.523
1553.0400, -41.526
1553.0600, -41.533
1553.0800, -41.525
1553.1000, -41.530
1553.1200, -41.529
1553.1400, -41.541
1553.1600, -41.539
1553.1800, -41.550
1553.2000, -41.552
1553.2200, -41.554
1553.2400, -41.561
1553.2600, -41.564
1553.2800, -41.561
1553.3000, -41.559
1553.3200, -41.565
1553.3400, -41.566
1553.3600, -41.569
1553.3800, -41.579
1553.4000, -41.573
1553.4200, -41.568
1553.4400, -41.577
1553.4600, -41.570
1553.4800, -41.581
1553.5000, -41.573
1553.5200, -41.576
1553.5400, -41.589
1553.5600, -41.590
1553.5800, -41.587
1553.6000, -41.589
1553.6200, -41.591
1553.6400, -41.600
1553.6600, -41.595
1553.6800, -41.594
1553.7000, -41.598
1553.7200, -41.596
1553.7400, -41.604
1553.7600, -41.602
1553.7800, -41.601
1553.8000, -41.600
1553.8200, -41.609
1553.8400, -41.608
1553.8600, -41.613
1553.8800, -41.611
1553.9000, -41.611
1553.9200, -41.618
1553.9400, -41.620
1553.9600, -41.628
1553.9800, -41.623
1554.0000, -41.633
1554.0200, -41.628
1554.0400, -41.635
1554.0600, -41.638
1554.0800, -41.645
1554.1000, -41.640
1554.1200, -41.660
1554.1400, -41.667
1554.1600, -41.664
1554.1800, -41.667
1554.2000, -41.662
1554.2200, -41.670
1554.2400, -41.667
1554.2600, -41.671
1554.2800, -41.675
1554.3000, -41.677
1554.3200, -41.680
1554.3400, -41.686
1554.3600, -41.679
1554.3800, -41.686
1554.4000, -41.685
1554.4200, -41.689
1554.4400, -41.689
1554.4600, -41.685
1554.4800, -41.687
1554.5000, -41.690
1554.5200, -41.697
1554.5400, -41.703
1554.5600, -41.698
1554.5800, -41.702
1554.6000, -41.700
1554.6200, -41.709
1554.6400, -41.709
1554.6600, -41.703
1554.6800, -41.708
1554.7000, -41.706
1554.7200, -41.711
1554.7400, -41.716
1554.7600, -41.711
1554.7800, -41.707
1554.8000, -41.716
1554.8200, -41.718
1554.8400, -41.719
1554.8600, -41.721
1554.8800, -41.723
1554.9000, -41.727
1554.9200, -41.714
1554.9400, -41.729
1554.9600, -41.735
1554.9800, -41.725
1555.0000, -41.733
1555.0200, -41.730
1555.0400, -41.728
1555.0600, -41.727
1555.0800, -41.730
1555.1000, -41.732
1555.1200, -41.734
1555.1400, -41.738
1555.1600, -41.747
1555.1800, -41.751
1555.2000, -41.756
1555.2200, -41.760
1555.2400, -41.759
1555.2600, -41.769
1555.2800, -41.768
1555.3000, -41.769
1555.3200, -41.776
1555.3400, -41.774
1555.3600, -41.772
1555.3800, -41.779
1555.4000, -41.782
1555.4200, -41.783
1555.4400, -41.785
1555.4600, -41.785
1555.4800, -41.788
1555.5000, -41.796
1555.5200, -41.794
1555.5400, -41.800
1555.5600, -41.800
1555.5800, -41.797
1555.6000, -41.795
1555.6200, -41.805
1555.6400, -41.803
1555.6600, -41.806
1555.6800, -41.806
1555.7000, -41.808
1555.7200, -41.810
1555.7400, -41.813
1555.7600, -41.818
1555.7800, -41.818
1555.8000, -41.810
1555.8200, -41.811
1555.8400, -41.817
1555.8600, -41.821
1555.8800, -41.818
1555.9000, -41.830
1555.9200, -41.836
1555.9400, -41.837
1555.9600, -41.845
1555.9800, -41.848
1556.0000, -41.849
1556.0200, -41.858
1556.0400, -41.867
1556.0600, -41.868
1556.0800, -41.871
1556.1000, -41.872
1556.1200, -41.879
1556.1400, -41.879
1556.1600, -41.886
1556.1800, -41.877
1556.2000, -41.878
1556.2200, -41.886
1556.2400, -41.884
1556.2600, -41.890
1556.2800, -41.893
1556.3000, -41.892
1556.3200, -41.900
1556.3400, -41.899
1556.3600, -41.895
1556.3800, -41.900
1556.4000, -41.906
1556.4200, -41.905
1556.4400, -41.913
1556.4600, -41.915
1556.4800, -41.904
1556.5000, -41.905
1556.5200, -41.919
1556.5400, -41.917
1556.5600, -41.915
1556.5800, -41.922
1556.6000, -41.922
1556.6200, -41.929
1556.6400, -41.938
1556.6600, -41.937
1556.6800, -41.937
1556.7000, -41.939
1556.7200, -41.950
1556.7400, -41.957
1556.7600, -41.946
1556.7800, -41.952
1556.8000, -41.960
1556.8200, -41.966
1556.8400, -41.967
1556.8600, -41.970
1556.8800, -41.973
1556.9000, -41.978
1556.9200, -41.981
1556.9400, -41.987
1556.9600, -41.985
1556.9800, -41.989
1557.0000, -41.999
1557.0200, -42.000
1557.0400, -42.003
1557.0600, -41.997
1557.0800, -42.005
1557.1000, -42.003
1557.1200, -42.010
1557.1400, -42.002
1557.1600, -42.020
1557.1800, -42.031
1557.2000, -42.033
1557.2200, -42.028
1557.2400, -42.036
1557.2600, -42.041
1557.2800, -42.044
1557.3000, -42.048
1557.3200, -42.056
1557.3400, -42.055
1557.3600, -42.052
1557.3800, -42.054
1557.4000, -42.065
1557.4200, -42.073
1557.4400, -42.078
1557.4600, -42.087
1557.4800, -42.088
1557.5000, -42.088
1557.5200, -42.096
1557.5400, -42.100
1557.5600, -42.101
1557.5800, -42.096
1557.6000, -42.100
1557.6200, -42.114
1557.6400, -42.115
1557.6600, -42.113
1557.6800, -42.128
1557.7000, -42.134
1557.7200, -42.135
1557.7400, -42.140
1557.7600, -42.143
1557.7800, -42.149
1557.8000, -42.151
1557.8200, -42.161
1557.8400, -42.160
1557.8600, -42.164
1557.8800, -42.173
1557.9000, -42.174
1557.9200, -42.173
1557.9400, -42.179
1557.9600, -42.181
1557.9800, -42.186
1558.0000, -42.195
1558.0200, -42.199
1558.0400, -42.205
1558.0600, -42.227
1558.0800, -42.226
1558.1000, -42.238
1558.1200, -42.236
1558.1400, -42.244
1558.1600, -42.244
1558.1800, -42.248
1558.2000, -42.255
1558.2200, -42.262
1558.2400, -42.258
1558.2600, -42.258
1558.2800, -42.270
1558.3000, -42.276
1558.3200, -42.278
1558.3400, -42.283
1558.3600, -42.292
1558.3800, -42.293
1558.4000, -42.298
1558.4200, -42.310
1558.4400, -42.309
1558.4600, -42.312
1558.4800, -42.315
1558.5000, -42.327
1558.5200, -42.336
1558.5400, -42.335
1558.5600, -42.341
1558.5800, -42.349
1558.6000, -42.354
1558.6200, -42.360
1558.6400, -42.369
1558.6600, -42.375
1558.6800, -42.372
1558.7000, -42.390
1558.7200, -42.398
1558.7400, -42.406
1558.7600, -42.408
1558.7800, -42.422
1558.8000, -42.415
1558.8200, -42.429
1558.8400, -42.433
1558.8600, -42.443
1558.8800, -42.445
1558.9000, -42.446
1558.9200, -42.453
1558.9400, -42.471
1558.9600, -42.482
1558.9800, -42.480
1559.0000, -42.489
1559.0200, -42.501
1559.0400, -42.505
1559.0600, -42.513
1559.0800, -42.519
1559.1000, -42.532
1559.1200, -42.534
1559.1400, -42.534
1559.1600, -42.548
1559.1800, -42.560
1559.2000, -42.560
1559.2200, -42.567
1559.2400, -42.582
1559.2600, -42.580
1559.2800, -42.588
1559.3000, -42.599
1559.3200, -42.603
1559.3400, -42.608
1559.3600, -42.608
1559.3800, -42.626
1559.4000, -42.635
1559.4200, -42.634
1559.4400, -42.641
1559.4600, -42.658
1559.4800, -42.663
1559.5000, -42.670
1559.5200, -42.688
1559.5400, -42.694
1559.5600, -42.705
1559.5800, -42.711
1559.6000, -42.723
1559.6200, -42.732
1559.6400, -42.739
1559.6600, -42.745
1559.6800, -42.743
1559.7000, -42.760
1559.7200, -42.768
1559.7400, -42.773
1559.7600, -42.782
1559.7800, -42.794
1559.8000, -42.810
1559.8200, -42.812
1559.8400, -42.819
1559.8600, -42.827
1559.8800, -42.835
1559.9000, -42.850
1559.9200, -42.855
1559.9400, -42.866
1559.9600, -42.873
1559.9800, -42.890
1560.0000, -42.902
1560.0200, -42.903
1560.0400, -42.911
1560.0600, -42.925
1560.0800, -42.932
1560.1000, -42.941
1560.1200, -42.957
1560.1400, -42.965
1560.1600, -42.974
1560.1800, -42.988
1560.2000, -43.003
1560.2200, -43.005
1560.2400, -43.006
1560.2600, -43.019
1560.2800, -43.036
1560.3000, -43.040
1560.3200, -43.053
1560.3400, -43.071
1560.3600, -43.077
1560.3800, -43.084
1560.4000, -43.098
1560.4200, -43.099
1560.4400, -43.111
1560.4600, -43.118
1560.4800, -43.137
1560.5000, -43.148
1560.5200, -43.161
1560.5400, -43.174
1560.5600, -43.179
1560.5800, -43.193
1560.6000, -43.203
1560.6200, -43.214
1560.6400, -43.229
1560.6600, -43.243
1560.6800, -43.249
1560.7000, -43.262
1560.7200, -43.284
1560.7400, -43.287
1560.7600, -43.295
1560.7800, -43.309
1560.8000, -43.316
1560.8200, -43.325
1560.8400, -43.332
1560.8600, -43.344
1560.8800, -43.353
1560.9000, -43.361
1560.9200, -43.377
1560.9400, -43.386
1560.9600, -43.403
1560.9800, -43.406
1561.0000, -43.423
1561.0200, -43.432
1561.0400, -43.439
1561.0600, -43.450
1561.0800, -43.461
1561.1000, -43.476
1561.1200, -43.483
1561.1400, -43.504
1561.1600, -43.514
1561.1800, -43.522
1561.2000, -43.535
1561.2200, -43.556
1561.2400, -43.568
1561.2600, -43.582
1561.2800, -43.603
1561.3000, -43.612
1561.3200, -43.621
1561.3400, -43.637
1561.3600, -43.657
1561.3800, -43.668
1561.4000, -43.687
1561.4200, -43.699
1561.4400, -43.709
1561.4600, -43.727
1561.4800, -43.731
1561.5000, -43.743
1561.5200, -43.760
1561.5400, -43.776
1561.5600, -43.797
1561.5800, -43.809
1561.6000, -43.819
1561.6200, -43.838
1561.6400, -43.854
1561.6600, -43.875
1561.6800, -43.886
1561.7000, -43.902
1561.7200, -43.906
1561.7400, -43.923
1561.7600, -43.939
1561.7800, -43.946
1561.8000, -43.958
1561.8200, -43.972
1561.8400, -43.987
1561.8600, -44.002
1561.8800, -44.015
1561.9000, -44.026
1561.9200, -44.042
1561.9400, -44.052
1561.9600, -44.065
1561.9800, -44.073
1562.0000, -44.084
1562.0200, -44.103
1562.0400, -44.113
1562.0600, -44.135
1562.0800, -44.147
1562.1000, -44.163
1562.1200, -44.181
1562.1400, -44.200
1562.1600, -44.219
1562.1800, -44.234
1562.2000, -44.244
1562.2200, -44.262
1562.2400, -44.277
1562.2600, -44.298
1562.2800, -44.318
1562.3000, -44.335
1562.3200, -44.343
1562.3400, -44.362
1562.3600, -44.376
1562.3800, -44.397
1562.4000, -44.413
1562.4200, -44.422
1562.4400, -44.437
1562.4600, -44.456
1562.4800, -44.465
1562.5000, -44.483
1562.5200, -44.503
1562.5400, -44.516
1562.5600, -44.528
1562.5800, -44.544
1562.6000, -44.557
1562.6200, -44.574
1562.6400, -44.592
1562.6600, -44.603
1562.6800, -44.622
1562.7000, -44.635
1562.7200, -44.646
1562.7400, -44.669
1562.7600, -44.680
1562.7800, -44.696
1562.8000, -44.715
1562.8200, -44.725
1562.8400, -44.743
1562.8600, -44.760
1562.8800, -44.772
1562.9000, -44.790
1562.9200, -44.813
1562.9400, -44.828
1562.9600, -44.837
1562.9800, -44.854
1563.0000, -44.871
1563.0200, -44.890
1563.0400, -44.909
1563.0600, -44.927
1563.0800, -44.943
1563.1000, -44.961
1563.1200, -44.976
1563.1400, -44.996
1563.1600, -45.016
1563.1800, -45.029
1563.2000, -45.048
1563.2200, -45.069
1563.2400, -45.089
1563.2600, -45.104
1563.2800, -45.117
1563.3000, -45.138
1563.3200, -45.152
1563.3400, -45.165
1563.3600, -45.179
1563.3800, -45.198
1563.4000, -45.222
1563.4200, -45.237
1563.4400, -45.248
1563.4600, -45.273
1563.4800, -45.284
1563.5000, -45.302
1563.5200, -45.315
1563.5400, -45.336
1563.5600, -45.354
1563.5800, -45.363
1563.6000, -45.378
1563.6200, -45.402
1563.6400, -45.423
1563.6600, -45.439
1563.6800, -45.454
1563.7000, -45.471
1563.7200, -45.494
1563.7400, -45.512
1563.7600, -45.531
1563.7800, -45.552
1563.8000, -45.574
1563.8200, -45.587
1563.8400, -45.604
1563.8600, -45.621
1563.8800, -45.640
1563.9000, -45.654
1563.9200, -45.677
1563.9400, -45.696
1563.9600, -45.711
1563.9800, -45.735
1564.0000, -45.756
1564.0200, -45.770
1564.0400, -45.793
1564.0600, -45.808
1564.0800, -45.816
1564.1000, -45.841
1564.1200, -45.859
1564.1400, -45.880
1564.1600, -45.895
1564.1800, -45.916
1564.2000, -45.936
1564.2200, -45.941
1564.2400, -45.964
1564.2600, -45.987
1564.2800, -46.006
1564.3000, -46.028
1564.3200, -46.039
1564.3400, -46.057
1564.3600, -46.074
1564.3800, -46.095
1564.4000, -46.112
1564.4200, -46.134
1564.4400, -46.147
1564.4600, -46.163
1564.4800, -46.186
1564.5000, -46.211
1564.5200, -46.227
1564.5400, -46.247
1564.5600, -46.262
1564.5800, -46.278
1564.6000, -46.300
1564.6200, -46.323
1564.6400, -46.337
1564.6600, -46.352
1564.6800, -46.371
1564.7000, -46.390
1564.7200, -46.412
1564.7400, -46.427
1564.7600, -46.451
1564.7800, -46.467
1564.8000, -46.490
1564.8200, -46.507
1564.8400, -46.522
1564.8600, -46.545
1564.8800, -46.565
1564.9000, -46.587
1564.9200, -46.609
1564.9400, -46.627
1564.9600, -46.642
1564.9800, -46.663
1565.0000, -46.682
1565.0200, -46.703
1565.0400, -46.724
1565.0600, -46.742
1565.0800, -46.761
1565.1000, -46.775
1565.1200, -46.791
1565.1400, -46.824
1565.1600, -46.838
1565.1800, -46.860
1565.2000, -46.875
1565.2200, -46.897
1565.2400, -46.914
1565.2600, -46.933
1565.2800, -46.952
1565.3000, -46.966
1565.3200, -46.990
1565.3400, -47.002
1565.3600, -47.028
1565.3800, -47.050
1565.4000, -47.067
1565.4200, -47.091
1565.4400, -47.109
1565.4600, -47.125
1565.4800, -47.144
1565.5000, -47.168
1565.5200, -47.187
1565.5400, -47.204
1565.5600, -47.220
1565.5800, -47.244
1565.6000, -47.266
1565.6200, -47.284
1565.6400, -47.301
1565.6600, -47.319
1565.6800, -47.339
1565.7000, -47.361
1565.7200, -47.376
1565.7400, -47.401
1565.7600, -47.421
1565.7800, -47.442
1565.8000, -47.462
1565.8200, -47.477
1565.8400, -47.495
1565.8600, -47.513
1565.8800, -47.532
1565.9000, -47.545
1565.9200, -47.575
1565.9400, -47.601
1565.9600, -47.614
1565.9800, -47.630
1566.0000, -47.647
1566.0200, -47.673
1566.0400, -47.697
1566.0600, -47.713
1566.0800, -47.734
1566.1000, -47.752
1566.1200, -47.770
1566.1400, -47.793
1566.1600, -47.811
1566.1800, -47.828
1566.2000, -47.852
1566.2200, -47.863
1566.2400, -47.886
1566.2600, -47.911
1566.2800, -47.918
1566.3000, -47.949
1566.3200, -47.967
1566.3400, -47.981
1566.3600, -48.003
1566.3800, -48.017
1566.4000, -48.037
1566.4200, -48.059
1566.4400, -48.077
1566.4600, -48.093
1566.4800, -48.117
1566.5000, -48.142
1566.5200, -48.159
1566.5400, -48.179
1566.5600, -48.198
1566.5800, -48.216
1566.6000, -48.239
1566.6200, -48.263
1566.6400, -48.282
1566.6600, -48.297
1566.6800, -48.323
1566.7000, -48.332
1566.7200, -48.357
1566.7400, -48.376
1566.7600, -48.397
1566.7800, -48.419
1566.8000, -48.437
1566.8200, -48.465
1566.8400, -48.479
1566.8600, -48.496
1566.8800, -48.513
1566.9000, -48.533
1566.9200, -48.557
1566.9400, -48.574
1566.9600, -48.595
1566.9800, -48.607
1567.0000, -48.623
1567.0200, -48.655
1567.0400, -48.666
1567.0600, -48.689
1567.0800, -48.709
1567.1000, -48.721
1567.1200, -48.740
1567.1400, -48.770
1567.1600, -48.783
1567.1800, -48.804
1567.2000, -48.823
1567.2200, -48.844
1567.2400, -48.865
1567.2600, -48.881
1567.2800, -48.899
1567.3000, -48.925
1567.3200, -48.942
1567.3400, -48.961
1567.3600, -48.980
1567.3800, -49.002
1567.4000, -49.018
1567.4200, -49.037
1567.4400, -49.059
1567.4600, -49.072
1567.4800, -49.097
1567.5000, -49.120
1567.5200, -49.143
1567.5400, -49.163
1567.5600, -49.181
1567.5800, -49.197
1567.6000, -49.223
1567.6200, -49.239
1567.6400, -49.265
1567.6600, -49.283
1567.6800, -49.301
1567.7000, -49.322
1567.7200, -49.340
1567.7400, -49.350
1567.7600, -49.370
1567.7800, -49.396
1567.8000, -49.425
1567.8200, -49.429
1567.8400, -49.454
1567.8600, -49.473
1567.8800, -49.489
1567.9000, -49.513
1567.9200, -49.529
1567.9400, -49.550
1567.9600, -49.563
1567.9800, -49.579
1568.0000, -49.611
1568.0200, -49.631
1568.0400, -49.646
1568.0600, -49.664
1568.0800, -49.686
1568.1000, -49.712
1568.1200, -49.726
1568.1400, -49.738
1568.1600, -49.756
1568.1800, -49.784
1568.2000, -49.796
1568.2200, -49.817
1568.2400, -49.845
1568.2600, -49.860
1568.2800, -49.882
1568.3000, -49.903
1568.3200, -49.914
1568.3400, -49.938
1568.3600, -49.960
1568.3800, -49.983
1568.4000, -50.003
1568.4200, -50.027
1568.4400, -50.035
1568.4600, -50.062
1568.4800, -50.078
1568.5000, -50.096
1568.5200, -50.118
1568.5400, -50.135
1568.5600, -50.160
1568.5800, -50.175
1568.6000, -50.194
1568.6200, -50.210
1568.6400, -50.230
1568.6600, -50.256
1568.6800, -50.273
1568.7000, -50.297
1568.7200, -50.313
1568.7400, -50.327
1568.7600, -50.348
1568.7800, -50.365
1568.8000, -50.381
1568.8200, -50.402
1568.8400, -50.418
1568.8600, -50.437
1568.8800, -50.466
1568.9000, -50.477
1568.9200, -50.499
1568.9400, -50.516
1568.9600, -50.536
1568.9800, -50.558
1569.0000, -50.574
1569.0200, -50.591
1569.0400, -50.616
1569.0600, -50.635
1569.0800, -50.650
1569.1000, -50.667
1569.1200, -50.697
1569.1400, -50.709
1569.1600, -50.731
1569.1800, -50.752
1569.2000, -50.763
1569.2200, -50.784
1569.2400, -50.806
1569.2600, -50.824
1569.2800, -50.848
1569.3000, -50.864
1569.3200, -50.883
1569.3400, -50.903
1569.3600, -50.918
1569.3800, -50.938
1569.4000, -50.956
1569.4200, -50.975
1569.4400, -50.995
1569.4600, -51.012
1569.4800, -51.028
1569.5000, -51.046
1569.5200, -51.065
1569.5400, -51.092
1569.5600, -51.103
1569.5800, -51.125
1569.6000, -51.146
1569.6200, -51.159
1569.6400, -51.184
1569.6600, -51.199
1569.6800, -51.217
1569.7000, -51.234
1569.7200, -51.251
1569.7400, -51.270
1569.7600, -51.294
1569.7800, -51.309
1569.8000, -51.327
1569.8200, -51.347
1569.8400, -51.364
1569.8600, -51.378
1569.8800, -51.399
1569.9000, -51.415
1569.9200, -51.437
1569.9400, -51.454
1569.9600, -51.474
1569.9800, -51.491
1570.0000, -51.511
1570.0200, -51.530
1570.0400, -51.546
1570.0600, -51.564
1570.0800, -51.580
1570.1000, -51.606
1570.1200, -51.621
1570.1400, -51.641
1570.1600, -51.659
1570.1800, -51.675
1570.2000, -51.698
1570.2200, -51.720
1570.2400, -51.738
1570.2600, -51.757
1570.2800, -51.779
1570.3000, -51.791
1570.3200, -51.810
1570.3400, -51.813
1570.3600, -51.844
1570.3800, -51.867
1570.4000, -51.877
1570.4200, -51.895
1570.4400, -51.919
1570.4600, -51.936
1570.4800, -51.953
1570.5000, -51.968
1570.5200, -51.990
1570.5400, -52.008
1570.5600, -52.022
1570.5800, -52.037
1570.6000, -52.053
1570.6200, -52.079
1570.6400, -52.094
1570.6600, -52.107
1570.6800, -52.135
1570.7000, -52.149
1570.7200, -52.168
1570.7400, -52.184
1570.7600, -52.206
1570.7800, -52.216
1570.8000, -52.243
1570.8200, -52.263
1570.8400, -52.279
1570.8600, -52.291
1570.8800, -52.318
1570.9000, -52.332
1570.9200, -52.349
1570.9400, -52.362
1570.9600, -52.385
1570.9800, -52.401
1571.0000, -52.415
1571.0200, -52.442
1571.0400, -52.459
1571.0600, -52.471
1571.0800, -52.491
1571.1000, -52.511
1571.1200, -52.532
1571.1400, -52.543
1571.1600, -52.568
1571.1800, -52.571
1571.2000, -52.601
1571.2200, -52.608
1571.2400, -52.631
1571.2600, -52.649
1571.2800, -52.670
1571.3000, -52.688
1571.3200, -52.701
1571.3400, -52.725
1571.3600, -52.734
1571.3800, -52.755
1571.4000, -52.773
1571.4200, -52.789
1571.4400, -52.811
1571.4600, -52.824
1571.4800, -52.839
1571.5000, -52.858
1571.5200, -52.881
1571.5400, -52.898
1571.5600, -52.917
1571.5800, -52.928
1571.6000, -52.949
1571.6200, -52.965
1571.6400, -52.985
1571.6600, -52.997
1571.6800, -53.009
1571.7000, -53.027
1571.7200, -53.048
1571.7400, -53.066
1571.7600, -53.084
1571.7800, -53.099
1571.8000, -53.118
1571.8200, -53.140
1571.8400, -53.153
1571.8600, -53.170
1571.8800, -53.188
1571.9000, -53.203
1571.9200, -53.222
1571.9400, -53.240
1571.9600, -53.262
1571.9800, -53.277
1572.0000, -53.294
1572.0200, -53.312
1572.0400, -53.329
1572.0600, -53.348
1572.0800, -53.360
1572.1000, -53.377
1572.1200, -53.397
1572.1400, -53.405
1572.1600, -53.424
1572.1800, -53.447
1572.2000, -53.467
1572.2200, -53.481
1572.2400, -53.499
1572.2600, -53.510
1572.2800, -53.520
1572.3000, -53.542
1572.3200, -53.554
1572.3400, -53.576
1572.3600, -53.585
1572.3800, -53.606
1572.4000, -53.622
1572.4200, -53.640
1572.4400, -53.663
1572.4600, -53.668
1572.4800, -53.675
1572.5000, -53.703
1572.5200, -53.729
1572.5400, -53.755
1572.5600, -53.756
1572.5800, -53.766
1572.6000, -53.791
1572.6200, -53.810
1572.6400, -53.819
1572.6600, -53.835
1572.6800, -53.843
1572.7000, -53.858
1572.7200, -53.881
1572.7400, -53.903
1572.7600, -53.913
1572.7800, -53.942
1572.8000, -53.947
1572.8200, -53.961
1572.8400, -53.985
1572.8600, -53.989
1572.8800, -54.022
1572.9000, -54.028
1572.9200, -54.040
1572.9400, -54.063
1572.9600, -54.079
1572.9800, -54.094
1573.0000, -54.118
1573.0200, -54.115
1573.0400, -54.146
1573.0600, -54.160
1573.0800, -54.173
1573.1000, -54.188
1573.1200, -54.207
1573.1400, -54.224
1573.1600, -54.227
1573.1800, -54.244
1573.2000, -54.269
1573.2200, -54.284
1573.2400, -54.301
1573.2600, -54.313
1573.2800, -54.327
1573.3000, -54.342
1573.3200, -54.361
1573.3400, -54.366
1573.3600, -54.382
1573.3800, -54.403
1573.4000, -54.417
1573.4200, -54.431
1573.4400, -54.452
1573.4600, -54.457
1573.4800, -54.477
1573.5000, -54.493
1573.5200, -54.510
1573.5400, -54.521
1573.5600, -54.541
1573.5800, -54.554
1573.6000, -54.575
1573.6200, -54.592
1573.6400, -54.612
1573.6600, -54.615
1573.6800, -54.650
1573.7000, -54.657
1573.7200, -54.674
1573.7400, -54.680
1573.7600, -54.698
1573.7800, -54.709
1573.8000, -54.728
1573.8200, -54.733
1573.8400, -54.762
1573.8600, -54.780
1573.8800, -54.777
1573.9000, -54.799
1573.9200, -54.819
1573.9400, -54.838
1573.9600, -54.843
1573.9800, -54.849
1574.0000, -54.876
1574.0200, -54.887
1574.0400, -54.891
1574.0600, -54.905
1574.0800, -54.933
1574.1000, -54.939
1574.1200, -54.959
1574.1400, -54.978
1574.1600, -54.993
1574.1800, -54.994
1574.2000, -55.010
1574.2200, -55.024
1574.2400, -55.046
1574.2600, -55.062
1574.2800, -55.074
1574.3000, -55.094
1574.3200, -55.097
1574.3400, -55.120
1574.3600, -55.131
1574.3800, -55.150
1574.4000, -55.159
1574.4200, -55.170
1574.4400, -55.178
1574.4600, -55.203
1574.4800, -55.215
1574.5000, -55.230
1574.5200, -55.248
1574.5400, -55.272
1574.5600, -55.273
1574.5800, -55.296
1574.6000, -55.311
1574.6200, -55.323
1574.6400, -55.326
1574.6600, -55.349
1574.6800, -55.356
1574.7000, -55.375
1574.7200, -55.397
1574.7400, -55.403
1574.7600, -55.418
1574.7800, -55.424
1574.8000, -55.460
1574.8200, -55.447
1574.8400, -55.474
1574.8600, -55.482
1574.8800, -55.496
1574.9000, -55.508
1574.9200, -55.525
1574.9400, -55.538
1574.9600, -55.556
1574.9800, -55.568
1575.0000, -55.581
1575.0200, -55.589
1575.0400, -55.614
1575.0600, -55.626
1575.0800, -55.646
1575.1000, -55.641
1575.1200, -55.668
1575.1400, -55.686
1575.1600, -55.682
1575.1800, -55.709
1575.2000, -55.718
1575.2200, -55.735
1575.2400, -55.742
1575.2600, -55.759
1575.2800, -55.775
1575.3000, -55.795
1575.3200, -55.799
1575.3400, -55.832
1575.3600, -55.824
1575.3800, -55.839
1575.4000, -55.873
1575.4200, -55.868
1575.4400, -55.875
1575.4600, -55.889
1575.4800, -55.911
1575.5000, -55.937
1575.5200, -55.933
1575.5400, -55.945
1575.5600, -55.958
1575.5800, -55.981
1575.6000, -55.991
1575.6200, -56.007
1575.6400, -56.009
1575.6600, -56.016
1575.6800, -56.027
1575.7000, -56.054
1575.7200, -56.062
1575.7400, -56.081
1575.7600, -56.094
1575.7800, -56.098
1575.8000, -56.135
1575.8200, -56.125
1575.8400, -56.128
1575.8600, -56.146
1575.8800, -56.163
1575.9000, -56.184
1575.9200, -56.191
1575.9400, -56.218
1575.9600, -56.216
1575.9800, -56.234
1576.0000, -56.241
1576.0200, -56.257
1576.0400, -56.268
1576.0600, -56.279
1576.0800, -56.291
1576.1000, -56.328
1576.1200, -56.324
1576.1400, -56.324
1576.1600, -56.330
1576.1800, -56.358
1576.2000, -56.369
1576.2200, -56.377
1576.2400, -56.393
1576.2600, -56.405
1576.2800, -56.434
1576.3000, -56.433
1576.3200, -56.449
1576.3400, -56.459
1576.3600, -56.470
1576.3800, -56.475
1576.4000, -56.492
1576.4200, -56.497
1576.4400, -56.507
1576.4600, -56.528
1576.4800, -56.544
1576.5000, -56.552
1576.5200, -56.557
1576.5400, -56.558
1576.5600, -56.578
1576.5800, -56.586
1576.6000, -56.618
1576.6200, -56.607
1576.6400, -56.625
1576.6600, -56.636
1576.6800, -56.651
1576.7000, -56.669
1576.7200, -56.657
1576.7400, -56.677
1576.7600, -56.694
1576.7800, -56.703
1576.8000, -56.711
1576.8200, -56.732
1576.8400, -56.750
1576.8600, -56.752
1576.8800, -56.762
1576.9000, -56.776
1576.9200, -56.787
1576.9400, -56.798
1576.9600, -56.813
1576.9800, -56.812
1577.0000, -56.847
1577.0200, -56.850
1577.0400, -56.857
1577.0600, -56.869
1577.0800, -56.880
1577.1000, -56.886
1577.1200, -56.898
1577.1400, -56.923
1577.1600, -56.921
1577.1800, -56.960
1577.2000, -56.944
1577.2200, -56.949
1577.2400, -56.968
1577.2600, -56.983
1577.2800, -56.980
1577.3000, -57.002
1577.3200, -57.012
1577.3400, -57.013
1577.3600, -57.031
1577.3800, -57.047
1577.4000, -57.063
1577.4200, -57.067
1577.4400, -57.074
1577.4600, -57.089
1577.4800, -57.094
1577.5000, -57.124
1577.5200, -57.108
1577.5400, -57.139
1577.5600, -57.129
1577.5800, -57.160
1577.6000, -57.143
1577.6200, -57.168
1577.6400, -57.180
1577.6600, -57.197
1577.6800, -57.204
1577.7000, -57.220
1577.7200, -57.220
1577.7400, -57.230
1577.7600, -57.253
1577.7800, -57.248
1577.8000, -57.268
1577.8200, -57.267
1577.8400, -57.309
1577.8600, -57.296
1577.8800, -57.296
1577.9000, -57.328
1577.9200, -57.343
1577.9400, -57.339
1577.9600, -57.356
1577.9800, -57.354
1578.0000, -57.373
1578.0200, -57.389
1578.0400, -57.408
1578.0600, -57.410
1578.0800, -57.435
1578.1000, -57.426
1578.1200, -57.429
1578.1400, -57.443
1578.1600, -57.468
1578.1800, -57.458
1578.2000, -57.485
1578.2200, -57.497
1578.2400, -57.488
1578.2600, -57.501
1578.2800, -57.511
1578.3000, -57.531
1578.3200, -57.529
1578.3400, -57.545
1578.3600, -57.555
1578.3800, -57.564
1578.4000, -57.587
1578.4200, -57.587
1578.4400, -57.592
1578.4600, -57.614
1578.4800, -57.632
1578.5000, -57.604
1578.5200, -57.641
1578.5400, -57.644
1578.5600, -57.664
1578.5800, -57.659
1578.6000, -57.673
1578.6200, -57.684
1578.6400, -57.713
1578.6600, -57.704
1578.6800, -57.723
1578.7000, -57.728
1578.7200, -57.728
1578.7400, -57.737
1578.7600, -57.758
1578.7800, -57.755
1578.8000, -57.772
1578.8200, -57.794
1578.8400, -57.792
1578.8600, -57.800
1578.8800, -57.833
1578.9000, -57.820
1578.9200, -57.858
1578.9400, -57.837
1578.9600, -57.867
1578.9800, -57.873
1579.0000, -57.872
1579.0200, -57.863
1579.0400, -57.880
1579.0600, -57.899
1579.0800, -57.932
1579.1000, -57.921
1579.1200, -57.922
1579.1400, -57.946
1579.1600, -57.926
1579.1800, -57.969
1579.2000, -57.965
1579.2200, -57.973
1579.2400, -57.995
1579.2600, -58.006
1579.2800, -58.001
1579.3000, -58.018
1579.3200, -58.009
1579.3400, -58.042
1579.3600, -58.036
1579.3800, -58.071
1579.4000, -58.057
1579.4200, -58.073
1579.4400, -58.076
1579.4600, -58.087
1579.4800, -58.108
1579.5000, -58.107
1579.5200, -58.104
1579.5400, -58.130
1579.5600, -58.131
1579.5800, -58.124
1579.6000, -58.152
1579.6200, -58.166
1579.6400, -58.177
1579.6600, -58.175
1579.6800, -58.195
1579.7000, -58.190
1579.7200, -58.207
1579.7400, -58.222
1579.7600, -58.219
1579.7800, -58.228
1579.8000, -58.238
1579.8200, -58.242
1579.8400, -58.262
1579.8600, -58.285
1579.8800, -58.274
1579.9000, -58.284
1579.9200, -58.302
1579.9400, -58.303
1579.9600, -58.329
1579.9800, -58.327
1580.0000, -58.313
1580.0200, -58.322
1580.0400, -58.348
1580.0600, -58.334
1580.0800, -58.368
1580.1000, -58.359
1580.1200, -58.373
1580.1400, -58.369
1580.1600, -58.393
1580.1800, -58.393
1580.2000, -58.404
1580.2200, -58.421
1580.2400, -58.428
1580.2600, -58.438
1580.2800, -58.443
1580.3000, -58.443
1580.3200, -58.463
1580.3400, -58.462
1580.3600, -58.470
1580.3800, -58.474
1580.4000, -58.483
1580.4200, -58.493
1580.4400, -58.511
1580.4600, -58.520
1580.4800, -58.527
1580.5000, -58.527
1580.5200, -58.539
1580.5400, -58.548
1580.5600, -58.554
1580.5800, -58.584
1580.6000, -58.572
1580.6200, -58.579
1580.6400, -58.590
1580.6600, -58.609
1580.6800, -58.603
1580.7000, -58.610
1580.7200, -58.628
1580.7400, -58.633
1580.7600, -58.652
1580.7800, -58.635
1580.8000, -58.661
1580.8200, -58.661
1580.8400, -58.662
1580.8600, -58.681
1580.8800, -58.688
1580.9000, -58.667
1580.9200, -58.708
1580.9400, -58.714
1580.9600, -58.698
1580.9800, -58.732
1581.0000, -58.736
1581.0200, -58.741
1581.0400, -58.758
1581.0600, -58.760
1581.0800, -58.761
1581.1000, -58.771
1581.1200, -58.778
1581.1400, -58.784
1581.1600, -58.798
1581.1800, -58.805
1581.2000, -58.810
1581.2200, -58.817
1581.2400, -58.829
1581.2600, -58.843
1581.2800, -58.836
1581.3000, -58.843
1581.3200, -58.856
1581.3400, -58.874
1581.3600, -58.866
1581.3800, -58.869
1581.4000, -58.891
1581.4200, -58.896
1581.4400, -58.901
1581.4600, -58.907
1581.4800, -58.922
1581.5000, -58.898
1581.5200, -58.920
1581.5400, -58.929
1581.5600, -58.973
1581.5800, -58.955
1581.6000, -58.957
1581.6200, -58.968
1581.6400, -58.940
1581.6600, -58.986
1581.6800, -58.985
1581.7000, -58.992
1581.7200, -58.987
1581.7400, -58.992
1581.7600, -59.039
1581.7800, -59.006
1581.8000, -59.034
1581.8200, -59.029
1581.8400, -59.041
1581.8600, -59.053
1581.8800, -59.061
1581.9000, -59.067
1581.9200, -59.044
1581.9400, -59.083
1581.9600, -59.069
1581.9800, -59.123
1582.0000, -59.089
1582.0200, -59.117
1582.0400, -59.113
1582.0600, -59.144
1582.0800, -59.113
1582.1000, -59.140
1582.1200, -59.140
1582.1400, -59.172
1582.1600, -59.162
1582.1800, -59.181
1582.2000, -59.172
1582.2200, -59.166
1582.2400, -59.190
1582.2600, -59.193
1582.2800, -59.209
1582.3000, -59.218
1582.3200, -59.232
1582.3400, -59.228
1582.3600, -59.233
1582.3800, -59.227
1582.4000, -59.243
1582.4200, -59.246
1582.4400, -59.271
1582.4600, -59.257
1582.4800, -59.280
1582.5000, -59.266
1582.5200, -59.278
1582.5400, -59.286
1582.5600, -59.288
1582.5800, -59.322
1582.6000, -59.334
1582.6200, -59.272
1582.6400, -59.331
1582.6600, -59.326
1582.6800, -59.341
1582.7000, -59.340
1582.7200, -59.330
1582.7400, -59.373
1582.7600, -59.365
1582.7800, -59.375
1582.8000, -59.378
1582.8200, -59.389
1582.8400, -59.381
1582.8600, -59.397
1582.8800, -59.410
1582.9000, -59.412
1582.9200, -59.393
1582.9400, -59.427
1582.9600, -59.439
1582.9800, -59.437
1583.0000, -59.448
1583.0200, -59.445
1583.0400, -59.458
1583.0600, -59.470
1583.0800, -59.459
1583.1000, -59.484
1583.1200, -59.494
1583.1400, -59.492
1583.1600, -59.517
1583.1800, -59.506
1583.2000, -59.513
1583.2200, -59.539
1583.2400, -59.503
1583.2600, -59.528
1583.2800, -59.531
1583.3000, -59.544
1583.3200, -59.551
1583.3400, -59.562
1583.3600, -59.577
1583.3800, -59.573
1583.4000, -59.574
1583.4200, -59.576
1583.4400, -59.579
1583.4600, -59.613
1583.4800, -59.607
1583.5000, -59.611
1583.5200, -59.624
1583.5400, -59.605
1583.5600, -59.620
1583.5800, -59.640
1583.6000, -59.639
1583.6200, -59.637
1583.6400, -59.656
1583.6600, -59.650
1583.6800, -59.661
1583.7000, -59.654
1583.7200, -59.691
1583.7400, -59.670
1583.7600, -59.696
1583.7800, -59.692
1583.8000, -59.705
1583.8200, -59.702
1583.8400, -59.731
1583.8600, -59.699
1583.8800, -59.743
1583.9000, -59.760
1583.9200, -59.744
1583.9400, -59.717
1583.9600, -59.764
1583.9800, -59.747
1584.0000, -59.747
1584.0200, -59.772
1584.0400, -59.784
1584.0600, -59.775
1584.0800, -59.755
1584.1000, -59.799
1584.1200, -59.808
1584.1400, -59.826
1584.1600, -59.836
1584.1800, -59.847
1584.2000, -59.813
1584.2200, -59.825
1584.2400, -59.812
1584.2600, -59.830
1584.2800, -59.857
1584.3000, -59.835
1584.3200, -59.852
1584.3400, -59.857
1584.3600, -59.873
1584.3800, -59.871
1584.4000, -59.879
1584.4200, -59.888
1584.4400, -59.891
1584.4600, -59.889
1584.4800, -59.907
1584.5000, -59.905
1584.5200, -59.921
1584.5400, -59.909
1584.5600, -59.933
1584.5800, -59.936
1584.6000, -59.947
1584.6200, -59.913
1584.6400, -59.963
1584.6600, -59.978
1584.6800, -59.973
1584.7000, -59.966
1584.7200, -59.953
1584.7400, -59.976
1584.7600, -59.982
1584.7800, -59.979
1584.8000, -59.969
1584.8200, -60.009
1584.8400, -59.992
1584.8600, -60.028
1584.8800, -60.003
1584.9000, -60.008
1584.9200, -60.019
1584.9400, -60.017
1584.9600, -60.022
1584.9800, -60.039
1585.0000, -60.052
1585.0200, -60.053
1585.0400, -60.060
1585.0600, -60.054
1585.0800, -60.086
1585.1000, -60.070
1585.1200, -60.076
1585.1400, -60.085
1585.1600, -60.070
1585.1800, -60.082
1585.2000, -60.115
1585.2200, -60.113
1585.2400, -60.079
1585.2600, -60.115
1585.2800, -60.132
1585.3000, -60.126
1585.3200, -60.102
1585.3400, -60.143
1585.3600, -60.155
1585.3800, -60.137
1585.4000, -60.170
1585.4200, -60.160
1585.4400, -60.136
1585.4600, -60.174
1585.4800, -60.136
1585.5000, -60.175
1585.5200, -60.201
1585.5400, -60.181
1585.5600, -60.220
1585.5800, -60.182
1585.6000, -60.214
1585.6200, -60.220
1585.6400, -60.215
1585.6600, -60.216
1585.6800, -60.218
1585.7000, -60.244
1585.7200, -60.210
1585.7400, -60.273
1585.7600, -60.212
1585.7800, -60.250
1585.8000, -60.255
1585.8200, -60.260
1585.8400, -60.284
1585.8600, -60.261
1585.8800, -60.287
1585.9000, -60.260
1585.9200, -60.275
1585.9400, -60.300
1585.9600, -60.289
1585.9800, -60.293
1586.0000, -60.292
1586.0200, -60.300
1586.0400, -60.320
1586.0600, -60.319
1586.0800, -60.327
1586.1000, -60.329
1586.1200, -60.333
1586.1400, -60.342
1586.1600, -60.326
1586.1800, -60.365
1586.2000, -60.349
1586.2200, -60.353
1586.2400, -60.376
1586.2600, -60.357
1586.2800, -60.390
1586.3000, -60.386
1586.3200, -60.391
1586.3400, -60.371
1586.3600, -60.383
1586.3800, -60.413
1586.4000, -60.410
1586.4200, -60.409
1586.4400, -60.427
1586.4600, -60.399
1586.4800, -60.417
1586.5000, -60.461
1586.5200, -60.408
1586.5400, -60.479
1586.5600, -60.467
1586.5800, -60.435
1586.6000, -60.467
1586.6200, -60.455
1586.6400, -60.496
1586.6600, -60.446
1586.6800, -60.483
1586.7000, -60.443
1586.7200, -60.505
1586.7400, -60.487
1586.7600, -60.496
1586.7800, -60.532
1586.8000, -60.491
1586.8200, -60.527
1586.8400, -60.513
1586.8600, -60.540
1586.8800, -60.528
1586.9000, -60.530
1586.9200, -60.557
1586.9400, -60.532
1586.9600, -60.541
1586.9800, -60.559
1587.0000, -60.562
1587.0200, -60.548
1587.0400, -60.573
1587.0600, -60.541
1587.0800, -60.579
1587.1000, -60.588
1587.1200, -60.568
1587.1400, -60.585
1587.1600, -60.625
1587.1800, -60.584
1587.2000, -60.602
1587.2200, -60.586
1587.2400, -60.612
1587.2600, -60.630
1587.2800, -60.608
1587.3000, -60.633
1587.3200, -60.633
1587.3400, -60.649
1587.3600, -60.632
1587.3800, -60.643
1587.4000, -60.669
1587.4200, -60.644
1587.4400, -60.662
1587.4600, -60.677
1587.4800, -60.673
1587.5000, -60.665
1587.5200, -60.693
1587.5400, -60.732
1587.5600, -60.697
1587.5800, -60.711
1587.6000, -60.703
1587.6200, -60.704
1587.6400, -60.680
1587.6600, -60.716
1587.6800, -60.744
1587.7000, -60.721
1587.7200, -60.722
1587.7400, -60.732
1587.7600, -60.792
1587.7800, -60.731
1587.8000, -60.731
1587.8200, -60.771
1587.8400, -60.773
1587.8600, -60.787
1587.8800, -60.753
1587.9000, -60.787
1587.9200, -60.785
1587.9400, -60.772
1587.9600, -60.810
1587.9800, -60.778
1588.0000, -60.806
1588.0200, -60.800
1588.0400, -60.822
1588.0600, -60.806
1588.0800, -60.844
1588.1000, -60.809
1588.1200, -60.808
1588.1400, -60.869
1588.1600, -60.831
1588.1800, -60.837
1588.2000, -60.839
1588.2200, -60.854
1588.2400, -60.887
1588.2600, -60.851
1588.2800, -60.856
1588.3000, -60.851
1588.3200, -60.921
1588.3400, -60.838
1588.3600, -60.867
1588.3800, -60.879
1588.4000, -60.880
1588.4200, -60.909
1588.4400, -60.940
1588.4600, -60.854
1588.4800, -60.917
1588.5000, -60.920
1588.5200, -60.935
1588.5400, -60.919
1588.5600, -60.926
1588.5800, -60.927
1588.6000, -60.962
1588.6200, -60.947
1588.6400, -60.968
1588.6600, -60.903
1588.6800, -60.955
1588.7000, -60.950
1588.7200, -60.968
1588.7400, -60.987
1588.7600, -60.983
1588.7800, -60.920
1588.8000, -60.992
1588.8200, -60.940
1588.8400, -60.967
1588.8600, -60.978
1588.8800, -60.998
1588.9000, -60.998
1588.9200, -61.018
1588.9400, -61.011
1588.9600, -61.002
1588.9800, -61.020
1589.0000, -61.040
1589.0200, -61.000
1589.0400, -61.038
1589.0600, -61.061
1589.0800, -61.063
1589.1000, -61.056
1589.1200, -61.071
1589.1400, -61.037
1589.1600, -61.058
1589.1800, -61.047
1589.2000, -61.079
1589.2200, -61.046
1589.2400, -61.075
1589.2600, -61.053
1589.2800, -61.108
1589.3000, -61.080
1589.3200, -61.127
1589.3400, -61.086
1589.3600, -61.090
1589.3800, -61.091
1589.4000, -61.098
1589.4200, -61.099
1589.4400, -61.110
1589.4600, -61.110
1589.4800, -61.193
1589.5000, -61.099
1589.5200, -61.126
1589.5400, -61.157
1589.5600, -61.195
1589.5800, -61.109
1589.6000, -61.146
1589.6200, -61.164
1589.6400, -61.157
1589.6600, -61.157
1589.6800, -61.193
1589.7000, -61.176
1589.7200, -61.184
1589.7400, -61.176
1589.7600, -61.197
1589.7800, -61.197
1589.8000, -61.170
1589.8200, -61.200
1589.8400, -61.186
1589.8600, -61.216
1589.8800, -61.224
1589.9000, -61.188
1589.9200, -61.259
1589.9400, -61.213
1589.9600, -61.213
1589.9800, -61.240
1590.0000, -61.233
1590.0200, -61.259
1590.0400, -61.227
1590.0600, -61.264
1590.0800, -61.254
1590.1000, -61.259
1590.1200, -61.260
1590.1400, -61.278
1590.1600, -61.264
1590.1800, -61.291
1590.2000, -61.282
1590.2200, -61.272
1590.2400, -61.280
1590.2600, -61.317
1590.2800, -61.316
1590.3000, -61.267
1590.3200, -61.308
1590.3400, -61.305
1590.3600, -61.341
1590.3800, -61.349
1590.4000, -61.374
1590.4200, -61.267
1590.4400, -61.353
1590.4600, -61.336
1590.4800, -61.330
1590.5000, -61.329
1590.5200, -61.355
1590.5400, -61.360
1590.5600, -61.340
1590.5800, -61.374
1590.6000, -61.373
1590.6200, -61.339
1590.6400, -61.394
1590.6600, -61.373
1590.6800, -61.394
1590.7000, -61.413
1590.7200, -61.381
1590.7400, -61.457
1590.7600, -61.355
1590.7800, -61.416
1590.8000, -61.444
1590.8200, -61.389
1590.8400, -61.433
1590.8600, -61.425
1590.8800, -61.421
1590.9000, -61.443
1590.9200, -61.442
1590.9400, -61.444
1590.9600, -61.430
1590.9800, -61.471
1591.0000, -61.477
1591.0200, -61.463
1591.0400, -61.489
1591.0600, -61.461
1591.0800, -61.472
1591.1000, -61.508
1591.1200, -61.438
1591.1400, -61.517
1591.1600, -61.472
1591.1800, -61.459
1591.2000, -61.513
1591.2200, -61.523
1591.2400, -61.514
1591.2600, -61.495
1591.2800, -61.524
1591.3000, -61.529
1591.3200, -61.513
1591.3400, -61.510
1591.3600, -61.526
1591.3800, -61.534
1591.4000, -61.586
1591.4200, -61.562
1591.4400, -61.533
1591.4600, -61.547
1591.4800, -61.562
1591.5000, -61.591
1591.5200, -61.547
1591.5400, -61.568
1591.5600, -61.598
1591.5800, -61.570
1591.6000, -61.602
1591.6200, -61.574
1591.6400, -61.594
1591.6600, -61.624
1591.6800, -61.586
1591.7000, -61.626
1591.7200, -61.632
1591.7400, -61.616
1591.7600, -61.616
1591.7800, -61.644
1591.8000, -61.639
1591.8200, -61.620
1591.8400, -61.641
1591.8600, -61.649
1591.8800, -61.660
1591.9000, -61.642
1591.9200, -61.671
1591.9400, -61.658
1591.9600, -61.652
1591.9800, -61.662
1592.0000, -61.664
1592.0200, -61.703
1592.0400, -61.674
1592.0600, -61.747
1592.0800, -61.689
1592.1000, -61.661
1592.1200, -61.693
1592.1400, -61.745
1592.1600, -61.674
1592.1800, -61.737
1592.2000, -61.704
1592.2200, -61.708
1592.2400, -61.727
1592.2600, -61.720
1592.2800, -61.756
1592.3000, -61.745
1592.3200, -61.746
1592.3400, -61.738
1592.3600, -61.768
1592.3800, -61.734
1592.4000, -61.760
1592.4200, -61.773
1592.4400, -61.761
1592.4600, -61.759
1592.4800, -61.790
1592.5000, -61.764
1592.5200, -61.780
1592.5400, -61.762
1592.5600, -61.827
1592.5800, -61.794
1592.6000, -61.787
1592.6200, -61.797
1592.6400, -61.813
1592.6600, -61.806
1592.6800, -61.836
1592.7000, -61.795
1592.7200, -61.814
1592.7400, -61.837
1592.7600, -61.840
1592.7800, -61.837
1592.8000, -61.864
1592.8200, -61.879
1592.8400, -61.831
1592.8600, -61.912
1592.8800, -61.851
1592.9000, -61.846
1592.9200, -61.884
1592.9400, -61.906
1592.9600, -61.856
1592.9800, -61.837
1593.0000, -61.915
1593.0200, -61.872
1593.0400, -61.899
1593.0600, -61.909
1593.0800, -61.882
1593.1000, -61.915
1593.1200, -61.900
1593.1400, -61.930
1593.1600, -61.925
1593.1800, -61.918
1593.2000, -61.896
1593.2200, -61.946
1593.2400, -61.949
1593.2600, -61.939
1593.2800, -61.924
1593.3000, -61.944
1593.3200, -61.974
1593.3400, -61.922
1593.3600, -61.926
1593.3800, -61.947
1593.4000, -61.958
1593.4200, -61.937
1593.4400, -61.972
1593.4600, -61.951
1593.4800, -61.966
1593.5000, -61.998
1593.5200, -61.968
1593.5400, -62.007
1593.5600, -61.995
1593.5800, -62.010
1593.6000, -62.005
1593.6200, -62.016
1593.6400, -62.011
1593.6600, -62.009
1593.6800, -62.016
1593.7000, -62.049
1593.7200, -62.049
1593.7400, -62.023
1593.7600, -62.050
1593.7800, -62.040
1593.8000, -62.066
1593.8200, -62.023
1593.8400, -62.055
1593.8600, -62.073
1593.8800, -62.091
1593.9000, -62.077
1593.9200, -62.089
1593.9400, -62.046
1593.9600, -62.087
1593.9800, -62.094
1594.0000, -62.102
1594.0200, -62.101
1594.0400, -62.082
1594.0600, -62.094
1594.0800, -62.113
1594.1000, -62.110
1594.1200, -62.132
1594.1400, -62.096
1594.1600, -62.109
1594.1800, -62.137
1594.2000, -62.150
1594.2200, -62.112
1594.2400, -62.164
1594.2600, -62.104
1594.2800, -62.143
1594.3000, -62.168
1594.3200, -62.138
1594.3400, -62.146
1594.3600, -62.198
1594.3800, -62.160
1594.4000, -62.172
1594.4200, -62.179
1594.4400, -62.208
1594.4600, -62.217
1594.4800, -62.159
1594.5000, -62.238
1594.5200, -62.167
1594.5400, -62.243
1594.5600, -62.218
1594.5800, -62.202
1594.6000, -62.204
1594.6200, -62.203
1594.6400, -62.209
1594.6600, -62.201
1594.6800, -62.257
1594.7000, -62.257
1594.7200, -62.238
1594.7400, -62.261
1594.7600, -62.245
1594.7800, -62.231
1594.8000, -62.269
1594.8200, -62.246
1594.8400, -62.283
1594.8600, -62.278
1594.8800, -62.264
1594.9000, -62.264
1594.9200, -62.279
1594.9400, -62.307
1594.9600, -62.302
1594.9800, -62.270
1595.0000, -62.292
1595.0200, -62.308
1595.0400, -62.299
1595.0600, -62.318
1595.0800, -62.297
1595.1000, -62.331
1595.1200, -62.343
1595.1400, -62.291
1595.1600, -62.353
1595.1800, -62.326
1595.2000, -62.326
1595.2200, -62.378
1595.2400, -62.313
1595.2600, -62.356
1595.2800, -62.403
1595.3000, -62.335
1595.3200, -62.345
1595.3400, -62.395
1595.3600, -62.344
1595.3800, -62.392
1595.4000, -62.345
1595.4200, -62.361
1595.4400, -62.378
1595.4600, -62.411
1595.4800, -62.366
1595.5000, -62.440
1595.5200, -62.416
1595.5400, -62.398
1595.5600, -62.410
1595.5800, -62.426
1595.6000, -62.432
1595.6200, -62.433
1595.6400, -62.394
1595.6600, -62.437
1595.6800, -62.455
1595.7000, -62.434
1595.7200, -62.440
1595.7400, -62.399
1595.7600, -62.446
1595.7800, -62.486
1595.8000, -62.462
1595.8200, -62.463
1595.8400, -62.462
1595.8600, -62.471
1595.8800, -62.474
1595.9000, -62.480
1595.9200, -62.504
1595.9400, -62.512
1595.9600, -62.493
1595.9800, -62.518
1596.0000, -62.529
1596.0200, -62.520
1596.0400, -62.486
1596.0600, -62.503
1596.0800, -62.573
1596.1000, -62.497
1596.1200, -62.575
1596.1400, -62.541
1596.1600, -62.533
1596.1800, -62.542
1596.2000, -62.542
1596.2200, -62.546
1596.2400, -62.622
1596.2600, -62.517
1596.2800, -62.562
1596.3000, -62.605
1596.3200, -62.581
1596.3400, -62.548
1596.3600, -62.599
1596.3800, -62.626
1596.4000, -62.544
1596.4200, -62.532
1596.4400, -62.593
1596.4600, -62.614
1596.4800, -62.653
1596.5000, -62.560
1596.5200, -62.585
1596.5400, -62.599
1596.5600, -62.638
1596.5800, -62.601
1596.6000, -62.628
1596.6200, -62.604
1596.6400, -62.696
1596.6600, -62.669
1596.6800, -62.661
1596.7000, -62.657
1596.7200, -62.589
1596.7400, -62.636
1596.7600, -62.731
1596.7800, -62.651
1596.8000, -62.648
1596.8200, -62.630
1596.8400, -62.746
1596.8600, -62.621
1596.8800, -62.703
1596.9000, -62.665
1596.9200, -62.697
1596.9400, -62.711
1596.9600, -62.688
1596.9800, -62.696
1597.0000, -62.707
1597.0200, -62.715
1597.0400, -62.706
1597.0600, -62.712
1597.0800, -62.705
1597.1000, -62.699
1597.1200, -62.736
1597.1400, -62.751
1597.1600, -62.721
1597.1800, -62.732
1597.2000, -62.827
1597.2200, -62.710
1597.2400, -62.765
1597.2600, -62.718
1597.2800, -62.756
1597.3000, -62.750
1597.3200, -62.809
1597.3400, -62.785
1597.3600, -62.762
1597.3800, -62.803
1597.4000, -62.808
1597.4200, -62.800
1597.4400, -62.772
1597.4600, -62.795
1597.4800, -62.735
1597.5000, -62.833
1597.5200, -62.797
1597.5400, -62.760
1597.5600, -62.830
1597.5800, -62.826
1597.6000, -62.778
1597.6200, -62.838
1597.6400, -62.844
1597.6600, -62.825
1597.6800, -62.854
1597.7000, -62.836
1597.7200, -62.847
1597.7400, -62.836
1597.7600, -62.858
1597.7800, -62.850
1597.8000, -62.887
1597.8200, -62.931
1597.8400, -62.798
1597.8600, -62.876
1597.8800, -62.876
1597.9000, -62.916
1597.9200, -62.919
1597.9400, -62.878
1597.9600, -62.876
1597.9800, -62.927
1598.0000, -62.935
1598.0200, -62.870
1598.0400, -62.848
1598.0600, -62.908
1598.0800, -62.962
1598.1000, -62.928
1598.1200, -62.934
1598.1400, -62.917
1598.1600, -62.897
1598.1800, -62.950
1598.2000, -62.984
1598.2200, -62.950
1598.2400, -62.909
1598.2600, -62.959
1598.2800, -62.969
1598.3000, -62.990
1598.3200, -62.951
1598.3400, -62.983
1598.3600, -62.965
1598.3800, -62.987
1598.4000, -62.994
1598.4200, -62.977
1598.4400, -63.012
1598.4600, -63.019
1598.4800, -63.007
1598.5000, -63.017
1598.5200, -63.011
1598.5400, -63.023
1598.5600, -63.039
1598.5800, -63.058
1598.6000, -63.028
1598.6200, -63.018
1598.6400, -63.051
1598.6600, -63.054
1598.6800, -63.047
1598.7000, -63.047
1598.7200, -63.026
1598.7400, -63.078
1598.7600, -63.122
1598.7800, -63.066
1598.8000, -63.077
1598.8200, -63.026
1598.8400, -63.052
1598.8600, -63.123
1598.8800, -63.074
1598.9000, -63.099
1598.9200, -63.072
1598.9400, -63.146
1598.9600, -63.030
1598.9800, -63.143
1599.0000, -63.139
1599.0200, -63.109
1599.0400, -63.073
1599.0600, -63.100
1599.0800, -63.124
1599.1000, -63.174
1599.1200, -63.127
1599.1400, -63.129
1599.1600, -63.131
1599.1800, -63.171
1599.2000, -63.158
1599.2200, -63.155
1599.2400, -63.159
1599.2600, -63.166
1599.2800, -63.164
1599.3000, -63.179
1599.3200, -63.190
1599.3400, -63.169
1599.3600, -63.184
1599.3800, -63.176
1599.4000, -63.204
1599.4200, -63.213
1599.4400, -63.274
1599.4600, -63.104
1599.4800, -63.180
1599.5000, -63.228
1599.5200, -63.218
1599.5400, -63.226
1599.5600, -63.246
1599.5800, -63.189
1599.6000, -63.256
1599.6200, -63.218
1599.6400, -63.256
1599.6600, -63.251
1599.6800, -63.234
1599.7000, -63.269
1599.7200, -63.276
1599.7400, -63.258
1599.7600, -63.262
1599.7800, -63.264
1599.8000, -63.287
1599.8200, -63.279
1599.8400, -63.275
1599.8600, -63.289
1599.8800, -63.279
1599.9000, -63.271
1599.9200, -63.315
1599.9400, -63.293
1599.9600, -63.341
1599.9800, -63.309
1600.0000, -63.315
