70BCSV 	
// AQ6370B OPTICAL SPECTRUM ANALYZER //                 
25
"CTRWL",1550.000000
"SPAN", 100.000000
"START WL",1500.000000
"STOP WL",1600.000000
"WLFREQ", 0
"REFL",-46.2
"LSCL", 5.0
"RESLN",0.100
"AVG",   1
"SMPLAUTO",      0
"SMPL",       5001
"SMPLINTVL",0.0200
"HIGH1"
"MEAS"
"LSUNT",0
"NMSKH","OFF"
"RESCOR",0
"RESPARM", 9050
"FREQPARM", 9050






"[TRACE DATA]"
1500.0000, -64.399
1500.0200, -64.418
1500.0400, -64.358
1500.0600, -64.328
1500.0800, -64.448
1500.1000, -64.345
1500.1200, -64.337
1500.1400, -64.365
1500.1600, -64.381
1500.1800, -64.333
1500.2000, -64.345
1500.2200, -64.368
1500.2400, -64.370
1500.2600, -64.280
1500.2800, -64.365
1500.3000, -64.300
1500.3200, -64.258
1500.3400, -64.317
1500.3600, -64.354
1500.3800, -64.361
1500.4000, -64.312
1500.4200, -64.296
1500.4400, -64.296
1500.4600, -64.331
1500.4800, -64.303
1500.5000, -64.296
1500.5200, -64.315
1500.5400, -64.267
1500.5600, -64.298
1500.5800, -64.255
1500.6000, -64.365
1500.6200, -64.302
1500.6400, -64.281
1500.6600, -64.243
1500.6800, -64.264
1500.7000, -64.260
1500.7200, -64.205
1500.7400, -64.260
1500.7600, -64.174
1500.7800, -64.291
1500.8000, -64.234
1500.8200, -64.235
1500.8400, -64.220
1500.8600, -64.244
1500.8800, -64.196
1500.9000, -64.141
1500.9200, -64.198
1500.9400, -64.167
1500.9600, -64.214
1500.9800, -64.130
1501.0000, -64.186
1501.0200, -64.167
1501.0400, -64.138
1501.0600, -64.104
1501.0800, -64.125
1501.1000, -64.142
1501.1200, -64.141
1501.1400, -64.121
1501.1600, -64.078
1501.1800, -64.129
1501.2000, -64.079
1501.2200, -64.149
1501.2400, -64.040
1501.2600, -64.093
1501.2800, -64.096
1501.3000, -64.069
1501.3200, -64.055
1501.3400, -64.094
1501.3600, -64.051
1501.3800, -64.087
1501.4000, -64.077
1501.4200, -64.039
1501.4400, -64.109
1501.4600, -64.060
1501.4800, -64.112
1501.5000, -64.063
1501.5200, -64.075
1501.5400, -64.053
1501.5600, -64.096
1501.5800, -64.098
1501.6000, -64.008
1501.6200, -64.034
1501.6400, -64.026
1501.6600, -63.999
1501.6800, -64.057
1501.7000, -64.014
1501.7200, -64.004
1501.7400, -64.002
1501.7600, -64.071
1501.7800, -63.986
1501.8000, -63.973
1501.8200, -63.993
1501.8400, -63.988
1501.8600, -63.954
1501.8800, -64.021
1501.9000, -63.944
1501.9200, -63.937
1501.9400, -63.990
1501.9600, -63.931
1501.9800, -63.925
1502.0000, -63.890
1502.0200, -63.841
1502.0400, -63.997
1502.0600, -63.893
1502.0800, -63.874
1502.1000, -63.848
1502.1200, -63.833
1502.1400, -63.981
1502.1600, -63.877
1502.1800, -63.851
1502.2000, -63.858
1502.2200, -63.846
1502.2400, -63.817
1502.2600, -63.851
1502.2800, -63.859
1502.3000, -63.770
1502.3200, -63.830
1502.3400, -63.854
1502.3600, -63.773
1502.3800, -63.860
1502.4000, -63.848
1502.4200, -63.823
1502.4400, -63.791
1502.4600, -63.818
1502.4800, -63.790
1502.5000, -63.806
1502.5200, -63.805
1502.5400, -63.853
1502.5600, -63.791
1502.5800, -63.806
1502.6000, -63.752
1502.6200, -63.801
1502.6400, -63.766
1502.6600, -63.787
1502.6800, -63.717
1502.7000, -63.768
1502.7200, -63.807
1502.7400, -63.742
1502.7600, -63.732
1502.7800, -63.722
1502.8000, -63.698
1502.8200, -63.732
1502.8400, -63.665
1502.8600, -63.640
1502.8800, -63.689
1502.9000, -63.700
1502.9200, -63.709
1502.9400, -63.612
1502.9600, -63.676
1502.9800, -63.678
1503.0000, -63.590
1503.0200, -63.642
1503.0400, -63.599
1503.0600, -63.639
1503.0800, -63.618
1503.1000, -63.605
1503.1200, -63.593
1503.1400, -63.606
1503.1600, -63.618
1503.1800, -63.610
1503.2000, -63.601
1503.2200, -63.604
1503.2400, -63.549
1503.2600, -63.581
1503.2800, -63.577
1503.3000, -63.601
1503.3200, -63.572
1503.3400, -63.573
1503.3600, -63.552
1503.3800, -63.574
1503.4000, -63.534
1503.4200, -63.582
1503.4400, -63.543
1503.4600, -63.545
1503.4800, -63.534
1503.5000, -63.575
1503.5200, -63.509
1503.5400, -63.523
1503.5600, -63.499
1503.5800, -63.515
1503.6000, -63.533
1503.6200, -63.532
1503.6400, -63.514
1503.6600, -63.452
1503.6800, -63.470
1503.7000, -63.488
1503.7200, -63.527
1503.7400, -63.412
1503.7600, -63.423
1503.7800, -63.474
1503.8000, -63.425
1503.8200, -63.400
1503.8400, -63.444
1503.8600, -63.400
1503.8800, -63.450
1503.9000, -63.344
1503.9200, -63.441
1503.9400, -63.344
1503.9600, -63.341
1503.9800, -63.388
1504.0000, -63.320
1504.0200, -63.406
1504.0400, -63.363
1504.0600, -63.389
1504.0800, -63.296
1504.1000, -63.320
1504.1200, -63.327
1504.1400, -63.352
1504.1600, -63.334
1504.1800, -63.254
1504.2000, -63.314
1504.2200, -63.291
1504.2400, -63.274
1504.2600, -63.310
1504.2800, -63.307
1504.3000, -63.256
1504.3200, -63.280
1504.3400, -63.296
1504.3600, -63.319
1504.3800, -63.325
1504.4000, -63.294
1504.4200, -63.214
1504.4400, -63.276
1504.4600, -63.257
1504.4800, -63.283
1504.5000, -63.203
1504.5200, -63.260
1504.5400, -63.214
1504.5600, -63.196
1504.5800, -63.221
1504.6000, -63.235
1504.6200, -63.164
1504.6400, -63.140
1504.6600, -63.166
1504.6800, -63.190
1504.7000, -63.191
1504.7200, -63.173
1504.7400, -63.158
1504.7600, -63.143
1504.7800, -63.165
1504.8000, -63.138
1504.8200, -63.111
1504.8400, -63.153
1504.8600, -63.057
1504.8800, -63.072
1504.9000, -63.102
1504.9200, -63.063
1504.9400, -63.095
1504.9600, -63.068
1504.9800, -63.042
1505.0000, -63.038
1505.0200, -63.060
1505.0400, -63.073
1505.0600, -62.970
1505.0800, -63.044
1505.1000, -62.980
1505.1200, -62.966
1505.1400, -63.019
1505.1600, -63.014
1505.1800, -62.961
1505.2000, -63.003
1505.2200, -62.986
1505.2400, -62.984
1505.2600, -62.966
1505.2800, -62.967
1505.3000, -62.970
1505.3200, -63.004
1505.3400, -62.972
1505.3600, -62.996
1505.3800, -62.903
1505.4000, -62.926
1505.4200, -62.978
1505.4400, -62.914
1505.4600, -62.980
1505.4800, -62.951
1505.5000, -62.941
1505.5200, -62.916
1505.5400, -62.915
1505.5600, -62.922
1505.5800, -62.903
1505.6000, -62.888
1505.6200, -62.863
1505.6400, -62.847
1505.6600, -62.864
1505.6800, -62.855
1505.7000, -62.853
1505.7200, -62.808
1505.7400, -62.798
1505.7600, -62.840
1505.7800, -62.847
1505.8000, -62.786
1505.8200, -62.757
1505.8400, -62.828
1505.8600, -62.742
1505.8800, -62.784
1505.9000, -62.737
1505.9200, -62.750
1505.9400, -62.747
1505.9600, -62.758
1505.9800, -62.722
1506.0000, -62.753
1506.0200, -62.678
1506.0400, -62.705
1506.0600, -62.688
1506.0800, -62.668
1506.1000, -62.701
1506.1200, -62.690
1506.1400, -62.713
1506.1600, -62.692
1506.1800, -62.696
1506.2000, -62.683
1506.2200, -62.692
1506.2400, -62.666
1506.2600, -62.711
1506.2800, -62.672
1506.3000, -62.640
1506.3200, -62.661
1506.3400, -62.648
1506.3600, -62.668
1506.3800, -62.642
1506.4000, -62.612
1506.4200, -62.610
1506.4400, -62.618
1506.4600, -62.601
1506.4800, -62.614
1506.5000, -62.632
1506.5200, -62.567
1506.5400, -62.585
1506.5600, -62.598
1506.5800, -62.543
1506.6000, -62.550
1506.6200, -62.542
1506.6400, -62.527
1506.6600, -62.525
1506.6800, -62.489
1506.7000, -62.545
1506.7200, -62.510
1506.7400, -62.527
1506.7600, -62.495
1506.7800, -62.456
1506.8000, -62.500
1506.8200, -62.456
1506.8400, -62.469
1506.8600, -62.457
1506.8800, -62.430
1506.9000, -62.464
1506.9200, -62.446
1506.9400, -62.430
1506.9600, -62.392
1506.9800, -62.415
1507.0000, -62.431
1507.0200, -62.419
1507.0400, -62.397
1507.0600, -62.392
1507.0800, -62.355
1507.1000, -62.393
1507.1200, -62.379
1507.1400, -62.382
1507.1600, -62.380
1507.1800, -62.376
1507.2000, -62.359
1507.2200, -62.377
1507.2400, -62.355
1507.2600, -62.363
1507.2800, -62.364
1507.3000, -62.374
1507.3200, -62.348
1507.3400, -62.353
1507.3600, -62.330
1507.3800, -62.332
1507.4000, -62.312
1507.4200, -62.325
1507.4400, -62.283
1507.4600, -62.286
1507.4800, -62.253
1507.5000, -62.293
1507.5200, -62.302
1507.5400, -62.217
1507.5600, -62.274
1507.5800, -62.253
1507.6000, -62.205
1507.6200, -62.240
1507.6400, -62.228
1507.6600, -62.197
1507.6800, -62.188
1507.7000, -62.188
1507.7200, -62.186
1507.7400, -62.161
1507.7600, -62.162
1507.7800, -62.137
1507.8000, -62.207
1507.8200, -62.136
1507.8400, -62.108
1507.8600, -62.142
1507.8800, -62.078
1507.9000, -62.086
1507.9200, -62.154
1507.9400, -62.104
1507.9600, -62.106
1507.9800, -62.086
1508.0000, -62.071
1508.0200, -62.070
1508.0400, -62.080
1508.0600, -62.043
1508.0800, -62.054
1508.1000, -62.065
1508.1200, -62.071
1508.1400, -62.064
1508.1600, -62.032
1508.1800, -62.037
1508.2000, -62.011
1508.2200, -62.041
1508.2400, -62.068
1508.2600, -62.064
1508.2800, -62.037
1508.3000, -62.051
1508.3200, -62.012
1508.3400, -62.031
1508.3600, -61.985
1508.3800, -61.985
1508.4000, -61.980
1508.4200, -61.960
1508.4400, -61.955
1508.4600, -61.935
1508.4800, -61.946
1508.5000, -61.957
1508.5200, -61.967
1508.5400, -61.941
1508.5600, -61.937
1508.5800, -61.917
1508.6000, -61.880
1508.6200, -61.884
1508.6400, -61.862
1508.6600, -61.887
1508.6800, -61.848
1508.7000, -61.862
1508.7200, -61.831
1508.7400, -61.868
1508.7600, -61.826
1508.7800, -61.807
1508.8000, -61.831
1508.8200, -61.806
1508.8400, -61.802
1508.8600, -61.822
1508.8800, -61.802
1508.9000, -61.766
1508.9200, -61.765
1508.9400, -61.770
1508.9600, -61.762
1508.9800, -61.754
1509.0000, -61.750
1509.0200, -61.719
1509.0400, -61.774
1509.0600, -61.769
1509.0800, -61.757
1509.1000, -61.766
1509.1200, -61.720
1509.1400, -61.719
1509.1600, -61.720
1509.1800, -61.726
1509.2000, -61.732
1509.2200, -61.728
1509.2400, -61.712
1509.2600, -61.695
1509.2800, -61.664
1509.3000, -61.656
1509.3200, -61.653
1509.3400, -61.655
1509.3600, -61.631
1509.3800, -61.668
1509.4000, -61.651
1509.4200, -61.637
1509.4400, -61.603
1509.4600, -61.602
1509.4800, -61.639
1509.5000, -61.623
1509.5200, -61.572
1509.5400, -61.577
1509.5600, -61.531
1509.5800, -61.540
1509.6000, -61.545
1509.6200, -61.553
1509.6400, -61.514
1509.6600, -61.502
1509.6800, -61.499
1509.7000, -61.507
1509.7200, -61.487
1509.7400, -61.530
1509.7600, -61.448
1509.7800, -61.463
1509.8000, -61.437
1509.8200, -61.494
1509.8400, -61.426
1509.8600, -61.439
1509.8800, -61.416
1509.9000, -61.421
1509.9200, -61.422
1509.9400, -61.411
1509.9600, -61.405
1509.9800, -61.418
1510.0000, -61.399
1510.0200, -61.415
1510.0400, -61.429
1510.0600, -61.384
1510.0800, -61.393
1510.1000, -61.358
1510.1200, -61.420
1510.1400, -61.380
1510.1600, -61.363
1510.1800, -61.391
1510.2000, -61.366
1510.2200, -61.372
1510.2400, -61.315
1510.2600, -61.331
1510.2800, -61.284
1510.3000, -61.305
1510.3200, -61.307
1510.3400, -61.311
1510.3600, -61.280
1510.3800, -61.249
1510.4000, -61.245
1510.4200, -61.256
1510.4400, -61.220
1510.4600, -61.238
1510.4800, -61.207
1510.5000, -61.196
1510.5200, -61.225
1510.5400, -61.172
1510.5600, -61.180
1510.5800, -61.165
1510.6000, -61.134
1510.6200, -61.136
1510.6400, -61.144
1510.6600, -61.130
1510.6800, -61.093
1510.7000, -61.099
1510.7200, -61.106
1510.7400, -61.082
1510.7600, -61.063
1510.7800, -61.090
1510.8000, -61.041
1510.8200, -61.070
1510.8400, -61.032
1510.8600, -61.039
1510.8800, -61.036
1510.9000, -61.024
1510.9200, -61.007
1510.9400, -61.007
1510.9600, -61.003
1510.9800, -60.994
1511.0000, -61.003
1511.0200, -60.985
1511.0400, -60.979
1511.0600, -61.017
1511.0800, -60.968
1511.1000, -60.994
1511.1200, -60.986
1511.1400, -60.958
1511.1600, -60.985
1511.1800, -60.904
1511.2000, -60.873
1511.2200, -60.936
1511.2400, -60.897
1511.2600, -60.899
1511.2800, -60.897
1511.3000, -60.874
1511.3200, -60.868
1511.3400, -60.845
1511.3600, -60.831
1511.3800, -60.851
1511.4000, -60.805
1511.4200, -60.807
1511.4400, -60.756
1511.4600, -60.760
1511.4800, -60.768
1511.5000, -60.766
1511.5200, -60.751
1511.5400, -60.734
1511.5600, -60.712
1511.5800, -60.725
1511.6000, -60.712
1511.6200, -60.706
1511.6400, -60.667
1511.6600, -60.660
1511.6800, -60.668
1511.7000, -60.658
1511.7200, -60.660
1511.7400, -60.621
1511.7600, -60.653
1511.7800, -60.605
1511.8000, -60.617
1511.8200, -60.616
1511.8400, -60.591
1511.8600, -60.570
1511.8800, -60.565
1511.9000, -60.600
1511.9200, -60.567
1511.9400, -60.596
1511.9600, -60.542
1511.9800, -60.566
1512.0000, -60.522
1512.0200, -60.544
1512.0400, -60.555
1512.0600, -60.598
1512.0800, -60.515
1512.1000, -60.524
1512.1200, -60.487
1512.1400, -60.488
1512.1600, -60.453
1512.1800, -60.470
1512.2000, -60.467
1512.2200, -60.425
1512.2400, -60.435
1512.2600, -60.432
1512.2800, -60.431
1512.3000, -60.403
1512.3200, -60.375
1512.3400, -60.395
1512.3600, -60.375
1512.3800, -60.354
1512.4000, -60.303
1512.4200, -60.340
1512.4400, -60.330
1512.4600, -60.332
1512.4800, -60.314
1512.5000, -60.294
1512.5200, -60.282
1512.5400, -60.261
1512.5600, -60.245
1512.5800, -60.259
1512.6000, -60.248
1512.6200, -60.203
1512.6400, -60.201
1512.6600, -60.207
1512.6800, -60.220
1512.7000, -60.195
1512.7200, -60.188
1512.7400, -60.153
1512.7600, -60.182
1512.7800, -60.160
1512.8000, -60.157
1512.8200, -60.139
1512.8400, -60.128
1512.8600, -60.143
1512.8800, -60.112
1512.9000, -60.151
1512.9200, -60.087
1512.9400, -60.102
1512.9600, -60.116
1512.9800, -60.104
1513.0000, -60.128
1513.0200, -60.126
1513.0400, -60.084
1513.0600, -60.056
1513.0800, -60.006
1513.1000, -60.020
1513.1200, -60.018
1513.1400, -60.053
1513.1600, -59.984
1513.1800, -60.010
1513.2000, -60.003
1513.2200, -59.988
1513.2400, -59.959
1513.2600, -59.943
1513.2800, -59.929
1513.3000, -59.924
1513.3200, -59.925
1513.3400, -59.899
1513.3600, -59.840
1513.3800, -59.879
1513.4000, -59.846
1513.4200, -59.868
1513.4400, -59.844
1513.4600, -59.813
1513.4800, -59.814
1513.5000, -59.811
1513.5200, -59.771
1513.5400, -59.793
1513.5600, -59.764
1513.5800, -59.752
1513.6000, -59.741
1513.6200, -59.743
1513.6400, -59.706
1513.6600, -59.727
1513.6800, -59.696
1513.7000, -59.713
1513.7200, -59.697
1513.7400, -59.655
1513.7600, -59.681
1513.7800, -59.675
1513.8000, -59.665
1513.8200, -59.663
1513.8400, -59.668
1513.8600, -59.659
1513.8800, -59.616
1513.9000, -59.619
1513.9200, -59.646
1513.9400, -59.648
1513.9600, -59.642
1513.9800, -59.639
1514.0000, -59.588
1514.0200, -59.565
1514.0400, -59.529
1514.0600, -59.540
1514.0800, -59.537
1514.1000, -59.541
1514.1200, -59.512
1514.1400, -59.524
1514.1600, -59.485
1514.1800, -59.468
1514.2000, -59.464
1514.2200, -59.457
1514.2400, -59.437
1514.2600, -59.441
1514.2800, -59.385
1514.3000, -59.368
1514.3200, -59.385
1514.3400, -59.383
1514.3600, -59.368
1514.3800, -59.344
1514.4000, -59.334
1514.4200, -59.319
1514.4400, -59.322
1514.4600, -59.281
1514.4800, -59.298
1514.5000, -59.260
1514.5200, -59.284
1514.5400, -59.245
1514.5600, -59.251
1514.5800, -59.229
1514.6000, -59.227
1514.6200, -59.222
1514.6400, -59.188
1514.6600, -59.207
1514.6800, -59.189
1514.7000, -59.166
1514.7200, -59.174
1514.7400, -59.161
1514.7600, -59.177
1514.7800, -59.153
1514.8000, -59.155
1514.8200, -59.132
1514.8400, -59.127
1514.8600, -59.158
1514.8800, -59.159
1514.9000, -59.139
1514.9200, -59.128
1514.9400, -59.113
1514.9600, -59.072
1514.9800, -59.036
1515.0000, -59.026
1515.0200, -59.041
1515.0400, -59.007
1515.0600, -59.011
1515.0800, -58.992
1515.1000, -58.970
1515.1200, -58.969
1515.1400, -58.972
1515.1600, -58.936
1515.1800, -58.911
1515.2000, -58.913
1515.2200, -58.884
1515.2400, -58.856
1515.2600, -58.862
1515.2800, -58.839
1515.3000, -58.823
1515.3200, -58.819
1515.3400, -58.798
1515.3600, -58.809
1515.3800, -58.780
1515.4000, -58.759
1515.4200, -58.756
1515.4400, -58.747
1515.4600, -58.743
1515.4800, -58.732
1515.5000, -58.707
1515.5200, -58.690
1515.5400, -58.669
1515.5600, -58.667
1515.5800, -58.661
1515.6000, -58.645
1515.6200, -58.656
1515.6400, -58.618
1515.6600, -58.640
1515.6800, -58.624
1515.7000, -58.607
1515.7200, -58.618
1515.7400, -58.602
1515.7600, -58.574
1515.7800, -58.577
1515.8000, -58.601
1515.8200, -58.609
1515.8400, -58.585
1515.8600, -58.572
1515.8800, -58.548
1515.9000, -58.509
1515.9200, -58.495
1515.9400, -58.469
1515.9600, -58.469
1515.9800, -58.461
1516.0000, -58.442
1516.0200, -58.419
1516.0400, -58.435
1516.0600, -58.384
1516.0800, -58.396
1516.1000, -58.373
1516.1200, -58.346
1516.1400, -58.332
1516.1600, -58.335
1516.1800, -58.292
1516.2000, -58.281
1516.2200, -58.273
1516.2400, -58.269
1516.2600, -58.242
1516.2800, -58.214
1516.3000, -58.215
1516.3200, -58.205
1516.3400, -58.185
1516.3600, -58.169
1516.3800, -58.168
1516.4000, -58.161
1516.4200, -58.143
1516.4400, -58.124
1516.4600, -58.097
1516.4800, -58.091
1516.5000, -58.089
1516.5200, -58.044
1516.5400, -58.042
1516.5600, -58.043
1516.5800, -58.006
1516.6000, -58.019
1516.6200, -58.026
1516.6400, -58.000
1516.6600, -57.991
1516.6800, -57.983
1516.7000, -57.966
1516.7200, -57.952
1516.7400, -57.968
1516.7600, -57.972
1516.7800, -57.959
1516.8000, -57.961
1516.8200, -57.947
1516.8400, -57.899
1516.8600, -57.866
1516.8800, -57.839
1516.9000, -57.839
1516.9200, -57.826
1516.9400, -57.797
1516.9600, -57.791
1516.9800, -57.775
1517.0000, -57.739
1517.0200, -57.749
1517.0400, -57.732
1517.0600, -57.700
1517.0800, -57.709
1517.1000, -57.685
1517.1200, -57.635
1517.1400, -57.639
1517.1600, -57.604
1517.1800, -57.585
1517.2000, -57.604
1517.2200, -57.547
1517.2400, -57.542
1517.2600, -57.542
1517.2800, -57.512
1517.3000, -57.510
1517.3200, -57.506
1517.3400, -57.489
1517.3600, -57.479
1517.3800, -57.466
1517.4000, -57.422
1517.4200, -57.408
1517.4400, -57.387
1517.4600, -57.366
1517.4800, -57.362
1517.5000, -57.347
1517.5200, -57.337
1517.5400, -57.334
1517.5600, -57.309
1517.5800, -57.309
1517.6000, -57.299
1517.6200, -57.275
1517.6400, -57.272
1517.6600, -57.271
1517.6800, -57.272
1517.7000, -57.259
1517.7200, -57.237
1517.7400, -57.225
1517.7600, -57.222
1517.7800, -57.194
1517.8000, -57.144
1517.8200, -57.118
1517.8400, -57.093
1517.8600, -57.096
1517.8800, -57.063
1517.9000, -57.051
1517.9200, -57.033
1517.9400, -57.011
1517.9600, -57.018
1517.9800, -56.993
1518.0000, -56.969
1518.0200, -56.954
1518.0400, -56.934
1518.0600, -56.903
1518.0800, -56.870
1518.1000, -56.840
1518.1200, -56.840
1518.1400, -56.809
1518.1600, -56.796
1518.1800, -56.788
1518.2000, -56.778
1518.2200, -56.738
1518.2400, -56.736
1518.2600, -56.720
1518.2800, -56.725
1518.3000, -56.701
1518.3200, -56.678
1518.3400, -56.644
1518.3600, -56.620
1518.3800, -56.614
1518.4000, -56.591
1518.4200, -56.561
1518.4400, -56.564
1518.4600, -56.530
1518.4800, -56.543
1518.5000, -56.526
1518.5200, -56.517
1518.5400, -56.482
1518.5600, -56.475
1518.5800, -56.459
1518.6000, -56.459
1518.6200, -56.456
1518.6400, -56.439
1518.6600, -56.420
1518.6800, -56.403
1518.7000, -56.391
1518.7200, -56.373
1518.7400, -56.332
1518.7600, -56.304
1518.7800, -56.256
1518.8000, -56.260
1518.8200, -56.228
1518.8400, -56.220
1518.8600, -56.188
1518.8800, -56.172
1518.9000, -56.173
1518.9200, -56.151
1518.9400, -56.107
1518.9600, -56.106
1518.9800, -56.077
1519.0000, -56.044
1519.0200, -56.004
1519.0400, -55.984
1519.0600, -55.974
1519.0800, -55.950
1519.1000, -55.919
1519.1200, -55.906
1519.1400, -55.887
1519.1600, -55.855
1519.1800, -55.836
1519.2000, -55.835
1519.2200, -55.821
1519.2400, -55.799
1519.2600, -55.772
1519.2800, -55.744
1519.3000, -55.709
1519.3200, -55.701
1519.3400, -55.668
1519.3600, -55.652
1519.3800, -55.630
1519.4000, -55.612
1519.4200, -55.610
1519.4400, -55.586
1519.4600, -55.578
1519.4800, -55.545
1519.5000, -55.538
1519.5200, -55.511
1519.5400, -55.507
1519.5600, -55.510
1519.5800, -55.485
1519.6000, -55.456
1519.6200, -55.428
1519.6400, -55.440
1519.6600, -55.397
1519.6800, -55.358
1519.7000, -55.332
1519.7200, -55.294
1519.7400, -55.275
1519.7600, -55.242
1519.7800, -55.233
1519.8000, -55.195
1519.8200, -55.178
1519.8400, -55.172
1519.8600, -55.133
1519.8800, -55.105
1519.9000, -55.089
1519.9200, -55.059
1519.9400, -55.030
1519.9600, -54.987
1519.9800, -54.950
1520.0000, -54.940
1520.0200, -54.908
1520.0400, -54.874
1520.0600, -54.877
1520.0800, -54.829
1520.1000, -54.793
1520.1200, -54.782
1520.1400, -54.761
1520.1600, -54.752
1520.1800, -54.730
1520.2000, -54.694
1520.2200, -54.655
1520.2400, -54.623
1520.2600, -54.615
1520.2800, -54.581
1520.3000, -54.549
1520.3200, -54.538
1520.3400, -54.517
1520.3600, -54.508
1520.3800, -54.488
1520.4000, -54.458
1520.4200, -54.438
1520.4400, -54.423
1520.4600, -54.406
1520.4800, -54.392
1520.5000, -54.372
1520.5200, -54.341
1520.5400, -54.313
1520.5600, -54.288
1520.5800, -54.277
1520.6000, -54.235
1520.6200, -54.207
1520.6400, -54.163
1520.6600, -54.136
1520.6800, -54.110
1520.7000, -54.074
1520.7200, -54.053
1520.7400, -54.010
1520.7600, -53.988
1520.7800, -53.979
1520.8000, -53.930
1520.8200, -53.896
1520.8400, -53.880
1520.8600, -53.838
1520.8800, -53.800
1520.9000, -53.772
1520.9200, -53.720
1520.9400, -53.706
1520.9600, -53.670
1520.9800, -53.647
1521.0000, -53.634
1521.0200, -53.574
1521.0400, -53.542
1521.0600, -53.523
1521.0800, -53.501
1521.1000, -53.490
1521.1200, -53.447
1521.1400, -53.410
1521.1600, -53.366
1521.1800, -53.344
1521.2000, -53.330
1521.2200, -53.291
1521.2400, -53.267
1521.2600, -53.239
1521.2800, -53.225
1521.3000, -53.199
1521.3200, -53.177
1521.3400, -53.146
1521.3600, -53.121
1521.3800, -53.102
1521.4000, -53.079
1521.4200, -53.065
1521.4400, -53.032
1521.4600, -53.014
1521.4800, -52.979
1521.5000, -52.940
1521.5200, -52.932
1521.5400, -52.875
1521.5600, -52.852
1521.5800, -52.806
1521.6000, -52.778
1521.6200, -52.745
1521.6400, -52.716
1521.6600, -52.681
1521.6800, -52.639
1521.7000, -52.618
1521.7200, -52.588
1521.7400, -52.537
1521.7600, -52.497
1521.7800, -52.486
1521.8000, -52.446
1521.8200, -52.396
1521.8400, -52.372
1521.8600, -52.330
1521.8800, -52.306
1521.9000, -52.258
1521.9200, -52.242
1521.9400, -52.215
1521.9600, -52.165
1521.9800, -52.128
1522.0000, -52.095
1522.0200, -52.083
1522.0400, -52.061
1522.0600, -52.015
1522.0800, -51.975
1522.1000, -51.937
1522.1200, -51.923
1522.1400, -51.901
1522.1600, -51.860
1522.1800, -51.829
1522.2000, -51.804
1522.2200, -51.776
1522.2400, -51.748
1522.2600, -51.735
1522.2800, -51.704
1522.3000, -51.671
1522.3200, -51.653
1522.3400, -51.624
1522.3600, -51.610
1522.3800, -51.577
1522.4000, -51.554
1522.4200, -51.519
1522.4400, -51.477
1522.4600, -51.464
1522.4800, -51.415
1522.5000, -51.379
1522.5200, -51.333
1522.5400, -51.316
1522.5600, -51.258
1522.5800, -51.238
1522.6000, -51.205
1522.6200, -51.164
1522.6400, -51.149
1522.6600, -51.116
1522.6800, -51.045
1522.7000, -51.018
1522.7200, -50.994
1522.7400, -50.959
1522.7600, -50.918
1522.7800, -50.879
1522.8000, -50.845
1522.8200, -50.820
1522.8400, -50.767
1522.8600, -50.753
1522.8800, -50.712
1522.9000, -50.663
1522.9200, -50.638
1522.9400, -50.605
1522.9600, -50.591
1522.9800, -50.568
1523.0000, -50.527
1523.0200, -50.479
1523.0400, -50.445
1523.0600, -50.441
1523.0800, -50.404
1523.1000, -50.382
1523.1200, -50.345
1523.1400, -50.313
1523.1600, -50.294
1523.1800, -50.270
1523.2000, -50.258
1523.2200, -50.222
1523.2400, -50.196
1523.2600, -50.172
1523.2800, -50.153
1523.3000, -50.127
1523.3200, -50.106
1523.3400, -50.079
1523.3600, -50.046
1523.3800, -50.004
1523.4000, -49.975
1523.4200, -49.943
1523.4400, -49.900
1523.4600, -49.880
1523.4800, -49.837
1523.5000, -49.812
1523.5200, -49.776
1523.5400, -49.738
1523.5600, -49.703
1523.5800, -49.690
1523.6000, -49.637
1523.6200, -49.586
1523.6400, -49.568
1523.6600, -49.522
1523.6800, -49.490
1523.7000, -49.471
1523.7200, -49.418
1523.7400, -49.402
1523.7600, -49.364
1523.7800, -49.330
1523.8000, -49.304
1523.8200, -49.256
1523.8400, -49.215
1523.8600, -49.201
1523.8800, -49.158
1523.9000, -49.159
1523.9200, -49.131
1523.9400, -49.090
1523.9600, -49.042
1523.9800, -49.010
1524.0000, -49.007
1524.0200, -48.972
1524.0400, -48.951
1524.0600, -48.926
1524.0800, -48.893
1524.1000, -48.871
1524.1200, -48.852
1524.1400, -48.829
1524.1600, -48.810
1524.1800, -48.789
1524.2000, -48.761
1524.2200, -48.735
1524.2400, -48.726
1524.2600, -48.710
1524.2800, -48.685
1524.3000, -48.651
1524.3200, -48.610
1524.3400, -48.574
1524.3600, -48.544
1524.3800, -48.514
1524.4000, -48.501
1524.4200, -48.443
1524.4400, -48.420
1524.4600, -48.398
1524.4800, -48.356
1524.5000, -48.338
1524.5200, -48.308
1524.5400, -48.271
1524.5600, -48.223
1524.5800, -48.205
1524.6000, -48.167
1524.6200, -48.141
1524.6400, -48.113
1524.6600, -48.066
1524.6800, -48.054
1524.7000, -48.007
1524.7200, -47.989
1524.7400, -47.943
1524.7600, -47.922
1524.7800, -47.862
1524.8000, -47.845
1524.8200, -47.835
1524.8400, -47.818
1524.8600, -47.792
1524.8800, -47.741
1524.9000, -47.701
1524.9200, -47.685
1524.9400, -47.656
1524.9600, -47.647
1524.9800, -47.617
1525.0000, -47.606
1525.0200, -47.576
1525.0400, -47.548
1525.0600, -47.545
1525.0800, -47.518
1525.1000, -47.489
1525.1200, -47.476
1525.1400, -47.441
1525.1600, -47.442
1525.1800, -47.434
1525.2000, -47.405
1525.2200, -47.384
1525.2400, -47.346
1525.2600, -47.327
1525.2800, -47.291
1525.3000, -47.246
1525.3200, -47.231
1525.3400, -47.190
1525.3600, -47.137
1525.3800, -47.127
1525.4000, -47.096
1525.4200, -47.042
1525.4400, -47.025
1525.4600, -46.984
1525.4800, -46.943
1525.5000, -46.925
1525.5200, -46.884
1525.5400, -46.855
1525.5600, -46.854
1525.5800, -46.793
1525.6000, -46.779
1525.6200, -46.755
1525.6400, -46.697
1525.6600, -46.680
1525.6800, -46.637
1525.7000, -46.600
1525.7200, -46.583
1525.7400, -46.564
1525.7600, -46.549
1525.7800, -46.517
1525.8000, -46.486
1525.8200, -46.433
1525.8400, -46.416
1525.8600, -46.402
1525.8800, -46.372
1525.9000, -46.360
1525.9200, -46.342
1525.9400, -46.306
1525.9600, -46.284
1525.9800, -46.262
1526.0000, -46.248
1526.0200, -46.239
1526.0400, -46.227
1526.0600, -46.189
1526.0800, -46.185
1526.1000, -46.186
1526.1200, -46.176
1526.1400, -46.147
1526.1600, -46.113
1526.1800, -46.062
1526.2000, -46.027
1526.2200, -45.996
1526.2400, -45.988
1526.2600, -45.956
1526.2800, -45.889
1526.3000, -45.883
1526.3200, -45.872
1526.3400, -45.818
1526.3600, -45.769
1526.3800, -45.744
1526.4000, -45.724
1526.4200, -45.714
1526.4400, -45.671
1526.4600, -45.614
1526.4800, -45.607
1526.5000, -45.576
1526.5200, -45.540
1526.5400, -45.537
1526.5600, -45.478
1526.5800, -45.433
1526.6000, -45.397
1526.6200, -45.394
1526.6400, -45.381
1526.6600, -45.340
1526.6800, -45.288
1526.7000, -45.258
1526.7200, -45.240
1526.7400, -45.251
1526.7600, -45.222
1526.7800, -45.169
1526.8000, -45.144
1526.8200, -45.156
1526.8400, -45.120
1526.8600, -45.099
1526.8800, -45.084
1526.9000, -45.068
1526.9200, -45.029
1526.9400, -45.040
1526.9600, -45.009
1526.9800, -44.987
1527.0000, -44.970
1527.0200, -44.958
1527.0400, -44.976
1527.0600, -44.997
1527.0800, -44.926
1527.1000, -44.867
1527.1200, -44.847
1527.1400, -44.791
1527.1600, -44.757
1527.1800, -44.746
1527.2000, -44.708
1527.2200, -44.671
1527.2400, -44.666
1527.2600, -44.636
1527.2800, -44.573
1527.3000, -44.527
1527.3200, -44.502
1527.3400, -44.493
1527.3600, -44.492
1527.3800, -44.428
1527.4000, -44.402
1527.4200, -44.374
1527.4400, -44.332
1527.4600, -44.330
1527.4800, -44.297
1527.5000, -44.224
1527.5200, -44.190
1527.5400, -44.172
1527.5600, -44.177
1527.5800, -44.159
1527.6000, -44.095
1527.6200, -44.070
1527.6400, -44.036
1527.6600, -44.039
1527.6800, -44.029
1527.7000, -43.958
1527.7200, -43.933
1527.7400, -43.934
1527.7600, -43.930
1527.7800, -43.897
1527.8000, -43.878
1527.8200, -43.889
1527.8400, -43.826
1527.8600, -43.819
1527.8800, -43.821
1527.9000, -43.804
1527.9200, -43.782
1527.9400, -43.763
1527.9600, -43.760
1527.9800, -43.813
1528.0000, -43.768
1528.0200, -43.687
1528.0400, -43.669
1528.0600, -43.645
1528.0800, -43.592
1528.1000, -43.580
1528.1200, -43.538
1528.1400, -43.501
1528.1600, -43.499
1528.1800, -43.478
1528.2000, -43.415
1528.2200, -43.380
1528.2400, -43.326
1528.2600, -43.339
1528.2800, -43.338
1528.3000, -43.280
1528.3200, -43.243
1528.3400, -43.224
1528.3600, -43.166
1528.3800, -43.170
1528.4000, -43.161
1528.4200, -43.087
1528.4400, -43.046
1528.4600, -43.018
1528.4800, -43.042
1528.5000, -43.033
1528.5200, -42.964
1528.5400, -42.939
1528.5600, -42.918
1528.5800, -42.897
1528.6000, -42.905
1528.6200, -42.864
1528.6400, -42.814
1528.6600, -42.801
1528.6800, -42.819
1528.7000, -42.782
1528.7200, -42.773
1528.7400, -42.780
1528.7600, -42.745
1528.7800, -42.722
1528.8000, -42.731
1528.8200, -42.706
1528.8400, -42.696
1528.8600, -42.677
1528.8800, -42.677
1528.9000, -42.738
1528.9200, -42.737
1528.9400, -42.653
1528.9600, -42.580
1528.9800, -42.544
1529.0000, -42.575
1529.0200, -42.537
1529.0400, -42.481
1529.0600, -42.443
1529.0800, -42.439
1529.1000, -42.411
1529.1200, -42.374
1529.1400, -42.328
1529.1600, -42.289
1529.1800, -42.278
1529.2000, -42.275
1529.2200, -42.248
1529.2400, -42.196
1529.2600, -42.177
1529.2800, -42.126
1529.3000, -42.127
1529.3200, -42.110
1529.3400, -42.067
1529.3600, -42.029
1529.3800, -41.979
1529.4000, -41.996
1529.4200, -41.988
1529.4400, -41.943
1529.4600, -41.905
1529.4800, -41.894
1529.5000, -41.862
1529.5200, -41.888
1529.5400, -41.861
1529.5600, -41.802
1529.5800, -41.790
1529.6000, -41.806
1529.6200, -41.786
1529.6400, -41.771
1529.6600, -41.770
1529.6800, -41.749
1529.7000, -41.731
1529.7200, -41.736
1529.7400, -41.730
1529.7600, -41.720
1529.7800, -41.699
1529.8000, -41.689
1529.8200, -41.741
1529.8400, -41.751
1529.8600, -41.710
1529.8800, -41.622
1529.9000, -41.610
1529.9200, -41.568
1529.9400, -41.558
1529.9600, -41.537
1529.9800, -41.488
1530.0000, -41.505
1530.0200, -41.461
1530.0400, -41.439
1530.0600, -41.393
1530.0800, -41.382
1530.1000, -41.314
1530.1200, -41.337
1530.1400, -41.332
1530.1600, -41.288
1530.1800, -41.259
1530.2000, -41.217
1530.2200, -41.223
1530.2400, -41.215
1530.2600, -41.176
1530.2800, -41.138
1530.3000, -41.110
1530.3200, -41.067
1530.3400, -41.060
1530.3600, -41.067
1530.3800, -41.052
1530.4000, -41.073
1530.4200, -41.013
1530.4400, -41.000
1530.4600, -40.973
1530.4800, -40.932
1530.5000, -40.940
1530.5200, -40.931
1530.5400, -40.944
1530.5600, -40.916
1530.5800, -40.919
1530.6000, -40.910
1530.6200, -40.889
1530.6400, -40.892
1530.6600, -40.913
1530.6800, -40.885
1530.7000, -40.882
1530.7200, -40.888
1530.7400, -40.897
1530.7600, -40.913
1530.7800, -40.897
1530.8000, -40.835
1530.8200, -40.852
1530.8400, -40.814
1530.8600, -40.782
1530.8800, -40.769
1530.9000, -40.729
1530.9200, -40.765
1530.9400, -40.736
1530.9600, -40.693
1530.9800, -40.685
1531.0000, -40.685
1531.0200, -40.637
1531.0400, -40.623
1531.0600, -40.618
1531.0800, -40.608
1531.1000, -40.561
1531.1200, -40.543
1531.1400, -40.524
1531.1600, -40.549
1531.1800, -40.485
1531.2000, -40.468
1531.2200, -40.463
1531.2400, -40.413
1531.2600, -40.414
1531.2800, -40.402
1531.3000, -40.376
1531.3200, -40.396
1531.3400, -40.374
1531.3600, -40.360
1531.3800, -40.350
1531.4000, -40.350
1531.4200, -40.352
1531.4400, -40.329
1531.4600, -40.370
1531.4800, -40.346
1531.5000, -40.368
1531.5200, -40.359
1531.5400, -40.372
1531.5600, -40.361
1531.5800, -40.391
1531.6000, -40.382
1531.6200, -40.414
1531.6400, -40.418
1531.6600, -40.410
1531.6800, -40.402
1531.7000, -40.403
1531.7200, -40.386
1531.7400, -40.406
1531.7600, -40.392
1531.7800, -40.365
1531.8000, -40.365
1531.8200, -40.336
1531.8400, -40.340
1531.8600, -40.357
1531.8800, -40.295
1531.9000, -40.293
1531.9200, -40.310
1531.9400, -40.291
1531.9600, -40.282
1531.9800, -40.274
1532.0000, -40.288
1532.0200, -40.264
1532.0400, -40.265
1532.0600, -40.228
1532.0800, -40.284
1532.1000, -40.231
1532.1200, -40.233
1532.1400, -40.246
1532.1600, -40.223
1532.1800, -40.223
1532.2000, -40.213
1532.2200, -40.214
1532.2400, -40.243
1532.2600, -40.229
1532.2800, -40.212
1532.3000, -40.217
1532.3200, -40.232
1532.3400, -40.243
1532.3600, -40.223
1532.3800, -40.254
1532.4000, -40.256
1532.4200, -40.273
1532.4400, -40.295
1532.4600, -40.310
1532.4800, -40.303
1532.5000, -40.337
1532.5200, -40.340
1532.5400, -40.362
1532.5600, -40.394
1532.5800, -40.396
1532.6000, -40.391
1532.6200, -40.405
1532.6400, -40.413
1532.6600, -40.428
1532.6800, -40.402
1532.7000, -40.412
1532.7200, -40.413
1532.7400, -40.402
1532.7600, -40.390
1532.7800, -40.449
1532.8000, -40.401
1532.8200, -40.401
1532.8400, -40.434
1532.8600, -40.444
1532.8800, -40.431
1532.9000, -40.430
1532.9200, -40.461
1532.9400, -40.444
1532.9600, -40.455
1532.9800, -40.429
1533.0000, -40.492
1533.0200, -40.462
1533.0400, -40.461
1533.0600, -40.483
1533.0800, -40.482
1533.1000, -40.500
1533.1200, -40.482
1533.1400, -40.505
1533.1600, -40.557
1533.1800, -40.559
1533.2000, -40.538
1533.2200, -40.552
1533.2400, -40.582
1533.2600, -40.603
1533.2800, -40.604
1533.3000, -40.659
1533.3200, -40.645
1533.3400, -40.680
1533.3600, -40.702
1533.3800, -40.737
1533.4000, -40.763
1533.4200, -40.793
1533.4400, -40.807
1533.4600, -40.855
1533.4800, -40.896
1533.5000, -40.892
1533.5200, -40.904
1533.5400, -40.923
1533.5600, -40.951
1533.5800, -41.007
1533.6000, -41.012
1533.6200, -41.019
1533.6400, -40.998
1533.6600, -41.020
1533.6800, -41.044
1533.7000, -41.112
1533.7200, -41.079
1533.7400, -41.100
1533.7600, -41.121
1533.7800, -41.125
1533.8000, -41.145
1533.8200, -41.151
1533.8400, -41.204
1533.8600, -41.195
1533.8800, -41.207
1533.9000, -41.210
1533.9200, -41.278
1533.9400, -41.256
1533.9600, -41.278
1533.9800, -41.296
1534.0000, -41.319
1534.0200, -41.338
1534.0400, -41.330
1534.0600, -41.358
1534.0800, -41.408
1534.1000, -41.425
1534.1200, -41.427
1534.1400, -41.457
1534.1600, -41.496
1534.1800, -41.527
1534.2000, -41.544
1534.2200, -41.602
1534.2400, -41.604
1534.2600, -41.646
1534.2800, -41.675
1534.3000, -41.712
1534.3200, -41.749
1534.3400, -41.801
1534.3600, -41.816
1534.3800, -41.859
1534.4000, -41.894
1534.4200, -41.915
1534.4400, -41.930
1534.4600, -41.969
1534.4800, -41.991
1534.5000, -42.034
1534.5200, -42.073
1534.5400, -42.071
1534.5600, -42.082
1534.5800, -42.105
1534.6000, -42.141
1534.6200, -42.199
1534.6400, -42.174
1534.6600, -42.204
1534.6800, -42.217
1534.7000, -42.238
1534.7200, -42.267
1534.7400, -42.282
1534.7600, -42.322
1534.7800, -42.326
1534.8000, -42.341
1534.8200, -42.362
1534.8400, -42.445
1534.8600, -42.426
1534.8800, -42.442
1534.9000, -42.469
1534.9200, -42.499
1534.9400, -42.511
1534.9600, -42.531
1534.9800, -42.549
1535.0000, -42.609
1535.0200, -42.616
1535.0400, -42.636
1535.0600, -42.671
1535.0800, -42.715
1535.1000, -42.735
1535.1200, -42.760
1535.1400, -42.815
1535.1600, -42.827
1535.1800, -42.873
1535.2000, -42.909
1535.2200, -42.942
1535.2400, -42.976
1535.2600, -43.032
1535.2800, -43.054
1535.3000, -43.101
1535.3200, -43.136
1535.3400, -43.174
1535.3600, -43.214
1535.3800, -43.247
1535.4000, -43.242
1535.4200, -43.283
1535.4400, -43.319
1535.4600, -43.336
1535.4800, -43.347
1535.5000, -43.384
1535.5200, -43.411
1535.5400, -43.450
1535.5600, -43.455
1535.5800, -43.475
1535.6000, -43.495
1535.6200, -43.519
1535.6400, -43.543
1535.6600, -43.561
1535.6800, -43.587
1535.7000, -43.602
1535.7200, -43.630
1535.7400, -43.655
1535.7600, -43.710
1535.7800, -43.709
1535.8000, -43.725
1535.8200, -43.744
1535.8400, -43.773
1535.8600, -43.791
1535.8800, -43.809
1535.9000, -43.833
1535.9200, -43.875
1535.9400, -43.884
1535.9600, -43.907
1535.9800, -43.947
1536.0000, -43.978
1536.0200, -44.003
1536.0400, -44.039
1536.0600, -44.086
1536.0800, -44.095
1536.1000, -44.130
1536.1200, -44.160
1536.1400, -44.184
1536.1600, -44.237
1536.1800, -44.282
1536.2000, -44.295
1536.2200, -44.335
1536.2400, -44.356
1536.2600, -44.398
1536.2800, -44.437
1536.3000, -44.448
1536.3200, -44.450
1536.3400, -44.491
1536.3600, -44.522
1536.3800, -44.531
1536.4000, -44.546
1536.4200, -44.570
1536.4400, -44.596
1536.4600, -44.618
1536.4800, -44.636
1536.5000, -44.649
1536.5200, -44.649
1536.5400, -44.671
1536.5600, -44.692
1536.5800, -44.709
1536.6000, -44.722
1536.6200, -44.727
1536.6400, -44.756
1536.6600, -44.788
1536.6800, -44.812
1536.7000, -44.816
1536.7200, -44.825
1536.7400, -44.843
1536.7600, -44.862
1536.7800, -44.869
1536.8000, -44.881
1536.8200, -44.892
1536.8400, -44.930
1536.8600, -44.930
1536.8800, -44.962
1536.9000, -45.003
1536.9200, -45.022
1536.9400, -45.039
1536.9600, -45.077
1536.9800, -45.096
1537.0000, -45.104
1537.0200, -45.136
1537.0400, -45.164
1537.0600, -45.183
1537.0800, -45.226
1537.1000, -45.245
1537.1200, -45.256
1537.1400, -45.287
1537.1600, -45.302
1537.1800, -45.338
1537.2000, -45.356
1537.2200, -45.366
1537.2400, -45.375
1537.2600, -45.403
1537.2800, -45.423
1537.3000, -45.411
1537.3200, -45.429
1537.3400, -45.445
1537.3600, -45.476
1537.3800, -45.478
1537.4000, -45.493
1537.4200, -45.504
1537.4400, -45.501
1537.4600, -45.517
1537.4800, -45.520
1537.5000, -45.535
1537.5200, -45.539
1537.5400, -45.535
1537.5600, -45.559
1537.5800, -45.593
1537.6000, -45.600
1537.6200, -45.595
1537.6400, -45.592
1537.6600, -45.605
1537.6800, -45.618
1537.7000, -45.618
1537.7200, -45.619
1537.7400, -45.646
1537.7600, -45.659
1537.7800, -45.656
1537.8000, -45.681
1537.8200, -45.701
1537.8400, -45.713
1537.8600, -45.731
1537.8800, -45.763
1537.9000, -45.766
1537.9200, -45.776
1537.9400, -45.800
1537.9600, -45.809
1537.9800, -45.832
1538.0000, -45.856
1538.0200, -45.869
1538.0400, -45.878
1538.0600, -45.900
1538.0800, -45.912
1538.1000, -45.941
1538.1200, -45.952
1538.1400, -45.947
1538.1600, -45.957
1538.1800, -45.961
1538.2000, -45.968
1538.2200, -45.964
1538.2400, -45.982
1538.2600, -45.980
1538.2800, -46.003
1538.3000, -45.995
1538.3200, -46.003
1538.3400, -45.999
1538.3600, -46.002
1538.3800, -46.007
1538.4000, -46.012
1538.4200, -46.022
1538.4400, -46.015
1538.4600, -46.015
1538.4800, -46.024
1538.5000, -46.047
1538.5200, -46.036
1538.5400, -46.037
1538.5600, -46.036
1538.5800, -46.050
1538.6000, -46.042
1538.6200, -46.048
1538.6400, -46.055
1538.6600, -46.071
1538.6800, -46.080
1538.7000, -46.074
1538.7200, -46.072
1538.7400, -46.090
1538.7600, -46.093
1538.7800, -46.098
1538.8000, -46.118
1538.8200, -46.120
1538.8400, -46.131
1538.8600, -46.147
1538.8800, -46.158
1538.9000, -46.162
1538.9200, -46.174
1538.9400, -46.176
1538.9600, -46.196
1538.9800, -46.220
1539.0000, -46.225
1539.0200, -46.228
1539.0400, -46.233
1539.0600, -46.242
1539.0800, -46.240
1539.1000, -46.241
1539.1200, -46.232
1539.1400, -46.218
1539.1600, -46.216
1539.1800, -46.229
1539.2000, -46.227
1539.2200, -46.215
1539.2400, -46.222
1539.2600, -46.222
1539.2800, -46.222
1539.3000, -46.215
1539.3200, -46.234
1539.3400, -46.199
1539.3600, -46.212
1539.3800, -46.204
1539.4000, -46.208
1539.4200, -46.214
1539.4400, -46.200
1539.4600, -46.211
1539.4800, -46.207
1539.5000, -46.212
1539.5200, -46.185
1539.5400, -46.204
1539.5600, -46.240
1539.5800, -46.258
1539.6000, -46.240
1539.6200, -46.204
1539.6400, -46.196
1539.6600, -46.218
1539.6800, -46.216
1539.7000, -46.225
1539.7200, -46.225
1539.7400, -46.229
1539.7600, -46.244
1539.7800, -46.243
1539.8000, -46.255
1539.8200, -46.268
1539.8400, -46.261
1539.8600, -46.269
1539.8800, -46.278
1539.9000, -46.291
1539.9200, -46.272
1539.9400, -46.281
1539.9600, -46.294
1539.9800, -46.322
1540.0000, -46.280
1540.0200, -46.274
1540.0400, -46.278
1540.0600, -46.263
1540.0800, -46.266
1540.1000, -46.272
1540.1200, -46.267
1540.1400, -46.261
1540.1600, -46.267
1540.1800, -46.259
1540.2000, -46.247
1540.2200, -46.239
1540.2400, -46.240
1540.2600, -46.222
1540.2800, -46.219
1540.3000, -46.206
1540.3200, -46.214
1540.3400, -46.215
1540.3600, -46.192
1540.3800, -46.196
1540.4000, -46.189
1540.4200, -46.186
1540.4400, -46.171
1540.4600, -46.194
1540.4800, -46.213
1540.5000, -46.208
1540.5200, -46.179
1540.5400, -46.159
1540.5600, -46.164
1540.5800, -46.172
1540.6000, -46.165
1540.6200, -46.179
1540.6400, -46.171
1540.6600, -46.175
1540.6800, -46.166
1540.7000, -46.178
1540.7200, -46.183
1540.7400, -46.197
1540.7600, -46.186
1540.7800, -46.192
1540.8000, -46.219
1540.8200, -46.205
1540.8400, -46.191
1540.8600, -46.187
1540.8800, -46.209
1540.9000, -46.212
1540.9200, -46.176
1540.9400, -46.180
1540.9600, -46.164
1540.9800, -46.151
1541.0000, -46.163
1541.0200, -46.167
1541.0400, -46.147
1541.0600, -46.135
1541.0800, -46.146
1541.1000, -46.129
1541.1200, -46.119
1541.1400, -46.119
1541.1600, -46.094
1541.1800, -46.094
1541.2000, -46.083
1541.2200, -46.080
1541.2400, -46.086
1541.2600, -46.064
1541.2800, -46.065
1541.3000, -46.059
1541.3200, -46.060
1541.3400, -46.034
1541.3600, -46.042
1541.3800, -46.070
1541.4000, -46.079
1541.4200, -46.063
1541.4400, -46.021
1541.4600, -46.023
1541.4800, -46.018
1541.5000, -46.017
1541.5200, -46.027
1541.5400, -46.017
1541.5600, -46.017
1541.5800, -46.017
1541.6000, -46.012
1541.6200, -46.025
1541.6400, -46.041
1541.6600, -46.034
1541.6800, -46.038
1541.7000, -46.042
1541.7200, -46.059
1541.7400, -46.034
1541.7600, -46.023
1541.7800, -46.039
1541.8000, -46.066
1541.8200, -46.027
1541.8400, -46.028
1541.8600, -46.014
1541.8800, -45.996
1541.9000, -45.991
1541.9200, -45.996
1541.9400, -45.982
1541.9600, -45.968
1541.9800, -45.967
1542.0000, -45.968
1542.0200, -45.956
1542.0400, -45.939
1542.0600, -45.941
1542.0800, -45.931
1542.1000, -45.918
1542.1200, -45.900
1542.1400, -45.911
1542.1600, -45.900
1542.1800, -45.888
1542.2000, -45.888
1542.2200, -45.885
1542.2400, -45.879
1542.2600, -45.853
1542.2800, -45.881
1542.3000, -45.892
1542.3200, -45.886
1542.3400, -45.843
1542.3600, -45.838
1542.3800, -45.839
1542.4000, -45.838
1542.4200, -45.834
1542.4400, -45.832
1542.4600, -45.829
1542.4800, -45.834
1542.5000, -45.830
1542.5200, -45.832
1542.5400, -45.845
1542.5600, -45.843
1542.5800, -45.838
1542.6000, -45.840
1542.6200, -45.860
1542.6400, -45.831
1542.6600, -45.811
1542.6800, -45.823
1542.7000, -45.851
1542.7200, -45.840
1542.7400, -45.834
1542.7600, -45.824
1542.7800, -45.805
1542.8000, -45.787
1542.8200, -45.802
1542.8400, -45.804
1542.8600, -45.772
1542.8800, -45.772
1542.9000, -45.767
1542.9200, -45.760
1542.9400, -45.738
1542.9600, -45.746
1542.9800, -45.735
1543.0000, -45.721
1543.0200, -45.706
1543.0400, -45.716
1543.0600, -45.700
1543.0800, -45.684
1543.1000, -45.686
1543.1200, -45.682
1543.1400, -45.685
1543.1600, -45.648
1543.1800, -45.672
1543.2000, -45.691
1543.2200, -45.694
1543.2400, -45.669
1543.2600, -45.625
1543.2800, -45.644
1543.3000, -45.650
1543.3200, -45.642
1543.3400, -45.653
1543.3600, -45.645
1543.3800, -45.645
1543.4000, -45.653
1543.4200, -45.661
1543.4400, -45.659
1543.4600, -45.678
1543.4800, -45.663
1543.5000, -45.666
1543.5200, -45.671
1543.5400, -45.682
1543.5600, -45.660
1543.5800, -45.665
1543.6000, -45.688
1543.6200, -45.689
1543.6400, -45.680
1543.6600, -45.661
1543.6800, -45.646
1543.7000, -45.638
1543.7200, -45.634
1543.7400, -45.640
1543.7600, -45.613
1543.7800, -45.614
1543.8000, -45.601
1543.8200, -45.605
1543.8400, -45.591
1543.8600, -45.584
1543.8800, -45.580
1543.9000, -45.569
1543.9200, -45.568
1543.9400, -45.563
1543.9600, -45.574
1543.9800, -45.548
1544.0000, -45.549
1544.0200, -45.541
1544.0400, -45.545
1544.0600, -45.517
1544.0800, -45.518
1544.1000, -45.531
1544.1200, -45.547
1544.1400, -45.525
1544.1600, -45.499
1544.1800, -45.516
1544.2000, -45.514
1544.2200, -45.514
1544.2400, -45.517
1544.2600, -45.521
1544.2800, -45.514
1544.3000, -45.514
1544.3200, -45.528
1544.3400, -45.532
1544.3600, -45.534
1544.3800, -45.538
1544.4000, -45.540
1544.4200, -45.563
1544.4400, -45.552
1544.4600, -45.554
1544.4800, -45.553
1544.5000, -45.540
1544.5200, -45.545
1544.5400, -45.548
1544.5600, -45.538
1544.5800, -45.518
1544.6000, -45.516
1544.6200, -45.510
1544.6400, -45.531
1544.6600, -45.506
1544.6800, -45.498
1544.7000, -45.491
1544.7200, -45.494
1544.7400, -45.481
1544.7600, -45.468
1544.7800, -45.473
1544.8000, -45.460
1544.8200, -45.457
1544.8400, -45.452
1544.8600, -45.468
1544.8800, -45.437
1544.9000, -45.440
1544.9200, -45.429
1544.9400, -45.436
1544.9600, -45.406
1544.9800, -45.413
1545.0000, -45.408
1545.0200, -45.429
1545.0400, -45.422
1545.0600, -45.412
1545.0800, -45.404
1545.1000, -45.417
1545.1200, -45.416
1545.1400, -45.417
1545.1600, -45.432
1545.1800, -45.427
1545.2000, -45.432
1545.2200, -45.436
1545.2400, -45.448
1545.2600, -45.453
1545.2800, -45.462
1545.3000, -45.456
1545.3200, -45.470
1545.3400, -45.487
1545.3600, -45.476
1545.3800, -45.467
1545.4000, -45.471
1545.4200, -45.463
1545.4400, -45.456
1545.4600, -45.445
1545.4800, -45.446
1545.5000, -45.457
1545.5200, -45.446
1545.5400, -45.463
1545.5600, -45.436
1545.5800, -45.427
1545.6000, -45.435
1545.6200, -45.426
1545.6400, -45.425
1545.6600, -45.406
1545.6800, -45.409
1545.7000, -45.398
1545.7200, -45.397
1545.7400, -45.396
1545.7600, -45.413
1545.7800, -45.388
1545.8000, -45.380
1545.8200, -45.375
1545.8400, -45.383
1545.8600, -45.367
1545.8800, -45.360
1545.9000, -45.355
1545.9200, -45.381
1545.9400, -45.367
1545.9600, -45.351
1545.9800, -45.343
1546.0000, -45.361
1546.0200, -45.364
1546.0400, -45.368
1546.0600, -45.388
1546.0800, -45.377
1546.1000, -45.378
1546.1200, -45.375
1546.1400, -45.387
1546.1600, -45.393
1546.1800, -45.410
1546.2000, -45.403
1546.2200, -45.412
1546.2400, -45.406
1546.2600, -45.416
1546.2800, -45.422
1546.3000, -45.418
1546.3200, -45.400
1546.3400, -45.412
1546.3600, -45.423
1546.3800, -45.408
1546.4000, -45.413
1546.4200, -45.405
1546.4400, -45.429
1546.4600, -45.400
1546.4800, -45.388
1546.5000, -45.394
1546.5200, -45.378
1546.5400, -45.384
1546.5600, -45.360
1546.5800, -45.371
1546.6000, -45.370
1546.6200, -45.360
1546.6400, -45.362
1546.6600, -45.387
1546.6800, -45.358
1546.7000, -45.341
1546.7200, -45.343
1546.7400, -45.350
1546.7600, -45.329
1546.7800, -45.316
1546.8000, -45.312
1546.8200, -45.332
1546.8400, -45.328
1546.8600, -45.315
1546.8800, -45.316
1546.9000, -45.337
1546.9200, -45.336
1546.9400, -45.328
1546.9600, -45.359
1546.9800, -45.345
1547.0000, -45.337
1547.0200, -45.346
1547.0400, -45.356
1547.0600, -45.361
1547.0800, -45.384
1547.1000, -45.378
1547.1200, -45.394
1547.1400, -45.377
1547.1600, -45.388
1547.1800, -45.394
1547.2000, -45.390
1547.2200, -45.373
1547.2400, -45.390
1547.2600, -45.394
1547.2800, -45.390
1547.3000, -45.394
1547.3200, -45.381
1547.3400, -45.405
1547.3600, -45.381
1547.3800, -45.371
1547.4000, -45.358
1547.4200, -45.353
1547.4400, -45.364
1547.4600, -45.343
1547.4800, -45.345
1547.5000, -45.331
1547.5200, -45.340
1547.5400, -45.342
1547.5600, -45.364
1547.5800, -45.339
1547.6000, -45.330
1547.6200, -45.326
1547.6400, -45.335
1547.6600, -45.328
1547.6800, -45.320
1547.7000, -45.305
1547.7200, -45.316
1547.7400, -45.307
1547.7600, -45.311
1547.7800, -45.308
1547.8000, -45.325
1547.8200, -45.327
1547.8400, -45.330
1547.8600, -45.352
1547.8800, -45.338
1547.9000, -45.343
1547.9200, -45.344
1547.9400, -45.351
1547.9600, -45.360
1547.9800, -45.385
1548.0000, -45.381
1548.0200, -45.376
1548.0400, -45.376
1548.0600, -45.386
1548.0800, -45.383
1548.1000, -45.394
1548.1200, -45.379
1548.1400, -45.398
1548.1600, -45.397
1548.1800, -45.371
1548.2000, -45.387
1548.2200, -45.384
1548.2400, -45.406
1548.2600, -45.386
1548.2800, -45.393
1548.3000, -45.382
1548.3200, -45.362
1548.3400, -45.361
1548.3600, -45.358
1548.3800, -45.354
1548.4000, -45.344
1548.4200, -45.340
1548.4400, -45.339
1548.4600, -45.356
1548.4800, -45.347
1548.5000, -45.325
1548.5200, -45.325
1548.5400, -45.320
1548.5600, -45.324
1548.5800, -45.316
1548.6000, -45.309
1548.6200, -45.330
1548.6400, -45.316
1548.6600, -45.317
1548.6800, -45.319
1548.7000, -45.323
1548.7200, -45.320
1548.7400, -45.328
1548.7600, -45.346
1548.7800, -45.339
1548.8000, -45.344
1548.8200, -45.349
1548.8400, -45.348
1548.8600, -45.377
1548.8800, -45.382
1548.9000, -45.375
1548.9200, -45.374
1548.9400, -45.383
1548.9600, -45.401
1548.9800, -45.399
1549.0000, -45.408
1549.0200, -45.391
1549.0400, -45.394
1549.0600, -45.386
1549.0800, -45.381
1549.1000, -45.374
1549.1200, -45.372
1549.1400, -45.395
1549.1600, -45.394
1549.1800, -45.375
1549.2000, -45.362
1549.2200, -45.353
1549.2400, -45.357
1549.2600, -45.357
1549.2800, -45.357
1549.3000, -45.347
1549.3200, -45.348
1549.3400, -45.339
1549.3600, -45.350
1549.3800, -45.355
1549.4000, -45.327
1549.4200, -45.319
1549.4400, -45.318
1549.4600, -45.334
1549.4800, -45.338
1549.5000, -45.325
1549.5200, -45.332
1549.5400, -45.329
1549.5600, -45.340
1549.5800, -45.325
1549.6000, -45.327
1549.6200, -45.323
1549.6400, -45.342
1549.6600, -45.360
1549.6800, -45.352
1549.7000, -45.358
1549.7200, -45.352
1549.7400, -45.357
1549.7600, -45.379
1549.7800, -45.391
1549.8000, -45.391
1549.8200, -45.396
1549.8400, -45.407
1549.8600, -45.432
1549.8800, -45.438
1549.9000, -45.439
1549.9200, -45.414
1549.9400, -45.408
1549.9600, -45.409
1549.9800, -45.418
1550.0000, -45.394
1550.0200, -45.400
1550.0400, -45.404
1550.0600, -45.412
1550.0800, -45.386
1550.1000, -45.372
1550.1200, -45.365
1550.1400, -45.370
1550.1600, -45.376
1550.1800, -45.370
1550.2000, -45.377
1550.2200, -45.374
1550.2400, -45.360
1550.2600, -45.372
1550.2800, -45.377
1550.3000, -45.342
1550.3200, -45.339
1550.3400, -45.350
1550.3600, -45.349
1550.3800, -45.361
1550.4000, -45.344
1550.4200, -45.352
1550.4400, -45.334
1550.4600, -45.348
1550.4800, -45.340
1550.5000, -45.343
1550.5200, -45.337
1550.5400, -45.364
1550.5600, -45.365
1550.5800, -45.374
1550.6000, -45.373
1550.6200, -45.378
1550.6400, -45.379
1550.6600, -45.405
1550.6800, -45.410
1550.7000, -45.415
1550.7200, -45.420
1550.7400, -45.440
1550.7600, -45.447
1550.7800, -45.446
1550.8000, -45.458
1550.8200, -45.435
1550.8400, -45.437
1550.8600, -45.431
1550.8800, -45.448
1550.9000, -45.449
1550.9200, -45.433
1550.9400, -45.434
1550.9600, -45.438
1550.9800, -45.414
1551.0000, -45.405
1551.0200, -45.411
1551.0400, -45.409
1551.0600, -45.402
1551.0800, -45.401
1551.1000, -45.409
1551.1200, -45.398
1551.1400, -45.399
1551.1600, -45.407
1551.1800, -45.409
1551.2000, -45.387
1551.2200, -45.391
1551.2400, -45.405
1551.2600, -45.383
1551.2800, -45.392
1551.3000, -45.378
1551.3200, -45.409
1551.3400, -45.400
1551.3600, -45.384
1551.3800, -45.377
1551.4000, -45.397
1551.4200, -45.387
1551.4400, -45.406
1551.4600, -45.401
1551.4800, -45.405
1551.5000, -45.411
1551.5200, -45.411
1551.5400, -45.419
1551.5600, -45.438
1551.5800, -45.442
1551.6000, -45.445
1551.6200, -45.446
1551.6400, -45.465
1551.6600, -45.485
1551.6800, -45.493
1551.7000, -45.481
1551.7200, -45.474
1551.7400, -45.465
1551.7600, -45.460
1551.7800, -45.466
1551.8000, -45.460
1551.8200, -45.466
1551.8400, -45.467
1551.8600, -45.468
1551.8800, -45.449
1551.9000, -45.454
1551.9200, -45.462
1551.9400, -45.427
1551.9600, -45.434
1551.9800, -45.431
1552.0000, -45.431
1552.0200, -45.421
1552.0400, -45.428
1552.0600, -45.437
1552.0800, -45.428
1552.1000, -45.427
1552.1200, -45.441
1552.1400, -45.409
1552.1600, -45.394
1552.1800, -45.411
1552.2000, -45.414
1552.2200, -45.421
1552.2400, -45.416
1552.2600, -45.404
1552.2800, -45.421
1552.3000, -45.437
1552.3200, -45.435
1552.3400, -45.443
1552.3600, -45.436
1552.3800, -45.439
1552.4000, -45.440
1552.4200, -45.453
1552.4400, -45.467
1552.4600, -45.478
1552.4800, -45.480
1552.5000, -45.487
1552.5200, -45.492
1552.5400, -45.508
1552.5600, -45.510
1552.5800, -45.518
1552.6000, -45.500
1552.6200, -45.507
1552.6400, -45.496
1552.6600, -45.501
1552.6800, -45.503
1552.7000, -45.504
1552.7200, -45.503
1552.7400, -45.511
1552.7600, -45.512
1552.7800, -45.498
1552.8000, -45.499
1552.8200, -45.452
1552.8400, -45.455
1552.8600, -45.479
1552.8800, -45.473
1552.9000, -45.473
1552.9200, -45.461
1552.9400, -45.467
1552.9600, -45.475
1552.9800, -45.454
1553.0000, -45.472
1553.0200, -45.442
1553.0400, -45.421
1553.0600, -45.446
1553.0800, -45.444
1553.1000, -45.461
1553.1200, -45.453
1553.1400, -45.456
1553.1600, -45.437
1553.1800, -45.470
1553.2000, -45.476
1553.2200, -45.478
1553.2400, -45.477
1553.2600, -45.472
1553.2800, -45.482
1553.3000, -45.485
1553.3200, -45.507
1553.3400, -45.517
1553.3600, -45.514
1553.3800, -45.520
1553.4000, -45.521
1553.4200, -45.525
1553.4400, -45.532
1553.4600, -45.532
1553.4800, -45.540
1553.5000, -45.531
1553.5200, -45.529
1553.5400, -45.526
1553.5600, -45.527
1553.5800, -45.518
1553.6000, -45.532
1553.6200, -45.530
1553.6400, -45.532
1553.6600, -45.517
1553.6800, -45.519
1553.7000, -45.512
1553.7200, -45.477
1553.7400, -45.493
1553.7600, -45.503
1553.7800, -45.495
1553.8000, -45.493
1553.8200, -45.490
1553.8400, -45.503
1553.8600, -45.493
1553.8800, -45.494
1553.9000, -45.497
1553.9200, -45.492
1553.9400, -45.469
1553.9600, -45.481
1553.9800, -45.488
1554.0000, -45.500
1554.0200, -45.486
1554.0400, -45.486
1554.0600, -45.476
1554.0800, -45.503
1554.1000, -45.503
1554.1200, -45.513
1554.1400, -45.507
1554.1600, -45.509
1554.1800, -45.518
1554.2000, -45.515
1554.2200, -45.532
1554.2400, -45.545
1554.2600, -45.543
1554.2800, -45.542
1554.3000, -45.546
1554.3200, -45.561
1554.3400, -45.565
1554.3600, -45.565
1554.3800, -45.561
1554.4000, -45.566
1554.4200, -45.556
1554.4400, -45.550
1554.4600, -45.556
1554.4800, -45.554
1554.5000, -45.559
1554.5200, -45.569
1554.5400, -45.550
1554.5600, -45.546
1554.5800, -45.549
1554.6000, -45.544
1554.6200, -45.523
1554.6400, -45.540
1554.6600, -45.537
1554.6800, -45.529
1554.7000, -45.520
1554.7200, -45.528
1554.7400, -45.537
1554.7600, -45.513
1554.7800, -45.519
1554.8000, -45.522
1554.8200, -45.500
1554.8400, -45.508
1554.8600, -45.511
1554.8800, -45.517
1554.9000, -45.519
1554.9200, -45.513
1554.9400, -45.504
1554.9600, -45.513
1554.9800, -45.522
1555.0000, -45.517
1555.0200, -45.533
1555.0400, -45.523
1555.0600, -45.532
1555.0800, -45.536
1555.1000, -45.546
1555.1200, -45.564
1555.1400, -45.565
1555.1600, -45.565
1555.1800, -45.568
1555.2000, -45.581
1555.2200, -45.586
1555.2400, -45.579
1555.2600, -45.587
1555.2800, -45.586
1555.3000, -45.587
1555.3200, -45.587
1555.3400, -45.583
1555.3600, -45.573
1555.3800, -45.586
1555.4000, -45.588
1555.4200, -45.586
1555.4400, -45.572
1555.4600, -45.569
1555.4800, -45.570
1555.5000, -45.556
1555.5200, -45.567
1555.5400, -45.568
1555.5600, -45.562
1555.5800, -45.558
1555.6000, -45.553
1555.6200, -45.569
1555.6400, -45.555
1555.6600, -45.546
1555.6800, -45.557
1555.7000, -45.548
1555.7200, -45.538
1555.7400, -45.552
1555.7600, -45.546
1555.7800, -45.550
1555.8000, -45.547
1555.8200, -45.554
1555.8400, -45.545
1555.8600, -45.562
1555.8800, -45.558
1555.9000, -45.573
1555.9200, -45.572
1555.9400, -45.578
1555.9600, -45.592
1555.9800, -45.592
1556.0000, -45.594
1556.0200, -45.616
1556.0400, -45.613
1556.0600, -45.611
1556.0800, -45.620
1556.1000, -45.633
1556.1200, -45.625
1556.1400, -45.632
1556.1600, -45.642
1556.1800, -45.636
1556.2000, -45.637
1556.2200, -45.633
1556.2400, -45.629
1556.2600, -45.625
1556.2800, -45.629
1556.3000, -45.638
1556.3200, -45.625
1556.3400, -45.617
1556.3600, -45.619
1556.3800, -45.619
1556.4000, -45.602
1556.4200, -45.616
1556.4400, -45.617
1556.4600, -45.607
1556.4800, -45.600
1556.5000, -45.609
1556.5200, -45.614
1556.5400, -45.596
1556.5600, -45.599
1556.5800, -45.602
1556.6000, -45.586
1556.6200, -45.592
1556.6400, -45.592
1556.6600, -45.600
1556.6800, -45.602
1556.7000, -45.606
1556.7200, -45.598
1556.7400, -45.606
1556.7600, -45.615
1556.7800, -45.614
1556.8000, -45.631
1556.8200, -45.629
1556.8400, -45.639
1556.8600, -45.642
1556.8800, -45.647
1556.9000, -45.660
1556.9200, -45.668
1556.9400, -45.665
1556.9600, -45.676
1556.9800, -45.687
1557.0000, -45.705
1557.0200, -45.702
1557.0400, -45.707
1557.0600, -45.702
1557.0800, -45.700
1557.1000, -45.697
1557.1200, -45.696
1557.1400, -45.690
1557.1600, -45.695
1557.1800, -45.706
1557.2000, -45.700
1557.2200, -45.694
1557.2400, -45.694
1557.2600, -45.698
1557.2800, -45.687
1557.3000, -45.696
1557.3200, -45.700
1557.3400, -45.690
1557.3600, -45.691
1557.3800, -45.693
1557.4000, -45.704
1557.4200, -45.697
1557.4400, -45.690
1557.4600, -45.698
1557.4800, -45.694
1557.5000, -45.695
1557.5200, -45.708
1557.5400, -45.699
1557.5600, -45.699
1557.5800, -45.704
1557.6000, -45.705
1557.6200, -45.704
1557.6400, -45.713
1557.6600, -45.715
1557.6800, -45.733
1557.7000, -45.736
1557.7200, -45.740
1557.7400, -45.751
1557.7600, -45.754
1557.7800, -45.763
1557.8000, -45.778
1557.8200, -45.782
1557.8400, -45.788
1557.8600, -45.798
1557.8800, -45.815
1557.9000, -45.808
1557.9200, -45.826
1557.9400, -45.821
1557.9600, -45.817
1557.9800, -45.818
1558.0000, -45.810
1558.0200, -45.818
1558.0400, -45.825
1558.0600, -45.827
1558.0800, -45.828
1558.1000, -45.827
1558.1200, -45.815
1558.1400, -45.820
1558.1600, -45.812
1558.1800, -45.820
1558.2000, -45.828
1558.2200, -45.818
1558.2400, -45.822
1558.2600, -45.824
1558.2800, -45.832
1558.3000, -45.832
1558.3200, -45.819
1558.3400, -45.827
1558.3600, -45.815
1558.3800, -45.815
1558.4000, -45.840
1558.4200, -45.827
1558.4400, -45.834
1558.4600, -45.834
1558.4800, -45.847
1558.5000, -45.852
1558.5200, -45.846
1558.5400, -45.860
1558.5600, -45.875
1558.5800, -45.878
1558.6000, -45.881
1558.6200, -45.896
1558.6400, -45.900
1558.6600, -45.910
1558.6800, -45.925
1558.7000, -45.921
1558.7200, -45.930
1558.7400, -45.953
1558.7600, -45.978
1558.7800, -45.965
1558.8000, -45.981
1558.8200, -45.996
1558.8400, -45.981
1558.8600, -45.982
1558.8800, -45.972
1558.9000, -45.978
1558.9200, -45.988
1558.9400, -45.991
1558.9600, -46.001
1558.9800, -46.007
1559.0000, -46.000
1559.0200, -46.005
1559.0400, -45.993
1559.0600, -46.006
1559.0800, -46.017
1559.1000, -46.004
1559.1200, -46.012
1559.1400, -46.020
1559.1600, -46.027
1559.1800, -46.040
1559.2000, -46.035
1559.2200, -46.033
1559.2400, -46.026
1559.2600, -46.026
1559.2800, -46.044
1559.3000, -46.041
1559.3200, -46.055
1559.3400, -46.052
1559.3600, -46.071
1559.3800, -46.073
1559.4000, -46.074
1559.4200, -46.083
1559.4400, -46.094
1559.4600, -46.106
1559.4800, -46.109
1559.5000, -46.128
1559.5200, -46.133
1559.5400, -46.148
1559.5600, -46.163
1559.5800, -46.170
1559.6000, -46.175
1559.6200, -46.196
1559.6400, -46.212
1559.6600, -46.242
1559.6800, -46.255
1559.7000, -46.255
1559.7200, -46.233
1559.7400, -46.238
1559.7600, -46.226
1559.7800, -46.234
1559.8000, -46.247
1559.8200, -46.242
1559.8400, -46.264
1559.8600, -46.266
1559.8800, -46.270
1559.9000, -46.279
1559.9200, -46.259
1559.9400, -46.268
1559.9600, -46.282
1559.9800, -46.274
1560.0000, -46.282
1560.0200, -46.293
1560.0400, -46.297
1560.0600, -46.308
1560.0800, -46.309
1560.1000, -46.315
1560.1200, -46.307
1560.1400, -46.315
1560.1600, -46.329
1560.1800, -46.333
1560.2000, -46.337
1560.2200, -46.339
1560.2400, -46.358
1560.2600, -46.365
1560.2800, -46.368
1560.3000, -46.380
1560.3200, -46.395
1560.3400, -46.403
1560.3600, -46.410
1560.3800, -46.427
1560.4000, -46.435
1560.4200, -46.448
1560.4400, -46.463
1560.4600, -46.471
1560.4800, -46.479
1560.5000, -46.501
1560.5200, -46.531
1560.5400, -46.558
1560.5600, -46.568
1560.5800, -46.580
1560.6000, -46.557
1560.6200, -46.565
1560.6400, -46.566
1560.6600, -46.569
1560.6800, -46.581
1560.7000, -46.578
1560.7200, -46.591
1560.7400, -46.601
1560.7600, -46.609
1560.7800, -46.621
1560.8000, -46.607
1560.8200, -46.616
1560.8400, -46.632
1560.8600, -46.623
1560.8800, -46.628
1560.9000, -46.642
1560.9200, -46.649
1560.9400, -46.661
1560.9600, -46.664
1560.9800, -46.673
1561.0000, -46.667
1561.0200, -46.677
1561.0400, -46.691
1561.0600, -46.696
1561.0800, -46.704
1561.1000, -46.710
1561.1200, -46.728
1561.1400, -46.736
1561.1600, -46.745
1561.1800, -46.761
1561.2000, -46.771
1561.2200, -46.783
1561.2400, -46.794
1561.2600, -46.806
1561.2800, -46.824
1561.3000, -46.843
1561.3200, -46.856
1561.3400, -46.873
1561.3600, -46.886
1561.3800, -46.905
1561.4000, -46.927
1561.4200, -46.971
1561.4400, -46.980
1561.4600, -46.987
1561.4800, -46.966
1561.5000, -46.977
1561.5200, -46.976
1561.5400, -46.988
1561.5600, -46.991
1561.5800, -47.000
1561.6000, -47.017
1561.6200, -47.025
1561.6400, -47.026
1561.6600, -47.059
1561.6800, -47.046
1561.7000, -47.056
1561.7200, -47.074
1561.7400, -47.075
1561.7600, -47.073
1561.7800, -47.088
1561.8000, -47.093
1561.8200, -47.107
1561.8400, -47.117
1561.8600, -47.132
1561.8800, -47.133
1561.9000, -47.137
1561.9200, -47.149
1561.9400, -47.152
1561.9600, -47.175
1561.9800, -47.184
1562.0000, -47.186
1562.0200, -47.199
1562.0400, -47.205
1562.0600, -47.228
1562.0800, -47.240
1562.1000, -47.261
1562.1200, -47.271
1562.1400, -47.286
1562.1600, -47.308
1562.1800, -47.328
1562.2000, -47.338
1562.2200, -47.351
1562.2400, -47.366
1562.2600, -47.379
1562.2800, -47.402
1562.3000, -47.432
1562.3200, -47.460
1562.3400, -47.451
1562.3600, -47.456
1562.3800, -47.471
1562.4000, -47.474
1562.4200, -47.489
1562.4400, -47.494
1562.4600, -47.504
1562.4800, -47.522
1562.5000, -47.530
1562.5200, -47.534
1562.5400, -47.557
1562.5600, -47.550
1562.5800, -47.564
1562.6000, -47.576
1562.6200, -47.585
1562.6400, -47.595
1562.6600, -47.599
1562.6800, -47.612
1562.7000, -47.623
1562.7200, -47.633
1562.7400, -47.653
1562.7600, -47.653
1562.7800, -47.666
1562.8000, -47.676
1562.8200, -47.686
1562.8400, -47.709
1562.8600, -47.721
1562.8800, -47.724
1562.9000, -47.739
1562.9200, -47.755
1562.9400, -47.778
1562.9600, -47.790
1562.9800, -47.799
1563.0000, -47.823
1563.0200, -47.837
1563.0400, -47.858
1563.0600, -47.875
1563.0800, -47.892
1563.1000, -47.911
1563.1200, -47.928
1563.1400, -47.955
1563.1600, -47.968
1563.1800, -47.998
1563.2000, -48.021
1563.2200, -48.013
1563.2400, -48.026
1563.2600, -48.034
1563.2800, -48.045
1563.3000, -48.057
1563.3200, -48.063
1563.3400, -48.075
1563.3600, -48.090
1563.3800, -48.103
1563.4000, -48.115
1563.4200, -48.133
1563.4400, -48.132
1563.4600, -48.149
1563.4800, -48.164
1563.5000, -48.175
1563.5200, -48.184
1563.5400, -48.192
1563.5600, -48.204
1563.5800, -48.218
1563.6000, -48.228
1563.6200, -48.253
1563.6400, -48.248
1563.6600, -48.265
1563.6800, -48.282
1563.7000, -48.297
1563.7200, -48.330
1563.7400, -48.339
1563.7600, -48.340
1563.7800, -48.354
1563.8000, -48.365
1563.8200, -48.385
1563.8400, -48.406
1563.8600, -48.424
1563.8800, -48.438
1563.9000, -48.459
1563.9200, -48.473
1563.9400, -48.493
1563.9600, -48.519
1563.9800, -48.531
1564.0000, -48.557
1564.0200, -48.576
1564.0400, -48.590
1564.0600, -48.620
1564.0800, -48.643
1564.1000, -48.643
1564.1200, -48.654
1564.1400, -48.669
1564.1600, -48.678
1564.1800, -48.694
1564.2000, -48.699
1564.2200, -48.712
1564.2400, -48.724
1564.2600, -48.742
1564.2800, -48.750
1564.3000, -48.781
1564.3200, -48.775
1564.3400, -48.786
1564.3600, -48.807
1564.3800, -48.816
1564.4000, -48.833
1564.4200, -48.842
1564.4400, -48.854
1564.4600, -48.873
1564.4800, -48.882
1564.5000, -48.908
1564.5200, -48.908
1564.5400, -48.928
1564.5600, -48.945
1564.5800, -48.954
1564.6000, -48.988
1564.6200, -48.999
1564.6400, -49.005
1564.6600, -49.017
1564.6800, -49.031
1564.7000, -49.055
1564.7200, -49.070
1564.7400, -49.089
1564.7600, -49.110
1564.7800, -49.130
1564.8000, -49.144
1564.8200, -49.170
1564.8400, -49.185
1564.8600, -49.202
1564.8800, -49.227
1564.9000, -49.247
1564.9200, -49.260
1564.9400, -49.298
1564.9600, -49.314
1564.9800, -49.313
1565.0000, -49.338
1565.0200, -49.339
1565.0400, -49.369
1565.0600, -49.378
1565.0800, -49.382
1565.1000, -49.402
1565.1200, -49.415
1565.1400, -49.433
1565.1600, -49.443
1565.1800, -49.462
1565.2000, -49.468
1565.2200, -49.487
1565.2400, -49.505
1565.2600, -49.516
1565.2800, -49.535
1565.3000, -49.536
1565.3200, -49.551
1565.3400, -49.576
1565.3600, -49.583
1565.3800, -49.601
1565.4000, -49.610
1565.4200, -49.628
1565.4400, -49.646
1565.4600, -49.660
1565.4800, -49.686
1565.5000, -49.697
1565.5200, -49.711
1565.5400, -49.731
1565.5600, -49.753
1565.5800, -49.772
1565.6000, -49.785
1565.6200, -49.802
1565.6400, -49.822
1565.6600, -49.845
1565.6800, -49.856
1565.7000, -49.876
1565.7200, -49.896
1565.7400, -49.919
1565.7600, -49.940
1565.7800, -49.963
1565.8000, -49.985
1565.8200, -50.016
1565.8400, -50.028
1565.8600, -50.029
1565.8800, -50.049
1565.9000, -50.055
1565.9200, -50.079
1565.9400, -50.090
1565.9600, -50.097
1565.9800, -50.117
1566.0000, -50.130
1566.0200, -50.150
1566.0400, -50.168
1566.0600, -50.178
1566.0800, -50.190
1566.1000, -50.205
1566.1200, -50.224
1566.1400, -50.237
1566.1600, -50.253
1566.1800, -50.256
1566.2000, -50.276
1566.2200, -50.291
1566.2400, -50.308
1566.2600, -50.320
1566.2800, -50.333
1566.3000, -50.349
1566.3200, -50.363
1566.3400, -50.387
1566.3600, -50.411
1566.3800, -50.416
1566.4000, -50.429
1566.4200, -50.449
1566.4400, -50.467
1566.4600, -50.483
1566.4800, -50.503
1566.5000, -50.521
1566.5200, -50.548
1566.5400, -50.565
1566.5600, -50.590
1566.5800, -50.604
1566.6000, -50.624
1566.6200, -50.647
1566.6400, -50.670
1566.6600, -50.688
1566.6800, -50.713
1566.7000, -50.733
1566.7200, -50.743
1566.7400, -50.757
1566.7600, -50.780
1566.7800, -50.792
1566.8000, -50.808
1566.8200, -50.816
1566.8400, -50.829
1566.8600, -50.844
1566.8800, -50.862
1566.9000, -50.870
1566.9200, -50.896
1566.9400, -50.906
1566.9600, -50.917
1566.9800, -50.930
1567.0000, -50.951
1567.0200, -50.969
1567.0400, -50.978
1567.0600, -50.993
1567.0800, -51.010
1567.1000, -51.028
1567.1200, -51.043
1567.1400, -51.053
1567.1600, -51.067
1567.1800, -51.083
1567.2000, -51.099
1567.2200, -51.132
1567.2400, -51.148
1567.2600, -51.152
1567.2800, -51.163
1567.3000, -51.187
1567.3200, -51.204
1567.3400, -51.225
1567.3600, -51.241
1567.3800, -51.263
1567.4000, -51.280
1567.4200, -51.296
1567.4400, -51.322
1567.4600, -51.341
1567.4800, -51.360
1567.5000, -51.390
1567.5200, -51.413
1567.5400, -51.420
1567.5600, -51.449
1567.5800, -51.460
1567.6000, -51.471
1567.6200, -51.501
1567.6400, -51.509
1567.6600, -51.532
1567.6800, -51.548
1567.7000, -51.551
1567.7200, -51.570
1567.7400, -51.586
1567.7600, -51.604
1567.7800, -51.613
1567.8000, -51.634
1567.8200, -51.646
1567.8400, -51.654
1567.8600, -51.675
1567.8800, -51.694
1567.9000, -51.707
1567.9200, -51.716
1567.9400, -51.729
1567.9600, -51.750
1567.9800, -51.758
1568.0000, -51.777
1568.0200, -51.789
1568.0400, -51.806
1568.0600, -51.815
1568.0800, -51.841
1568.1000, -51.861
1568.1200, -51.876
1568.1400, -51.888
1568.1600, -51.896
1568.1800, -51.926
1568.2000, -51.943
1568.2200, -51.964
1568.2400, -51.977
1568.2600, -52.002
1568.2800, -52.025
1568.3000, -52.038
1568.3200, -52.062
1568.3400, -52.082
1568.3600, -52.098
1568.3800, -52.123
1568.4000, -52.145
1568.4200, -52.158
1568.4400, -52.187
1568.4600, -52.200
1568.4800, -52.216
1568.5000, -52.233
1568.5200, -52.246
1568.5400, -52.258
1568.5600, -52.276
1568.5800, -52.285
1568.6000, -52.303
1568.6200, -52.320
1568.6400, -52.340
1568.6600, -52.355
1568.6800, -52.366
1568.7000, -52.380
1568.7200, -52.391
1568.7400, -52.413
1568.7600, -52.427
1568.7800, -52.440
1568.8000, -52.448
1568.8200, -52.469
1568.8400, -52.480
1568.8600, -52.502
1568.8800, -52.520
1568.9000, -52.525
1568.9200, -52.542
1568.9400, -52.560
1568.9600, -52.584
1568.9800, -52.599
1569.0000, -52.607
1569.0200, -52.620
1569.0400, -52.643
1569.0600, -52.666
1569.0800, -52.682
1569.1000, -52.698
1569.1200, -52.712
1569.1400, -52.741
1569.1600, -52.753
1569.1800, -52.777
1569.2000, -52.797
1569.2200, -52.811
1569.2400, -52.839
1569.2600, -52.855
1569.2800, -52.879
1569.3000, -52.884
1569.3200, -52.912
1569.3400, -52.927
1569.3600, -52.949
1569.3800, -52.968
1569.4000, -52.974
1569.4200, -52.988
1569.4400, -52.997
1569.4600, -53.018
1569.4800, -53.030
1569.5000, -53.044
1569.5200, -53.059
1569.5400, -53.079
1569.5600, -53.087
1569.5800, -53.105
1569.6000, -53.120
1569.6200, -53.138
1569.6400, -53.152
1569.6600, -53.162
1569.6800, -53.181
1569.7000, -53.194
1569.7200, -53.211
1569.7400, -53.226
1569.7600, -53.236
1569.7800, -53.249
1569.8000, -53.257
1569.8200, -53.282
1569.8400, -53.317
1569.8600, -53.323
1569.8800, -53.319
1569.9000, -53.341
1569.9200, -53.369
1569.9400, -53.382
1569.9600, -53.402
1569.9800, -53.414
1570.0000, -53.431
1570.0200, -53.450
1570.0400, -53.472
1570.0600, -53.492
1570.0800, -53.507
1570.1000, -53.529
1570.1200, -53.553
1570.1400, -53.576
1570.1600, -53.592
1570.1800, -53.603
1570.2000, -53.630
1570.2200, -53.636
1570.2400, -53.661
1570.2600, -53.675
1570.2800, -53.681
1570.3000, -53.689
1570.3200, -53.704
1570.3400, -53.726
1570.3600, -53.742
1570.3800, -53.750
1570.4000, -53.775
1570.4200, -53.786
1570.4400, -53.793
1570.4600, -53.808
1570.4800, -53.824
1570.5000, -53.840
1570.5200, -53.854
1570.5400, -53.859
1570.5600, -53.881
1570.5800, -53.892
1570.6000, -53.907
1570.6200, -53.924
1570.6400, -53.935
1570.6600, -53.954
1570.6800, -53.961
1570.7000, -53.989
1570.7200, -54.009
1570.7400, -54.025
1570.7600, -54.029
1570.7800, -54.057
1570.8000, -54.061
1570.8200, -54.090
1570.8400, -54.109
1570.8600, -54.117
1570.8800, -54.145
1570.9000, -54.152
1570.9200, -54.186
1570.9400, -54.196
1570.9600, -54.211
1570.9800, -54.237
1571.0000, -54.249
1571.0200, -54.271
1571.0400, -54.299
1571.0600, -54.310
1571.0800, -54.315
1571.1000, -54.343
1571.1200, -54.350
1571.1400, -54.369
1571.1600, -54.375
1571.1800, -54.385
1571.2000, -54.400
1571.2200, -54.409
1571.2400, -54.428
1571.2600, -54.456
1571.2800, -54.461
1571.3000, -54.478
1571.3200, -54.482
1571.3400, -54.502
1571.3600, -54.521
1571.3800, -54.536
1571.4000, -54.536
1571.4200, -54.553
1571.4400, -54.574
1571.4600, -54.591
1571.4800, -54.611
1571.5000, -54.608
1571.5200, -54.628
1571.5400, -54.646
1571.5600, -54.671
1571.5800, -54.681
1571.6000, -54.690
1571.6200, -54.710
1571.6400, -54.724
1571.6600, -54.737
1571.6800, -54.740
1571.7000, -54.772
1571.7200, -54.788
1571.7400, -54.807
1571.7600, -54.830
1571.7800, -54.835
1571.8000, -54.857
1571.8200, -54.870
1571.8400, -54.886
1571.8600, -54.908
1571.8800, -54.938
1571.9000, -54.966
1571.9200, -54.975
1571.9400, -54.991
1571.9600, -54.993
1571.9800, -55.008
1572.0000, -55.025
1572.0200, -55.039
1572.0400, -55.051
1572.0600, -55.054
1572.0800, -55.071
1572.1000, -55.088
1572.1200, -55.098
1572.1400, -55.115
1572.1600, -55.123
1572.1800, -55.134
1572.2000, -55.164
1572.2200, -55.163
1572.2400, -55.183
1572.2600, -55.190
1572.2800, -55.199
1572.3000, -55.214
1572.3200, -55.235
1572.3400, -55.248
1572.3600, -55.256
1572.3800, -55.264
1572.4000, -55.292
1572.4200, -55.301
1572.4400, -55.322
1572.4600, -55.338
1572.4800, -55.343
1572.5000, -55.352
1572.5200, -55.368
1572.5400, -55.389
1572.5600, -55.401
1572.5800, -55.420
1572.6000, -55.431
1572.6200, -55.459
1572.6400, -55.468
1572.6600, -55.487
1572.6800, -55.508
1572.7000, -55.513
1572.7200, -55.536
1572.7400, -55.563
1572.7600, -55.593
1572.7800, -55.599
1572.8000, -55.641
1572.8200, -55.614
1572.8400, -55.620
1572.8600, -55.642
1572.8800, -55.654
1572.9000, -55.670
1572.9200, -55.674
1572.9400, -55.691
1572.9600, -55.716
1572.9800, -55.717
1573.0000, -55.725
1573.0200, -55.744
1573.0400, -55.753
1573.0600, -55.781
1573.0800, -55.777
1573.1000, -55.788
1573.1200, -55.813
1573.1400, -55.820
1573.1600, -55.842
1573.1800, -55.835
1573.2000, -55.857
1573.2200, -55.875
1573.2400, -55.878
1573.2600, -55.906
1573.2800, -55.920
1573.3000, -55.921
1573.3200, -55.943
1573.3400, -55.959
1573.3600, -55.959
1573.3800, -55.982
1573.4000, -55.980
1573.4200, -56.009
1573.4400, -56.018
1573.4600, -56.031
1573.4800, -56.055
1573.5000, -56.072
1573.5200, -56.085
1573.5400, -56.097
1573.5600, -56.121
1573.5800, -56.125
1573.6000, -56.163
1573.6200, -56.177
1573.6400, -56.186
1573.6600, -56.202
1573.6800, -56.229
1573.7000, -56.226
1573.7200, -56.244
1573.7400, -56.235
1573.7600, -56.261
1573.7800, -56.265
1573.8000, -56.274
1573.8200, -56.306
1573.8400, -56.294
1573.8600, -56.311
1573.8800, -56.328
1573.9000, -56.322
1573.9200, -56.356
1573.9400, -56.363
1573.9600, -56.367
1573.9800, -56.376
1574.0000, -56.387
1574.0200, -56.401
1574.0400, -56.413
1574.0600, -56.425
1574.0800, -56.438
1574.1000, -56.451
1574.1200, -56.476
1574.1400, -56.488
1574.1600, -56.489
1574.1800, -56.508
1574.2000, -56.523
1574.2200, -56.528
1574.2400, -56.545
1574.2600, -56.550
1574.2800, -56.571
1574.3000, -56.581
1574.3200, -56.607
1574.3400, -56.616
1574.3600, -56.632
1574.3800, -56.640
1574.4000, -56.661
1574.4200, -56.675
1574.4400, -56.690
1574.4600, -56.705
1574.4800, -56.731
1574.5000, -56.735
1574.5200, -56.756
1574.5400, -56.764
1574.5600, -56.774
1574.5800, -56.788
1574.6000, -56.789
1574.6200, -56.798
1574.6400, -56.808
1574.6600, -56.834
1574.6800, -56.842
1574.7000, -56.851
1574.7200, -56.859
1574.7400, -56.867
1574.7600, -56.879
1574.7800, -56.899
1574.8000, -56.909
1574.8200, -56.911
1574.8400, -56.927
1574.8600, -56.932
1574.8800, -56.949
1574.9000, -56.958
1574.9200, -56.975
1574.9400, -56.983
1574.9600, -57.003
1574.9800, -56.999
1575.0000, -57.021
1575.0200, -57.035
1575.0400, -57.041
1575.0600, -57.058
1575.0800, -57.068
1575.1000, -57.081
1575.1200, -57.097
1575.1400, -57.110
1575.1600, -57.113
1575.1800, -57.139
1575.2000, -57.155
1575.2200, -57.170
1575.2400, -57.172
1575.2600, -57.190
1575.2800, -57.194
1575.3000, -57.216
1575.3200, -57.228
1575.3400, -57.255
1575.3600, -57.252
1575.3800, -57.274
1575.4000, -57.292
1575.4200, -57.286
1575.4400, -57.314
1575.4600, -57.310
1575.4800, -57.327
1575.5000, -57.332
1575.5200, -57.355
1575.5400, -57.364
1575.5600, -57.366
1575.5800, -57.385
1575.6000, -57.380
1575.6200, -57.386
1575.6400, -57.398
1575.6600, -57.411
1575.6800, -57.432
1575.7000, -57.428
1575.7200, -57.437
1575.7400, -57.476
1575.7600, -57.461
1575.7800, -57.471
1575.8000, -57.484
1575.8200, -57.492
1575.8400, -57.510
1575.8600, -57.519
1575.8800, -57.539
1575.9000, -57.544
1575.9200, -57.559
1575.9400, -57.561
1575.9600, -57.578
1575.9800, -57.590
1576.0000, -57.612
1576.0200, -57.610
1576.0400, -57.649
1576.0600, -57.649
1576.0800, -57.665
1576.1000, -57.669
1576.1200, -57.672
1576.1400, -57.690
1576.1600, -57.718
1576.1800, -57.741
1576.2000, -57.725
1576.2200, -57.741
1576.2400, -57.751
1576.2600, -57.780
1576.2800, -57.785
1576.3000, -57.786
1576.3200, -57.805
1576.3400, -57.805
1576.3600, -57.828
1576.3800, -57.816
1576.4000, -57.845
1576.4200, -57.846
1576.4400, -57.854
1576.4600, -57.857
1576.4800, -57.883
1576.5000, -57.878
1576.5200, -57.889
1576.5400, -57.909
1576.5600, -57.917
1576.5800, -57.928
1576.6000, -57.930
1576.6200, -57.927
1576.6400, -57.938
1576.6600, -57.958
1576.6800, -57.967
1576.7000, -57.973
1576.7200, -57.995
1576.7400, -57.979
1576.7600, -57.997
1576.7800, -58.035
1576.8000, -58.028
1576.8200, -58.038
1576.8400, -58.042
1576.8600, -58.068
1576.8800, -58.068
1576.9000, -58.081
1576.9200, -58.096
1576.9400, -58.110
1576.9600, -58.097
1576.9800, -58.144
1577.0000, -58.149
1577.0200, -58.162
1577.0400, -58.171
1577.0600, -58.187
1577.0800, -58.203
1577.1000, -58.198
1577.1200, -58.221
1577.1400, -58.205
1577.1600, -58.218
1577.1800, -58.227
1577.2000, -58.228
1577.2200, -58.259
1577.2400, -58.257
1577.2600, -58.275
1577.2800, -58.274
1577.3000, -58.294
1577.3200, -58.301
1577.3400, -58.308
1577.3600, -58.325
1577.3800, -58.329
1577.4000, -58.318
1577.4200, -58.338
1577.4400, -58.343
1577.4600, -58.346
1577.4800, -58.373
1577.5000, -58.370
1577.5200, -58.385
1577.5400, -58.404
1577.5600, -58.393
1577.5800, -58.400
1577.6000, -58.417
1577.6200, -58.416
1577.6400, -58.442
1577.6600, -58.438
1577.6800, -58.468
1577.7000, -58.461
1577.7200, -58.485
1577.7400, -58.464
1577.7600, -58.506
1577.7800, -58.513
1577.8000, -58.523
1577.8200, -58.532
1577.8400, -58.535
1577.8600, -58.553
1577.8800, -58.551
1577.9000, -58.578
1577.9200, -58.584
1577.9400, -58.591
1577.9600, -58.589
1577.9800, -58.602
1578.0000, -58.639
1578.0200, -58.632
1578.0400, -58.634
1578.0600, -58.645
1578.0800, -58.666
1578.1000, -58.676
1578.1200, -58.679
1578.1400, -58.688
1578.1600, -58.706
1578.1800, -58.705
1578.2000, -58.717
1578.2200, -58.723
1578.2400, -58.727
1578.2600, -58.737
1578.2800, -58.730
1578.3000, -58.772
1578.3200, -58.757
1578.3400, -58.780
1578.3600, -58.795
1578.3800, -58.792
1578.4000, -58.803
1578.4200, -58.775
1578.4400, -58.802
1578.4600, -58.840
1578.4800, -58.833
1578.5000, -58.822
1578.5200, -58.854
1578.5400, -58.838
1578.5600, -58.853
1578.5800, -58.872
1578.6000, -58.891
1578.6200, -58.883
1578.6400, -58.899
1578.6600, -58.903
1578.6800, -58.955
1578.7000, -58.932
1578.7200, -58.945
1578.7400, -58.960
1578.7600, -58.978
1578.7800, -58.984
1578.8000, -58.958
1578.8200, -59.013
1578.8400, -58.990
1578.8600, -59.022
1578.8800, -59.026
1578.9000, -59.033
1578.9200, -59.020
1578.9400, -59.051
1578.9600, -59.041
1578.9800, -59.078
1579.0000, -59.069
1579.0200, -59.064
1579.0400, -59.082
1579.0600, -59.085
1579.0800, -59.093
1579.1000, -59.103
1579.1200, -59.107
1579.1400, -59.114
1579.1600, -59.126
1579.1800, -59.130
1579.2000, -59.154
1579.2200, -59.136
1579.2400, -59.151
1579.2600, -59.169
1579.2800, -59.171
1579.3000, -59.160
1579.3200, -59.182
1579.3400, -59.221
1579.3600, -59.192
1579.3800, -59.200
1579.4000, -59.214
1579.4200, -59.252
1579.4400, -59.251
1579.4600, -59.251
1579.4800, -59.273
1579.5000, -59.264
1579.5200, -59.280
1579.5400, -59.281
1579.5600, -59.305
1579.5800, -59.320
1579.6000, -59.335
1579.6200, -59.351
1579.6400, -59.330
1579.6600, -59.352
1579.6800, -59.364
1579.7000, -59.348
1579.7200, -59.378
1579.7400, -59.396
1579.7600, -59.395
1579.7800, -59.400
1579.8000, -59.381
1579.8200, -59.416
1579.8400, -59.425
1579.8600, -59.406
1579.8800, -59.422
1579.9000, -59.442
1579.9200, -59.439
1579.9400, -59.437
1579.9600, -59.456
1579.9800, -59.450
1580.0000, -59.471
1580.0200, -59.479
1580.0400, -59.496
1580.0600, -59.488
1580.0800, -59.501
1580.1000, -59.497
1580.1200, -59.511
1580.1400, -59.521
1580.1600, -59.492
1580.1800, -59.557
1580.2000, -59.527
1580.2200, -59.544
1580.2400, -59.543
1580.2600, -59.560
1580.2800, -59.559
1580.3000, -59.591
1580.3200, -59.589
1580.3400, -59.578
1580.3600, -59.585
1580.3800, -59.616
1580.4000, -59.639
1580.4200, -59.618
1580.4400, -59.625
1580.4600, -59.660
1580.4800, -59.646
1580.5000, -59.652
1580.5200, -59.671
1580.5400, -59.690
1580.5600, -59.684
1580.5800, -59.703
1580.6000, -59.719
1580.6200, -59.705
1580.6400, -59.719
1580.6600, -59.732
1580.6800, -59.733
1580.7000, -59.749
1580.7200, -59.736
1580.7400, -59.731
1580.7600, -59.742
1580.7800, -59.763
1580.8000, -59.775
1580.8200, -59.782
1580.8400, -59.787
1580.8600, -59.776
1580.8800, -59.780
1580.9000, -59.776
1580.9200, -59.792
1580.9400, -59.814
1580.9600, -59.816
1580.9800, -59.819
1581.0000, -59.831
1581.0200, -59.830
1581.0400, -59.841
1581.0600, -59.841
1581.0800, -59.856
1581.1000, -59.852
1581.1200, -59.882
1581.1400, -59.857
1581.1600, -59.889
1581.1800, -59.886
1581.2000, -59.906
1581.2200, -59.938
1581.2400, -59.898
1581.2600, -59.933
1581.2800, -59.929
1581.3000, -59.939
1581.3200, -59.950
1581.3400, -59.963
1581.3600, -59.988
1581.3800, -59.945
1581.4000, -59.975
1581.4200, -59.975
1581.4400, -59.983
1581.4600, -59.981
1581.4800, -60.007
1581.5000, -60.029
1581.5200, -60.020
1581.5400, -60.005
1581.5600, -60.019
1581.5800, -60.023
1581.6000, -60.041
1581.6200, -60.033
1581.6400, -60.048
1581.6600, -60.050
1581.6800, -60.071
1581.7000, -60.047
1581.7200, -60.075
1581.7400, -60.080
1581.7600, -60.072
1581.7800, -60.090
1581.8000, -60.094
1581.8200, -60.102
1581.8400, -60.095
1581.8600, -60.115
1581.8800, -60.066
1581.9000, -60.124
1581.9200, -60.125
1581.9400, -60.130
1581.9600, -60.162
1581.9800, -60.120
1582.0000, -60.167
1582.0200, -60.155
1582.0400, -60.183
1582.0600, -60.195
1582.0800, -60.192
1582.1000, -60.204
1582.1200, -60.233
1582.1400, -60.224
1582.1600, -60.187
1582.1800, -60.229
1582.2000, -60.242
1582.2200, -60.235
1582.2400, -60.241
1582.2600, -60.259
1582.2800, -60.232
1582.3000, -60.261
1582.3200, -60.281
1582.3400, -60.289
1582.3600, -60.271
1582.3800, -60.281
1582.4000, -60.280
1582.4200, -60.305
1582.4400, -60.276
1582.4600, -60.315
1582.4800, -60.313
1582.5000, -60.305
1582.5200, -60.319
1582.5400, -60.315
1582.5600, -60.331
1582.5800, -60.354
1582.6000, -60.340
1582.6200, -60.346
1582.6400, -60.361
1582.6600, -60.376
1582.6800, -60.372
1582.7000, -60.348
1582.7200, -60.381
1582.7400, -60.369
1582.7600, -60.384
1582.7800, -60.405
1582.8000, -60.422
1582.8200, -60.398
1582.8400, -60.425
1582.8600, -60.434
1582.8800, -60.427
1582.9000, -60.435
1582.9200, -60.457
1582.9400, -60.442
1582.9600, -60.477
1582.9800, -60.484
1583.0000, -60.459
1583.0200, -60.496
1583.0400, -60.478
1583.0600, -60.491
1583.0800, -60.499
1583.1000, -60.513
1583.1200, -60.492
1583.1400, -60.523
1583.1600, -60.521
1583.1800, -60.538
1583.2000, -60.577
1583.2200, -60.530
1583.2400, -60.555
1583.2600, -60.511
1583.2800, -60.552
1583.3000, -60.576
1583.3200, -60.563
1583.3400, -60.567
1583.3600, -60.585
1583.3800, -60.599
1583.4000, -60.590
1583.4200, -60.582
1583.4400, -60.611
1583.4600, -60.586
1583.4800, -60.613
1583.5000, -60.626
1583.5200, -60.601
1583.5400, -60.635
1583.5600, -60.621
1583.5800, -60.627
1583.6000, -60.638
1583.6200, -60.646
1583.6400, -60.660
1583.6600, -60.665
1583.6800, -60.683
1583.7000, -60.667
1583.7200, -60.666
1583.7400, -60.679
1583.7600, -60.683
1583.7800, -60.699
1583.8000, -60.729
1583.8200, -60.713
1583.8400, -60.727
1583.8600, -60.721
1583.8800, -60.735
1583.9000, -60.744
1583.9200, -60.732
1583.9400, -60.746
1583.9600, -60.768
1583.9800, -60.740
1584.0000, -60.764
1584.0200, -60.801
1584.0400, -60.759
1584.0600, -60.815
1584.0800, -60.749
1584.1000, -60.769
1584.1200, -60.793
1584.1400, -60.791
1584.1600, -60.811
1584.1800, -60.799
1584.2000, -60.806
1584.2200, -60.823
1584.2400, -60.816
1584.2600, -60.814
1584.2800, -60.842
1584.3000, -60.815
1584.3200, -60.834
1584.3400, -60.816
1584.3600, -60.859
1584.3800, -60.836
1584.4000, -60.824
1584.4200, -60.838
1584.4400, -60.858
1584.4600, -60.852
1584.4800, -60.884
1584.5000, -60.866
1584.5200, -60.889
1584.5400, -60.895
1584.5600, -60.916
1584.5800, -60.916
1584.6000, -60.903
1584.6200, -60.908
1584.6400, -60.951
1584.6600, -60.929
1584.6800, -60.904
1584.7000, -60.947
1584.7200, -60.944
1584.7400, -60.969
1584.7600, -60.975
1584.7800, -60.969
1584.8000, -60.940
1584.8200, -60.967
1584.8400, -60.989
1584.8600, -61.003
1584.8800, -61.009
1584.9000, -60.975
1584.9200, -60.971
1584.9400, -61.013
1584.9600, -61.016
1584.9800, -61.014
1585.0000, -61.014
1585.0200, -61.006
1585.0400, -60.995
1585.0600, -61.040
1585.0800, -61.030
1585.1000, -61.054
1585.1200, -61.050
1585.1400, -61.013
1585.1600, -61.046
1585.1800, -61.094
1585.2000, -61.026
1585.2200, -61.041
1585.2400, -61.057
1585.2600, -61.041
1585.2800, -61.071
1585.3000, -61.058
1585.3200, -61.084
1585.3400, -61.084
1585.3600, -61.055
1585.3800, -61.110
1585.4000, -61.088
1585.4200, -61.111
1585.4400, -61.116
1585.4600, -61.121
1585.4800, -61.148
1585.5000, -61.137
1585.5200, -61.149
1585.5400, -61.150
1585.5600, -61.150
1585.5800, -61.162
1585.6000, -61.156
1585.6200, -61.134
1585.6400, -61.175
1585.6600, -61.182
1585.6800, -61.173
1585.7000, -61.175
1585.7200, -61.201
1585.7400, -61.190
1585.7600, -61.210
1585.7800, -61.197
1585.8000, -61.214
1585.8200, -61.203
1585.8400, -61.224
1585.8600, -61.215
1585.8800, -61.223
1585.9000, -61.230
1585.9200, -61.199
1585.9400, -61.257
1585.9600, -61.215
1585.9800, -61.248
1586.0000, -61.249
1586.0200, -61.223
1586.0400, -61.247
1586.0600, -61.252
1586.0800, -61.252
1586.1000, -61.224
1586.1200, -61.273
1586.1400, -61.244
1586.1600, -61.253
1586.1800, -61.295
1586.2000, -61.255
1586.2200, -61.302
1586.2400, -61.282
1586.2600, -61.306
1586.2800, -61.289
1586.3000, -61.310
1586.3200, -61.301
1586.3400, -61.353
1586.3600, -61.340
1586.3800, -61.334
1586.4000, -61.311
1586.4200, -61.351
1586.4400, -61.344
1586.4600, -61.349
1586.4800, -61.355
1586.5000, -61.345
1586.5200, -61.353
1586.5400, -61.398
1586.5600, -61.365
1586.5800, -61.360
1586.6000, -61.396
1586.6200, -61.380
1586.6400, -61.402
1586.6600, -61.366
1586.6800, -61.422
1586.7000, -61.396
1586.7200, -61.422
1586.7400, -61.426
1586.7600, -61.383
1586.7800, -61.434
1586.8000, -61.414
1586.8200, -61.434
1586.8400, -61.437
1586.8600, -61.447
1586.8800, -61.439
1586.9000, -61.448
1586.9200, -61.426
1586.9400, -61.433
1586.9600, -61.444
1586.9800, -61.448
1587.0000, -61.464
1587.0200, -61.464
1587.0400, -61.476
1587.0600, -61.489
1587.0800, -61.474
1587.1000, -61.450
1587.1200, -61.516
1587.1400, -61.485
1587.1600, -61.523
1587.1800, -61.520
1587.2000, -61.545
1587.2200, -61.513
1587.2400, -61.546
1587.2600, -61.544
1587.2800, -61.483
1587.3000, -61.564
1587.3200, -61.524
1587.3400, -61.527
1587.3600, -61.531
1587.3800, -61.558
1587.4000, -61.585
1587.4200, -61.528
1587.4400, -61.582
1587.4600, -61.577
1587.4800, -61.612
1587.5000, -61.572
1587.5200, -61.626
1587.5400, -61.613
1587.5600, -61.582
1587.5800, -61.607
1587.6000, -61.615
1587.6200, -61.584
1587.6400, -61.623
1587.6600, -61.596
1587.6800, -61.619
1587.7000, -61.600
1587.7200, -61.627
1587.7400, -61.621
1587.7600, -61.604
1587.7800, -61.634
1587.8000, -61.619
1587.8200, -61.663
1587.8400, -61.650
1587.8600, -61.693
1587.8800, -61.649
1587.9000, -61.609
1587.9200, -61.669
1587.9400, -61.672
1587.9600, -61.689
1587.9800, -61.703
1588.0000, -61.676
1588.0200, -61.699
1588.0400, -61.730
1588.0600, -61.683
1588.0800, -61.725
1588.1000, -61.755
1588.1200, -61.724
1588.1400, -61.707
1588.1600, -61.768
1588.1800, -61.726
1588.2000, -61.726
1588.2200, -61.743
1588.2400, -61.730
1588.2600, -61.760
1588.2800, -61.734
1588.3000, -61.804
1588.3200, -61.744
1588.3400, -61.758
1588.3600, -61.829
1588.3800, -61.730
1588.4000, -61.769
1588.4200, -61.744
1588.4400, -61.795
1588.4600, -61.744
1588.4800, -61.778
1588.5000, -61.800
1588.5200, -61.808
1588.5400, -61.824
1588.5600, -61.828
1588.5800, -61.813
1588.6000, -61.788
1588.6200, -61.820
1588.6400, -61.797
1588.6600, -61.825
1588.6800, -61.817
1588.7000, -61.832
1588.7200, -61.804
1588.7400, -61.841
1588.7600, -61.829
1588.7800, -61.889
1588.8000, -61.870
1588.8200, -61.847
1588.8400, -61.859
1588.8600, -61.872
1588.8800, -61.840
1588.9000, -61.876
1588.9200, -61.918
1588.9400, -61.845
1588.9600, -61.868
1588.9800, -61.916
1589.0000, -61.884
1589.0200, -61.967
1589.0400, -61.887
1589.0600, -61.930
1589.0800, -61.953
1589.1000, -61.880
1589.1200, -61.920
1589.1400, -61.928
1589.1600, -61.938
1589.1800, -61.943
1589.2000, -61.896
1589.2200, -61.951
1589.2400, -61.933
1589.2600, -61.928
1589.2800, -61.969
1589.3000, -61.959
1589.3200, -61.941
1589.3400, -61.974
1589.3600, -61.965
1589.3800, -61.968
1589.4000, -61.962
1589.4200, -61.975
1589.4400, -61.955
1589.4600, -61.954
1589.4800, -61.992
1589.5000, -61.977
1589.5200, -61.996
1589.5400, -61.979
1589.5600, -61.990
1589.5800, -62.000
1589.6000, -62.021
1589.6200, -62.001
1589.6400, -62.006
1589.6600, -62.026
1589.6800, -62.027
1589.7000, -62.019
1589.7200, -62.061
1589.7400, -62.077
1589.7600, -62.033
1589.7800, -62.038
1589.8000, -62.039
1589.8200, -62.054
1589.8400, -62.057
1589.8600, -62.082
1589.8800, -62.047
1589.9000, -62.052
1589.9200, -62.089
1589.9400, -62.073
1589.9600, -62.083
1589.9800, -62.107
1590.0000, -62.042
1590.0200, -62.103
1590.0400, -62.109
1590.0600, -62.094
1590.0800, -62.110
1590.1000, -62.132
1590.1200, -62.097
1590.1400, -62.124
1590.1600, -62.128
1590.1800, -62.105
1590.2000, -62.095
1590.2200, -62.153
1590.2400, -62.098
1590.2600, -62.125
1590.2800, -62.132
1590.3000, -62.131
1590.3200, -62.167
1590.3400, -62.211
1590.3600, -62.120
1590.3800, -62.189
1590.4000, -62.131
1590.4200, -62.141
1590.4400, -62.164
1590.4600, -62.174
1590.4800, -62.212
1590.5000, -62.200
1590.5200, -62.189
1590.5400, -62.209
1590.5600, -62.183
1590.5800, -62.194
1590.6000, -62.215
1590.6200, -62.192
1590.6400, -62.234
1590.6600, -62.231
1590.6800, -62.247
1590.7000, -62.227
1590.7200, -62.210
1590.7400, -62.278
1590.7600, -62.259
1590.7800, -62.238
1590.8000, -62.195
1590.8200, -62.269
1590.8400, -62.265
1590.8600, -62.207
1590.8800, -62.304
1590.9000, -62.248
1590.9200, -62.290
1590.9400, -62.243
1590.9600, -62.249
1590.9800, -62.276
1591.0000, -62.303
1591.0200, -62.275
1591.0400, -62.251
1591.0600, -62.283
1591.0800, -62.309
1591.1000, -62.256
1591.1200, -62.337
1591.1400, -62.289
1591.1600, -62.263
1591.1800, -62.321
1591.2000, -62.338
1591.2200, -62.293
1591.2400, -62.368
1591.2600, -62.337
1591.2800, -62.346
1591.3000, -62.368
1591.3200, -62.364
1591.3400, -62.344
1591.3600, -62.352
1591.3800, -62.301
1591.4000, -62.372
1591.4200, -62.368
1591.4400, -62.376
1591.4600, -62.389
1591.4800, -62.404
1591.5000, -62.426
1591.5200, -62.371
1591.5400, -62.374
1591.5600, -62.415
1591.5800, -62.409
1591.6000, -62.417
1591.6200, -62.425
1591.6400, -62.397
1591.6600, -62.445
1591.6800, -62.434
1591.7000, -62.484
1591.7200, -62.447
1591.7400, -62.449
1591.7600, -62.413
1591.7800, -62.416
1591.8000, -62.466
1591.8200, -62.417
1591.8400, -62.451
1591.8600, -62.483
1591.8800, -62.432
1591.9000, -62.514
1591.9200, -62.485
1591.9400, -62.419
1591.9600, -62.475
1591.9800, -62.445
1592.0000, -62.464
1592.0200, -62.469
1592.0400, -62.482
1592.0600, -62.558
1592.0800, -62.429
1592.1000, -62.475
1592.1200, -62.506
1592.1400, -62.474
1592.1600, -62.506
1592.1800, -62.527
1592.2000, -62.518
1592.2200, -62.550
1592.2400, -62.519
1592.2600, -62.575
1592.2800, -62.564
1592.3000, -62.535
1592.3200, -62.539
1592.3400, -62.534
1592.3600, -62.618
1592.3800, -62.557
1592.4000, -62.587
1592.4200, -62.532
1592.4400, -62.549
1592.4600, -62.605
1592.4800, -62.557
1592.5000, -62.592
1592.5200, -62.595
1592.5400, -62.607
1592.5600, -62.553
1592.5800, -62.586
1592.6000, -62.625
1592.6200, -62.541
1592.6400, -62.641
1592.6600, -62.565
1592.6800, -62.650
1592.7000, -62.603
1592.7200, -62.622
1592.7400, -62.617
1592.7600, -62.621
1592.7800, -62.591
1592.8000, -62.602
1592.8200, -62.655
1592.8400, -62.617
1592.8600, -62.733
1592.8800, -62.649
1592.9000, -62.640
1592.9200, -62.628
1592.9400, -62.640
1592.9600, -62.696
1592.9800, -62.662
1593.0000, -62.691
1593.0200, -62.700
1593.0400, -62.679
1593.0600, -62.721
1593.0800, -62.679
1593.1000, -62.711
1593.1200, -62.713
1593.1400, -62.652
1593.1600, -62.712
1593.1800, -62.707
1593.2000, -62.694
1593.2200, -62.737
1593.2400, -62.784
1593.2600, -62.701
1593.2800, -62.733
1593.3000, -62.719
1593.3200, -62.723
1593.3400, -62.714
1593.3600, -62.796
1593.3800, -62.701
1593.4000, -62.769
1593.4200, -62.736
1593.4400, -62.739
1593.4600, -62.800
1593.4800, -62.728
1593.5000, -62.808
1593.5200, -62.734
1593.5400, -62.792
1593.5600, -62.755
1593.5800, -62.730
1593.6000, -62.755
1593.6200, -62.777
1593.6400, -62.762
1593.6600, -62.803
1593.6800, -62.774
1593.7000, -62.791
1593.7200, -62.790
1593.7400, -62.830
1593.7600, -62.785
1593.7800, -62.797
1593.8000, -62.807
1593.8200, -62.835
1593.8400, -62.841
1593.8600, -62.812
1593.8800, -62.809
1593.9000, -62.885
1593.9200, -62.859
1593.9400, -62.863
1593.9600, -62.837
1593.9800, -62.839
1594.0000, -62.950
1594.0200, -62.811
1594.0400, -62.845
1594.0600, -62.878
1594.0800, -62.948
1594.1000, -62.855
1594.1200, -62.911
1594.1400, -62.876
1594.1600, -62.826
1594.1800, -62.893
1594.2000, -62.895
1594.2200, -62.941
1594.2400, -62.935
1594.2600, -62.896
1594.2800, -62.923
1594.3000, -62.883
1594.3200, -62.953
1594.3400, -62.962
1594.3600, -62.892
1594.3800, -62.988
1594.4000, -62.952
1594.4200, -62.900
1594.4400, -62.929
1594.4600, -62.912
1594.4800, -62.969
1594.5000, -62.940
1594.5200, -62.957
1594.5400, -63.033
1594.5600, -62.959
1594.5800, -62.934
1594.6000, -62.985
1594.6200, -62.978
1594.6400, -62.971
1594.6600, -62.999
1594.6800, -63.025
1594.7000, -62.993
1594.7200, -62.955
1594.7400, -62.998
1594.7600, -63.008
1594.7800, -63.015
1594.8000, -63.009
1594.8200, -63.071
1594.8400, -63.032
1594.8600, -63.001
1594.8800, -63.054
1594.9000, -63.041
1594.9200, -63.006
1594.9400, -63.025
1594.9600, -63.042
1594.9800, -63.086
1595.0000, -63.045
1595.0200, -63.076
1595.0400, -63.081
1595.0600, -63.060
1595.0800, -63.078
1595.1000, -63.051
1595.1200, -63.119
1595.1400, -63.033
1595.1600, -63.083
1595.1800, -63.107
1595.2000, -63.088
1595.2200, -63.090
1595.2400, -63.070
1595.2600, -63.116
1595.2800, -63.123
1595.3000, -63.129
1595.3200, -63.151
1595.3400, -63.037
1595.3600, -63.146
1595.3800, -63.103
1595.4000, -63.136
1595.4200, -63.125
1595.4400, -63.180
1595.4600, -63.094
1595.4800, -63.164
1595.5000, -63.122
1595.5200, -63.160
1595.5400, -63.126
1595.5600, -63.174
1595.5800, -63.181
1595.6000, -63.192
1595.6200, -63.152
1595.6400, -63.156
1595.6600, -63.175
1595.6800, -63.173
1595.7000, -63.227
1595.7200, -63.178
1595.7400, -63.200
1595.7600, -63.186
1595.7800, -63.206
1595.8000, -63.237
1595.8200, -63.215
1595.8400, -63.210
1595.8600, -63.209
1595.8800, -63.255
1595.9000, -63.261
1595.9200, -63.208
1595.9400, -63.246
1595.9600, -63.231
1595.9800, -63.251
1596.0000, -63.277
1596.0200, -63.297
1596.0400, -63.239
1596.0600, -63.259
1596.0800, -63.263
1596.1000, -63.239
1596.1200, -63.298
1596.1400, -63.252
1596.1600, -63.281
1596.1800, -63.287
1596.2000, -63.287
1596.2200, -63.311
1596.2400, -63.279
1596.2600, -63.269
1596.2800, -63.328
1596.3000, -63.231
1596.3200, -63.331
1596.3400, -63.317
1596.3600, -63.292
1596.3800, -63.299
1596.4000, -63.345
1596.4200, -63.346
1596.4400, -63.286
1596.4600, -63.324
1596.4800, -63.325
1596.5000, -63.316
1596.5200, -63.376
1596.5400, -63.328
1596.5600, -63.375
1596.5800, -63.363
1596.6000, -63.364
1596.6200, -63.368
1596.6400, -63.399
1596.6600, -63.398
1596.6800, -63.412
1596.7000, -63.397
1596.7200, -63.367
1596.7400, -63.364
1596.7600, -63.420
1596.7800, -63.382
1596.8000, -63.368
1596.8200, -63.400
1596.8400, -63.382
1596.8600, -63.393
1596.8800, -63.433
1596.9000, -63.379
1596.9200, -63.369
1596.9400, -63.427
1596.9600, -63.442
1596.9800, -63.434
1597.0000, -63.367
1597.0200, -63.450
1597.0400, -63.431
1597.0600, -63.408
1597.0800, -63.415
1597.1000, -63.502
1597.1200, -63.389
1597.1400, -63.392
1597.1600, -63.554
1597.1800, -63.437
1597.2000, -63.439
1597.2200, -63.385
1597.2400, -63.502
1597.2600, -63.440
1597.2800, -63.516
1597.3000, -63.480
1597.3200, -63.504
1597.3400, -63.486
1597.3600, -63.493
1597.3800, -63.480
1597.4000, -63.488
1597.4200, -63.475
1597.4400, -63.545
1597.4600, -63.516
1597.4800, -63.507
1597.5000, -63.540
1597.5200, -63.512
1597.5400, -63.510
1597.5600, -63.516
1597.5800, -63.540
1597.6000, -63.517
1597.6200, -63.581
1597.6400, -63.531
1597.6600, -63.572
1597.6800, -63.493
1597.7000, -63.568
1597.7200, -63.560
1597.7400, -63.592
1597.7600, -63.563
1597.7800, -63.541
1597.8000, -63.554
1597.8200, -63.574
1597.8400, -63.552
1597.8600, -63.619
1597.8800, -63.573
1597.9000, -63.604
1597.9200, -63.549
1597.9400, -63.595
1597.9600, -63.584
1597.9800, -63.572
1598.0000, -63.617
1598.0200, -63.584
1598.0400, -63.629
1598.0600, -63.621
1598.0800, -63.710
1598.1000, -63.545
1598.1200, -63.746
1598.1400, -63.610
1598.1600, -63.637
1598.1800, -63.642
1598.2000, -63.718
1598.2200, -63.693
1598.2400, -63.635
1598.2600, -63.658
1598.2800, -63.675
1598.3000, -63.710
1598.3200, -63.625
1598.3400, -63.614
1598.3600, -63.725
1598.3800, -63.743
1598.4000, -63.715
1598.4200, -63.654
1598.4400, -63.677
1598.4600, -63.674
1598.4800, -63.655
1598.5000, -63.649
1598.5200, -63.725
1598.5400, -63.694
1598.5600, -63.772
1598.5800, -63.687
1598.6000, -63.744
1598.6200, -63.707
1598.6400, -63.732
1598.6600, -63.734
1598.6800, -63.716
1598.7000, -63.706
1598.7200, -63.798
1598.7400, -63.749
1598.7600, -63.797
1598.7800, -63.747
1598.8000, -63.747
1598.8200, -63.802
1598.8400, -63.703
1598.8600, -63.778
1598.8800, -63.790
1598.9000, -63.820
1598.9200, -63.798
1598.9400, -63.868
1598.9600, -63.793
1598.9800, -63.722
1599.0000, -63.836
1599.0200, -63.852
1599.0400, -63.872
1599.0600, -63.697
1599.0800, -63.862
1599.1000, -63.738
1599.1200, -63.865
1599.1400, -63.826
1599.1600, -63.842
1599.1800, -63.810
1599.2000, -63.830
1599.2200, -63.853
1599.2400, -63.849
1599.2600, -63.880
1599.2800, -63.887
1599.3000, -63.883
1599.3200, -63.928
1599.3400, -63.863
1599.3600, -63.911
1599.3800, -63.797
1599.4000, -63.906
1599.4200, -63.918
1599.4400, -63.886
1599.4600, -63.897
1599.4800, -63.867
1599.5000, -63.935
1599.5200, -63.889
1599.5400, -63.938
1599.5600, -63.831
1599.5800, -63.882
1599.6000, -63.917
1599.6200, -63.925
1599.6400, -63.929
1599.6600, -63.892
1599.6800, -64.035
1599.7000, -63.911
1599.7200, -63.898
1599.7400, -63.904
1599.7600, -63.955
1599.7800, -64.023
1599.8000, -63.983
1599.8200, -63.978
1599.8400, -63.928
1599.8600, -63.989
1599.8800, -64.017
1599.9000, -63.942
1599.9200, -63.990
1599.9400, -63.866
1599.9600, -64.065
1599.9800, -64.079
1600.0000, -63.905
