70BCSV 	
// AQ6370B OPTICAL SPECTRUM ANALYZER //                 
25
"CTRWL",1550.000000
"SPAN", 100.000000
"START WL",1500.000000
"STOP WL",1600.000000
"WLFREQ", 0
"REFL",-28.8
"LSCL", 5.0
"RESLN",0.100
"AVG",   1
"SMPLAUTO",      0
"SMPL",       5001
"SMPLINTVL",0.0200
"HIGH1"
"MEAS"
"LSUNT",0
"NMSKH","OFF"
"RESCOR",0
"RESPARM", 9050
"FREQPARM", 9050






"[TRACE DATA]"
1500.0000, -62.269
1500.0200, -62.259
1500.0400, -62.245
1500.0600, -62.247
1500.0800, -62.261
1500.1000, -62.225
1500.1200, -62.229
1500.1400, -62.221
1500.1600, -62.206
1500.1800, -62.224
1500.2000, -62.202
1500.2200, -62.196
1500.2400, -62.196
1500.2600, -62.171
1500.2800, -62.222
1500.3000, -62.192
1500.3200, -62.171
1500.3400, -62.182
1500.3600, -62.189
1500.3800, -62.152
1500.4000, -62.160
1500.4200, -62.175
1500.4400, -62.142
1500.4600, -62.143
1500.4800, -62.142
1500.5000, -62.136
1500.5200, -62.116
1500.5400, -62.129
1500.5600, -62.118
1500.5800, -62.104
1500.6000, -62.109
1500.6200, -62.115
1500.6400, -62.113
1500.6600, -62.092
1500.6800, -62.107
1500.7000, -62.066
1500.7200, -62.035
1500.7400, -62.085
1500.7600, -62.068
1500.7800, -62.059
1500.8000, -62.030
1500.8200, -62.095
1500.8400, -62.022
1500.8600, -62.018
1500.8800, -62.025
1500.9000, -62.008
1500.9200, -61.985
1500.9400, -62.024
1500.9600, -61.949
1500.9800, -62.018
1501.0000, -61.972
1501.0200, -62.003
1501.0400, -61.995
1501.0600, -61.953
1501.0800, -61.988
1501.1000, -61.946
1501.1200, -61.957
1501.1400, -61.994
1501.1600, -61.951
1501.1800, -61.979
1501.2000, -61.916
1501.2200, -61.931
1501.2400, -61.922
1501.2600, -61.923
1501.2800, -61.924
1501.3000, -61.906
1501.3200, -61.892
1501.3400, -61.903
1501.3600, -61.930
1501.3800, -61.826
1501.4000, -61.858
1501.4200, -61.870
1501.4400, -61.873
1501.4600, -61.871
1501.4800, -61.864
1501.5000, -61.852
1501.5200, -61.862
1501.5400, -61.816
1501.5600, -61.816
1501.5800, -61.851
1501.6000, -61.786
1501.6200, -61.824
1501.6400, -61.831
1501.6600, -61.790
1501.6800, -61.811
1501.7000, -61.807
1501.7200, -61.812
1501.7400, -61.765
1501.7600, -61.748
1501.7800, -61.786
1501.8000, -61.786
1501.8200, -61.795
1501.8400, -61.812
1501.8600, -61.741
1501.8800, -61.744
1501.9000, -61.767
1501.9200, -61.736
1501.9400, -61.735
1501.9600, -61.717
1501.9800, -61.719
1502.0000, -61.746
1502.0200, -61.714
1502.0400, -61.725
1502.0600, -61.695
1502.0800, -61.669
1502.1000, -61.718
1502.1200, -61.653
1502.1400, -61.701
1502.1600, -61.626
1502.1800, -61.655
1502.2000, -61.651
1502.2200, -61.645
1502.2400, -61.667
1502.2600, -61.623
1502.2800, -61.622
1502.3000, -61.648
1502.3200, -61.613
1502.3400, -61.604
1502.3600, -61.626
1502.3800, -61.585
1502.4000, -61.588
1502.4200, -61.599
1502.4400, -61.568
1502.4600, -61.553
1502.4800, -61.531
1502.5000, -61.539
1502.5200, -61.532
1502.5400, -61.522
1502.5600, -61.549
1502.5800, -61.524
1502.6000, -61.509
1502.6200, -61.530
1502.6400, -61.491
1502.6600, -61.478
1502.6800, -61.474
1502.7000, -61.502
1502.7200, -61.470
1502.7400, -61.506
1502.7600, -61.494
1502.7800, -61.461
1502.8000, -61.451
1502.8200, -61.452
1502.8400, -61.476
1502.8600, -61.443
1502.8800, -61.429
1502.9000, -61.463
1502.9200, -61.394
1502.9400, -61.420
1502.9600, -61.391
1502.9800, -61.411
1503.0000, -61.396
1503.0200, -61.409
1503.0400, -61.369
1503.0600, -61.364
1503.0800, -61.385
1503.1000, -61.350
1503.1200, -61.345
1503.1400, -61.377
1503.1600, -61.344
1503.1800, -61.332
1503.2000, -61.359
1503.2200, -61.334
1503.2400, -61.305
1503.2600, -61.317
1503.2800, -61.310
1503.3000, -61.297
1503.3200, -61.275
1503.3400, -61.270
1503.3600, -61.289
1503.3800, -61.275
1503.4000, -61.283
1503.4200, -61.248
1503.4400, -61.246
1503.4600, -61.232
1503.4800, -61.261
1503.5000, -61.230
1503.5200, -61.213
1503.5400, -61.192
1503.5600, -61.201
1503.5800, -61.183
1503.6000, -61.209
1503.6200, -61.185
1503.6400, -61.180
1503.6600, -61.186
1503.6800, -61.183
1503.7000, -61.132
1503.7200, -61.177
1503.7400, -61.127
1503.7600, -61.153
1503.7800, -61.133
1503.8000, -61.115
1503.8200, -61.133
1503.8400, -61.139
1503.8600, -61.113
1503.8800, -61.129
1503.9000, -61.105
1503.9200, -61.096
1503.9400, -61.095
1503.9600, -61.061
1503.9800, -61.075
1504.0000, -61.101
1504.0200, -61.097
1504.0400, -61.038
1504.0600, -61.070
1504.0800, -61.046
1504.1000, -61.038
1504.1200, -61.002
1504.1400, -61.042
1504.1600, -60.999
1504.1800, -61.031
1504.2000, -60.980
1504.2200, -60.973
1504.2400, -61.009
1504.2600, -60.947
1504.2800, -60.989
1504.3000, -60.976
1504.3200, -60.931
1504.3400, -60.932
1504.3600, -60.920
1504.3800, -60.986
1504.4000, -60.893
1504.4200, -60.902
1504.4400, -60.921
1504.4600, -60.913
1504.4800, -60.890
1504.5000, -60.861
1504.5200, -60.878
1504.5400, -60.860
1504.5600, -60.899
1504.5800, -60.810
1504.6000, -60.857
1504.6200, -60.811
1504.6400, -60.837
1504.6600, -60.857
1504.6800, -60.812
1504.7000, -60.799
1504.7200, -60.799
1504.7400, -60.773
1504.7600, -60.802
1504.7800, -60.789
1504.8000, -60.790
1504.8200, -60.773
1504.8400, -60.770
1504.8600, -60.764
1504.8800, -60.758
1504.9000, -60.741
1504.9200, -60.728
1504.9400, -60.765
1504.9600, -60.711
1504.9800, -60.713
1505.0000, -60.717
1505.0200, -60.673
1505.0400, -60.687
1505.0600, -60.711
1505.0800, -60.673
1505.1000, -60.655
1505.1200, -60.672
1505.1400, -60.647
1505.1600, -60.652
1505.1800, -60.684
1505.2000, -60.632
1505.2200, -60.633
1505.2400, -60.605
1505.2600, -60.628
1505.2800, -60.604
1505.3000, -60.596
1505.3200, -60.567
1505.3400, -60.576
1505.3600, -60.551
1505.3800, -60.594
1505.4000, -60.529
1505.4200, -60.538
1505.4400, -60.552
1505.4600, -60.530
1505.4800, -60.515
1505.5000, -60.520
1505.5200, -60.506
1505.5400, -60.518
1505.5600, -60.496
1505.5800, -60.475
1505.6000, -60.500
1505.6200, -60.451
1505.6400, -60.453
1505.6600, -60.455
1505.6800, -60.443
1505.7000, -60.450
1505.7200, -60.430
1505.7400, -60.440
1505.7600, -60.430
1505.7800, -60.414
1505.8000, -60.391
1505.8200, -60.413
1505.8400, -60.394
1505.8600, -60.390
1505.8800, -60.389
1505.9000, -60.392
1505.9200, -60.372
1505.9400, -60.380
1505.9600, -60.341
1505.9800, -60.350
1506.0000, -60.352
1506.0200, -60.313
1506.0400, -60.328
1506.0600, -60.307
1506.0800, -60.299
1506.1000, -60.292
1506.1200, -60.304
1506.1400, -60.279
1506.1600, -60.286
1506.1800, -60.261
1506.2000, -60.258
1506.2200, -60.232
1506.2400, -60.239
1506.2600, -60.229
1506.2800, -60.221
1506.3000, -60.207
1506.3200, -60.232
1506.3400, -60.190
1506.3600, -60.193
1506.3800, -60.191
1506.4000, -60.162
1506.4200, -60.176
1506.4400, -60.160
1506.4600, -60.140
1506.4800, -60.156
1506.5000, -60.123
1506.5200, -60.133
1506.5400, -60.118
1506.5600, -60.120
1506.5800, -60.107
1506.6000, -60.112
1506.6200, -60.086
1506.6400, -60.092
1506.6600, -60.083
1506.6800, -60.071
1506.7000, -60.046
1506.7200, -60.057
1506.7400, -60.044
1506.7600, -60.057
1506.7800, -60.042
1506.8000, -60.051
1506.8200, -60.010
1506.8400, -60.019
1506.8600, -59.968
1506.8800, -59.985
1506.9000, -59.999
1506.9200, -59.972
1506.9400, -59.972
1506.9600, -59.952
1506.9800, -59.964
1507.0000, -59.945
1507.0200, -59.938
1507.0400, -59.968
1507.0600, -59.915
1507.0800, -59.930
1507.1000, -59.911
1507.1200, -59.901
1507.1400, -59.896
1507.1600, -59.885
1507.1800, -59.895
1507.2000, -59.858
1507.2200, -59.854
1507.2400, -59.841
1507.2600, -59.848
1507.2800, -59.860
1507.3000, -59.834
1507.3200, -59.852
1507.3400, -59.818
1507.3600, -59.806
1507.3800, -59.780
1507.4000, -59.788
1507.4200, -59.778
1507.4400, -59.766
1507.4600, -59.748
1507.4800, -59.755
1507.5000, -59.725
1507.5200, -59.756
1507.5400, -59.729
1507.5600, -59.699
1507.5800, -59.723
1507.6000, -59.705
1507.6200, -59.675
1507.6400, -59.694
1507.6600, -59.683
1507.6800, -59.690
1507.7000, -59.653
1507.7200, -59.669
1507.7400, -59.657
1507.7600, -59.623
1507.7800, -59.654
1507.8000, -59.614
1507.8200, -59.628
1507.8400, -59.626
1507.8600, -59.629
1507.8800, -59.597
1507.9000, -59.586
1507.9200, -59.589
1507.9400, -59.561
1507.9600, -59.547
1507.9800, -59.562
1508.0000, -59.541
1508.0200, -59.531
1508.0400, -59.547
1508.0600, -59.521
1508.0800, -59.502
1508.1000, -59.503
1508.1200, -59.494
1508.1400, -59.485
1508.1600, -59.488
1508.1800, -59.483
1508.2000, -59.464
1508.2200, -59.437
1508.2400, -59.444
1508.2600, -59.435
1508.2800, -59.442
1508.3000, -59.428
1508.3200, -59.412
1508.3400, -59.426
1508.3600, -59.396
1508.3800, -59.384
1508.4000, -59.377
1508.4200, -59.372
1508.4400, -59.352
1508.4600, -59.363
1508.4800, -59.371
1508.5000, -59.324
1508.5200, -59.321
1508.5400, -59.337
1508.5600, -59.318
1508.5800, -59.311
1508.6000, -59.324
1508.6200, -59.298
1508.6400, -59.279
1508.6600, -59.280
1508.6800, -59.295
1508.7000, -59.255
1508.7200, -59.244
1508.7400, -59.255
1508.7600, -59.248
1508.7800, -59.231
1508.8000, -59.252
1508.8200, -59.215
1508.8400, -59.225
1508.8600, -59.186
1508.8800, -59.209
1508.9000, -59.168
1508.9200, -59.162
1508.9400, -59.177
1508.9600, -59.148
1508.9800, -59.142
1509.0000, -59.151
1509.0200, -59.124
1509.0400, -59.144
1509.0600, -59.096
1509.0800, -59.113
1509.1000, -59.124
1509.1200, -59.109
1509.1400, -59.069
1509.1600, -59.059
1509.1800, -59.070
1509.2000, -59.029
1509.2200, -59.035
1509.2400, -59.045
1509.2600, -59.031
1509.2800, -58.992
1509.3000, -59.017
1509.3200, -58.987
1509.3400, -58.984
1509.3600, -58.973
1509.3800, -58.967
1509.4000, -58.953
1509.4200, -58.948
1509.4400, -58.952
1509.4600, -58.943
1509.4800, -58.934
1509.5000, -58.920
1509.5200, -58.897
1509.5400, -58.899
1509.5600, -58.874
1509.5800, -58.899
1509.6000, -58.901
1509.6200, -58.854
1509.6400, -58.860
1509.6600, -58.859
1509.6800, -58.837
1509.7000, -58.833
1509.7200, -58.834
1509.7400, -58.813
1509.7600, -58.772
1509.7800, -58.790
1509.8000, -58.804
1509.8200, -58.782
1509.8400, -58.774
1509.8600, -58.765
1509.8800, -58.742
1509.9000, -58.747
1509.9200, -58.731
1509.9400, -58.749
1509.9600, -58.734
1509.9800, -58.718
1510.0000, -58.734
1510.0200, -58.687
1510.0400, -58.672
1510.0600, -58.687
1510.0800, -58.670
1510.1000, -58.654
1510.1200, -58.650
1510.1400, -58.632
1510.1600, -58.610
1510.1800, -58.632
1510.2000, -58.588
1510.2200, -58.600
1510.2400, -58.570
1510.2600, -58.581
1510.2800, -58.547
1510.3000, -58.578
1510.3200, -58.511
1510.3400, -58.531
1510.3600, -58.521
1510.3800, -58.496
1510.4000, -58.485
1510.4200, -58.471
1510.4400, -58.480
1510.4600, -58.463
1510.4800, -58.466
1510.5000, -58.442
1510.5200, -58.441
1510.5400, -58.431
1510.5600, -58.421
1510.5800, -58.415
1510.6000, -58.418
1510.6200, -58.375
1510.6400, -58.387
1510.6600, -58.355
1510.6800, -58.363
1510.7000, -58.357
1510.7200, -58.345
1510.7400, -58.338
1510.7600, -58.322
1510.7800, -58.298
1510.8000, -58.290
1510.8200, -58.282
1510.8400, -58.266
1510.8600, -58.269
1510.8800, -58.251
1510.9000, -58.262
1510.9200, -58.242
1510.9400, -58.228
1510.9600, -58.215
1510.9800, -58.203
1511.0000, -58.195
1511.0200, -58.186
1511.0400, -58.173
1511.0600, -58.145
1511.0800, -58.149
1511.1000, -58.135
1511.1200, -58.111
1511.1400, -58.128
1511.1600, -58.121
1511.1800, -58.080
1511.2000, -58.080
1511.2200, -58.065
1511.2400, -58.060
1511.2600, -58.058
1511.2800, -58.033
1511.3000, -58.032
1511.3200, -58.020
1511.3400, -58.009
1511.3600, -57.989
1511.3800, -58.000
1511.4000, -57.962
1511.4200, -57.970
1511.4400, -57.929
1511.4600, -57.944
1511.4800, -57.930
1511.5000, -57.926
1511.5200, -57.917
1511.5400, -57.913
1511.5600, -57.870
1511.5800, -57.894
1511.6000, -57.875
1511.6200, -57.849
1511.6400, -57.850
1511.6600, -57.830
1511.6800, -57.845
1511.7000, -57.805
1511.7200, -57.805
1511.7400, -57.793
1511.7600, -57.793
1511.7800, -57.771
1511.8000, -57.765
1511.8200, -57.745
1511.8400, -57.728
1511.8600, -57.733
1511.8800, -57.706
1511.9000, -57.707
1511.9200, -57.691
1511.9400, -57.680
1511.9600, -57.668
1511.9800, -57.673
1512.0000, -57.627
1512.0200, -57.635
1512.0400, -57.612
1512.0600, -57.606
1512.0800, -57.616
1512.1000, -57.584
1512.1200, -57.571
1512.1400, -57.558
1512.1600, -57.563
1512.1800, -57.542
1512.2000, -57.533
1512.2200, -57.528
1512.2400, -57.508
1512.2600, -57.499
1512.2800, -57.486
1512.3000, -57.481
1512.3200, -57.471
1512.3400, -57.442
1512.3600, -57.435
1512.3800, -57.428
1512.4000, -57.413
1512.4200, -57.418
1512.4400, -57.417
1512.4600, -57.397
1512.4800, -57.390
1512.5000, -57.365
1512.5200, -57.366
1512.5400, -57.349
1512.5600, -57.345
1512.5800, -57.333
1512.6000, -57.333
1512.6200, -57.321
1512.6400, -57.298
1512.6600, -57.276
1512.6800, -57.271
1512.7000, -57.257
1512.7200, -57.253
1512.7400, -57.233
1512.7600, -57.226
1512.7800, -57.211
1512.8000, -57.216
1512.8200, -57.187
1512.8400, -57.173
1512.8600, -57.187
1512.8800, -57.151
1512.9000, -57.165
1512.9200, -57.132
1512.9400, -57.125
1512.9600, -57.102
1512.9800, -57.096
1513.0000, -57.078
1513.0200, -57.067
1513.0400, -57.064
1513.0600, -57.038
1513.0800, -57.045
1513.1000, -57.013
1513.1200, -57.006
1513.1400, -57.012
1513.1600, -57.013
1513.1800, -57.001
1513.2000, -56.955
1513.2200, -56.957
1513.2400, -56.944
1513.2600, -56.944
1513.2800, -56.915
1513.3000, -56.921
1513.3200, -56.882
1513.3400, -56.881
1513.3600, -56.869
1513.3800, -56.864
1513.4000, -56.851
1513.4200, -56.845
1513.4400, -56.838
1513.4600, -56.816
1513.4800, -56.811
1513.5000, -56.804
1513.5200, -56.793
1513.5400, -56.780
1513.5600, -56.777
1513.5800, -56.762
1513.6000, -56.745
1513.6200, -56.722
1513.6400, -56.700
1513.6600, -56.714
1513.6800, -56.694
1513.7000, -56.671
1513.7200, -56.656
1513.7400, -56.653
1513.7600, -56.643
1513.7800, -56.627
1513.8000, -56.613
1513.8200, -56.595
1513.8400, -56.573
1513.8600, -56.583
1513.8800, -56.563
1513.9000, -56.554
1513.9200, -56.534
1513.9400, -56.516
1513.9600, -56.497
1513.9800, -56.499
1514.0000, -56.473
1514.0200, -56.469
1514.0400, -56.448
1514.0600, -56.451
1514.0800, -56.425
1514.1000, -56.426
1514.1200, -56.427
1514.1400, -56.402
1514.1600, -56.383
1514.1800, -56.361
1514.2000, -56.370
1514.2200, -56.338
1514.2400, -56.326
1514.2600, -56.318
1514.2800, -56.300
1514.3000, -56.292
1514.3200, -56.288
1514.3400, -56.262
1514.3600, -56.263
1514.3800, -56.250
1514.4000, -56.239
1514.4200, -56.217
1514.4400, -56.210
1514.4600, -56.197
1514.4800, -56.180
1514.5000, -56.145
1514.5200, -56.161
1514.5400, -56.138
1514.5600, -56.141
1514.5800, -56.106
1514.6000, -56.113
1514.6200, -56.092
1514.6400, -56.073
1514.6600, -56.071
1514.6800, -56.062
1514.7000, -56.047
1514.7200, -56.017
1514.7400, -56.016
1514.7600, -55.990
1514.7800, -55.997
1514.8000, -55.971
1514.8200, -55.956
1514.8400, -55.947
1514.8600, -55.926
1514.8800, -55.930
1514.9000, -55.908
1514.9200, -55.894
1514.9400, -55.870
1514.9600, -55.857
1514.9800, -55.840
1515.0000, -55.831
1515.0200, -55.821
1515.0400, -55.812
1515.0600, -55.796
1515.0800, -55.775
1515.1000, -55.755
1515.1200, -55.745
1515.1400, -55.737
1515.1600, -55.716
1515.1800, -55.702
1515.2000, -55.692
1515.2200, -55.670
1515.2400, -55.668
1515.2600, -55.658
1515.2800, -55.643
1515.3000, -55.617
1515.3200, -55.613
1515.3400, -55.599
1515.3600, -55.584
1515.3800, -55.566
1515.4000, -55.566
1515.4200, -55.530
1515.4400, -55.515
1515.4600, -55.499
1515.4800, -55.499
1515.5000, -55.475
1515.5200, -55.479
1515.5400, -55.466
1515.5600, -55.441
1515.5800, -55.433
1515.6000, -55.407
1515.6200, -55.405
1515.6400, -55.393
1515.6600, -55.370
1515.6800, -55.357
1515.7000, -55.344
1515.7200, -55.326
1515.7400, -55.318
1515.7600, -55.299
1515.7800, -55.289
1515.8000, -55.269
1515.8200, -55.255
1515.8400, -55.232
1515.8600, -55.227
1515.8800, -55.207
1515.9000, -55.189
1515.9200, -55.172
1515.9400, -55.160
1515.9600, -55.141
1515.9800, -55.130
1516.0000, -55.124
1516.0200, -55.106
1516.0400, -55.080
1516.0600, -55.064
1516.0800, -55.064
1516.1000, -55.036
1516.1200, -55.013
1516.1400, -55.013
1516.1600, -54.992
1516.1800, -54.964
1516.2000, -54.965
1516.2200, -54.951
1516.2400, -54.931
1516.2600, -54.928
1516.2800, -54.906
1516.3000, -54.895
1516.3200, -54.872
1516.3400, -54.870
1516.3600, -54.831
1516.3800, -54.813
1516.4000, -54.813
1516.4200, -54.780
1516.4400, -54.777
1516.4600, -54.759
1516.4800, -54.742
1516.5000, -54.728
1516.5200, -54.717
1516.5400, -54.696
1516.5600, -54.677
1516.5800, -54.679
1516.6000, -54.654
1516.6200, -54.633
1516.6400, -54.618
1516.6600, -54.594
1516.6800, -54.582
1516.7000, -54.549
1516.7200, -54.538
1516.7400, -54.526
1516.7600, -54.509
1516.7800, -54.494
1516.8000, -54.476
1516.8200, -54.463
1516.8400, -54.438
1516.8600, -54.420
1516.8800, -54.406
1516.9000, -54.397
1516.9200, -54.367
1516.9400, -54.346
1516.9600, -54.327
1516.9800, -54.318
1517.0000, -54.286
1517.0200, -54.283
1517.0400, -54.263
1517.0600, -54.244
1517.0800, -54.233
1517.1000, -54.212
1517.1200, -54.193
1517.1400, -54.176
1517.1600, -54.166
1517.1800, -54.143
1517.2000, -54.136
1517.2200, -54.108
1517.2400, -54.089
1517.2600, -54.073
1517.2800, -54.054
1517.3000, -54.027
1517.3200, -54.007
1517.3400, -53.986
1517.3600, -53.981
1517.3800, -53.962
1517.4000, -53.946
1517.4200, -53.935
1517.4400, -53.915
1517.4600, -53.887
1517.4800, -53.879
1517.5000, -53.855
1517.5200, -53.851
1517.5400, -53.822
1517.5600, -53.809
1517.5800, -53.778
1517.6000, -53.768
1517.6200, -53.755
1517.6400, -53.728
1517.6600, -53.706
1517.6800, -53.667
1517.7000, -53.653
1517.7200, -53.637
1517.7400, -53.628
1517.7600, -53.611
1517.7800, -53.578
1517.8000, -53.561
1517.8200, -53.541
1517.8400, -53.522
1517.8600, -53.504
1517.8800, -53.472
1517.9000, -53.460
1517.9200, -53.435
1517.9400, -53.425
1517.9600, -53.403
1517.9800, -53.382
1518.0000, -53.361
1518.0200, -53.350
1518.0400, -53.324
1518.0600, -53.302
1518.0800, -53.284
1518.1000, -53.264
1518.1200, -53.246
1518.1400, -53.238
1518.1600, -53.205
1518.1800, -53.188
1518.2000, -53.164
1518.2200, -53.143
1518.2400, -53.116
1518.2600, -53.082
1518.2800, -53.066
1518.3000, -53.057
1518.3200, -53.049
1518.3400, -53.026
1518.3600, -52.988
1518.3800, -52.979
1518.4000, -52.957
1518.4200, -52.935
1518.4400, -52.905
1518.4600, -52.905
1518.4800, -52.877
1518.5000, -52.848
1518.5200, -52.830
1518.5400, -52.799
1518.5600, -52.782
1518.5800, -52.746
1518.6000, -52.733
1518.6200, -52.707
1518.6400, -52.683
1518.6600, -52.665
1518.6800, -52.643
1518.7000, -52.629
1518.7200, -52.598
1518.7400, -52.573
1518.7600, -52.545
1518.7800, -52.531
1518.8000, -52.498
1518.8200, -52.474
1518.8400, -52.450
1518.8600, -52.435
1518.8800, -52.414
1518.9000, -52.384
1518.9200, -52.368
1518.9400, -52.346
1518.9600, -52.333
1518.9800, -52.297
1519.0000, -52.277
1519.0200, -52.248
1519.0400, -52.232
1519.0600, -52.209
1519.0800, -52.195
1519.1000, -52.163
1519.1200, -52.132
1519.1400, -52.107
1519.1600, -52.088
1519.1800, -52.042
1519.2000, -52.014
1519.2200, -51.994
1519.2400, -51.974
1519.2600, -51.963
1519.2800, -51.944
1519.3000, -51.901
1519.3200, -51.881
1519.3400, -51.863
1519.3600, -51.842
1519.3800, -51.811
1519.4000, -51.806
1519.4200, -51.766
1519.4400, -51.734
1519.4600, -51.705
1519.4800, -51.679
1519.5000, -51.660
1519.5200, -51.619
1519.5400, -51.602
1519.5600, -51.555
1519.5800, -51.553
1519.6000, -51.519
1519.6200, -51.493
1519.6400, -51.481
1519.6600, -51.441
1519.6800, -51.411
1519.7000, -51.380
1519.7200, -51.362
1519.7400, -51.314
1519.7600, -51.276
1519.7800, -51.270
1519.8000, -51.241
1519.8200, -51.219
1519.8400, -51.194
1519.8600, -51.164
1519.8800, -51.135
1519.9000, -51.119
1519.9200, -51.087
1519.9400, -51.055
1519.9600, -51.019
1519.9800, -50.997
1520.0000, -50.976
1520.0200, -50.957
1520.0400, -50.918
1520.0600, -50.885
1520.0800, -50.853
1520.1000, -50.829
1520.1200, -50.781
1520.1400, -50.745
1520.1600, -50.716
1520.1800, -50.695
1520.2000, -50.663
1520.2200, -50.646
1520.2400, -50.603
1520.2600, -50.585
1520.2800, -50.573
1520.3000, -50.538
1520.3200, -50.496
1520.3400, -50.496
1520.3600, -50.450
1520.3800, -50.414
1520.4000, -50.381
1520.4200, -50.349
1520.4400, -50.320
1520.4600, -50.275
1520.4800, -50.250
1520.5000, -50.205
1520.5200, -50.194
1520.5400, -50.155
1520.5600, -50.128
1520.5800, -50.105
1520.6000, -50.057
1520.6200, -50.027
1520.6400, -49.992
1520.6600, -49.966
1520.6800, -49.923
1520.7000, -49.893
1520.7200, -49.853
1520.7400, -49.821
1520.7600, -49.781
1520.7800, -49.766
1520.8000, -49.731
1520.8200, -49.700
1520.8400, -49.676
1520.8600, -49.636
1520.8800, -49.596
1520.9000, -49.565
1520.9200, -49.532
1520.9400, -49.501
1520.9600, -49.477
1520.9800, -49.442
1521.0000, -49.399
1521.0200, -49.366
1521.0400, -49.330
1521.0600, -49.279
1521.0800, -49.239
1521.1000, -49.211
1521.1200, -49.181
1521.1400, -49.137
1521.1600, -49.108
1521.1800, -49.077
1521.2000, -49.046
1521.2200, -49.019
1521.2400, -48.987
1521.2600, -48.943
1521.2800, -48.935
1521.3000, -48.889
1521.3200, -48.843
1521.3400, -48.807
1521.3600, -48.771
1521.3800, -48.731
1521.4000, -48.685
1521.4200, -48.654
1521.4400, -48.613
1521.4600, -48.596
1521.4800, -48.545
1521.5000, -48.518
1521.5200, -48.481
1521.5400, -48.432
1521.5600, -48.396
1521.5800, -48.360
1521.6000, -48.325
1521.6200, -48.275
1521.6400, -48.220
1521.6600, -48.195
1521.6800, -48.170
1521.7000, -48.138
1521.7200, -48.099
1521.7400, -48.064
1521.7600, -48.023
1521.7800, -47.996
1521.8000, -47.942
1521.8200, -47.899
1521.8400, -47.871
1521.8600, -47.838
1521.8800, -47.803
1521.9000, -47.775
1521.9200, -47.736
1521.9400, -47.685
1521.9600, -47.653
1521.9800, -47.614
1522.0000, -47.560
1522.0200, -47.514
1522.0400, -47.484
1522.0600, -47.452
1522.0800, -47.417
1522.1000, -47.384
1522.1200, -47.334
1522.1400, -47.303
1522.1600, -47.279
1522.1800, -47.240
1522.2000, -47.200
1522.2200, -47.175
1522.2400, -47.122
1522.2600, -47.075
1522.2800, -47.038
1522.3000, -47.001
1522.3200, -46.960
1522.3400, -46.917
1522.3600, -46.867
1522.3800, -46.828
1522.4000, -46.806
1522.4200, -46.749
1522.4400, -46.733
1522.4600, -46.683
1522.4800, -46.634
1522.5000, -46.596
1522.5200, -46.557
1522.5400, -46.517
1522.5600, -46.462
1522.5800, -46.423
1522.6000, -46.388
1522.6200, -46.355
1522.6400, -46.319
1522.6600, -46.273
1522.6800, -46.234
1522.7000, -46.204
1522.7200, -46.161
1522.7400, -46.120
1522.7600, -46.081
1522.7800, -46.040
1522.8000, -46.002
1522.8200, -45.966
1522.8400, -45.935
1522.8600, -45.892
1522.8800, -45.845
1522.9000, -45.810
1522.9200, -45.770
1522.9400, -45.721
1522.9600, -45.684
1522.9800, -45.650
1523.0000, -45.611
1523.0200, -45.579
1523.0400, -45.531
1523.0600, -45.495
1523.0800, -45.454
1523.1000, -45.425
1523.1200, -45.380
1523.1400, -45.348
1523.1600, -45.309
1523.1800, -45.257
1523.2000, -45.220
1523.2200, -45.178
1523.2400, -45.142
1523.2600, -45.086
1523.2800, -45.049
1523.3000, -45.002
1523.3200, -44.968
1523.3400, -44.934
1523.3600, -44.882
1523.3800, -44.856
1523.4000, -44.809
1523.4200, -44.771
1523.4400, -44.730
1523.4600, -44.694
1523.4800, -44.652
1523.5000, -44.606
1523.5200, -44.562
1523.5400, -44.526
1523.5600, -44.482
1523.5800, -44.454
1523.6000, -44.414
1523.6200, -44.377
1523.6400, -44.344
1523.6600, -44.297
1523.6800, -44.261
1523.7000, -44.224
1523.7200, -44.188
1523.7400, -44.151
1523.7600, -44.121
1523.7800, -44.076
1523.8000, -44.041
1523.8200, -43.996
1523.8400, -43.958
1523.8600, -43.917
1523.8800, -43.870
1523.9000, -43.835
1523.9200, -43.804
1523.9400, -43.760
1523.9600, -43.733
1523.9800, -43.685
1524.0000, -43.652
1524.0200, -43.633
1524.0400, -43.585
1524.0600, -43.537
1524.0800, -43.512
1524.1000, -43.466
1524.1200, -43.417
1524.1400, -43.380
1524.1600, -43.344
1524.1800, -43.301
1524.2000, -43.259
1524.2200, -43.221
1524.2400, -43.180
1524.2600, -43.150
1524.2800, -43.107
1524.3000, -43.067
1524.3200, -43.037
1524.3400, -42.988
1524.3600, -42.953
1524.3800, -42.913
1524.4000, -42.878
1524.4200, -42.834
1524.4400, -42.792
1524.4600, -42.758
1524.4800, -42.719
1524.5000, -42.683
1524.5200, -42.651
1524.5400, -42.615
1524.5600, -42.580
1524.5800, -42.546
1524.6000, -42.508
1524.6200, -42.465
1524.6400, -42.425
1524.6600, -42.398
1524.6800, -42.359
1524.7000, -42.331
1524.7200, -42.294
1524.7400, -42.251
1524.7600, -42.221
1524.7800, -42.178
1524.8000, -42.133
1524.8200, -42.094
1524.8400, -42.062
1524.8600, -42.024
1524.8800, -41.995
1524.9000, -41.953
1524.9200, -41.912
1524.9400, -41.876
1524.9600, -41.838
1524.9800, -41.813
1525.0000, -41.767
1525.0200, -41.741
1525.0400, -41.695
1525.0600, -41.652
1525.0800, -41.612
1525.1000, -41.577
1525.1200, -41.538
1525.1400, -41.497
1525.1600, -41.460
1525.1800, -41.427
1525.2000, -41.393
1525.2200, -41.347
1525.2400, -41.322
1525.2600, -41.287
1525.2800, -41.242
1525.3000, -41.208
1525.3200, -41.175
1525.3400, -41.136
1525.3600, -41.094
1525.3800, -41.059
1525.4000, -41.020
1525.4200, -40.978
1525.4400, -40.950
1525.4600, -40.914
1525.4800, -40.874
1525.5000, -40.848
1525.5200, -40.802
1525.5400, -40.775
1525.5600, -40.735
1525.5800, -40.687
1525.6000, -40.666
1525.6200, -40.637
1525.6400, -40.603
1525.6600, -40.573
1525.6800, -40.527
1525.7000, -40.487
1525.7200, -40.449
1525.7400, -40.412
1525.7600, -40.376
1525.7800, -40.340
1525.8000, -40.298
1525.8200, -40.276
1525.8400, -40.229
1525.8600, -40.193
1525.8800, -40.153
1525.9000, -40.123
1525.9200, -40.078
1525.9400, -40.056
1525.9600, -40.023
1525.9800, -39.974
1526.0000, -39.944
1526.0200, -39.905
1526.0400, -39.869
1526.0600, -39.818
1526.0800, -39.793
1526.1000, -39.747
1526.1200, -39.720
1526.1400, -39.685
1526.1600, -39.640
1526.1800, -39.621
1526.2000, -39.568
1526.2200, -39.531
1526.2400, -39.493
1526.2600, -39.459
1526.2800, -39.422
1526.3000, -39.381
1526.3200, -39.347
1526.3400, -39.314
1526.3600, -39.276
1526.3800, -39.256
1526.4000, -39.219
1526.4200, -39.186
1526.4400, -39.156
1526.4600, -39.121
1526.4800, -39.089
1526.5000, -39.048
1526.5200, -39.015
1526.5400, -38.984
1526.5600, -38.953
1526.5800, -38.922
1526.6000, -38.883
1526.6200, -38.852
1526.6400, -38.808
1526.6600, -38.778
1526.6800, -38.736
1526.7000, -38.710
1526.7200, -38.666
1526.7400, -38.642
1526.7600, -38.602
1526.7800, -38.556
1526.8000, -38.529
1526.8200, -38.492
1526.8400, -38.459
1526.8600, -38.420
1526.8800, -38.399
1526.9000, -38.346
1526.9200, -38.308
1526.9400, -38.274
1526.9600, -38.237
1526.9800, -38.188
1527.0000, -38.159
1527.0200, -38.105
1527.0400, -38.069
1527.0600, -38.051
1527.0800, -37.997
1527.1000, -37.980
1527.1200, -37.949
1527.1400, -37.900
1527.1600, -37.863
1527.1800, -37.837
1527.2000, -37.793
1527.2200, -37.756
1527.2400, -37.707
1527.2600, -37.678
1527.2800, -37.644
1527.3000, -37.621
1527.3200, -37.587
1527.3400, -37.550
1527.3600, -37.534
1527.3800, -37.488
1527.4000, -37.465
1527.4200, -37.430
1527.4400, -37.398
1527.4600, -37.365
1527.4800, -37.332
1527.5000, -37.289
1527.5200, -37.255
1527.5400, -37.209
1527.5600, -37.175
1527.5800, -37.152
1527.6000, -37.102
1527.6200, -37.078
1527.6400, -37.045
1527.6600, -36.993
1527.6800, -36.977
1527.7000, -36.913
1527.7200, -36.879
1527.7400, -36.874
1527.7600, -36.824
1527.7800, -36.767
1527.8000, -36.751
1527.8200, -36.714
1527.8400, -36.654
1527.8600, -36.628
1527.8800, -36.588
1527.9000, -36.549
1527.9200, -36.498
1527.9400, -36.473
1527.9600, -36.403
1527.9800, -36.390
1528.0000, -36.332
1528.0200, -36.288
1528.0400, -36.272
1528.0600, -36.215
1528.0800, -36.178
1528.1000, -36.148
1528.1200, -36.110
1528.1400, -36.062
1528.1600, -36.005
1528.1800, -35.973
1528.2000, -35.941
1528.2200, -35.905
1528.2400, -35.879
1528.2600, -35.828
1528.2800, -35.798
1528.3000, -35.768
1528.3200, -35.735
1528.3400, -35.685
1528.3600, -35.662
1528.3800, -35.634
1528.4000, -35.591
1528.4200, -35.571
1528.4400, -35.532
1528.4600, -35.484
1528.4800, -35.454
1528.5000, -35.415
1528.5200, -35.386
1528.5400, -35.357
1528.5600, -35.333
1528.5800, -35.287
1528.6000, -35.278
1528.6200, -35.216
1528.6400, -35.168
1528.6600, -35.144
1528.6800, -35.115
1528.7000, -35.060
1528.7200, -35.031
1528.7400, -35.020
1528.7600, -34.942
1528.7800, -34.915
1528.8000, -34.873
1528.8200, -34.807
1528.8400, -34.758
1528.8600, -34.751
1528.8800, -34.686
1528.9000, -34.671
1528.9200, -34.626
1528.9400, -34.569
1528.9600, -34.555
1528.9800, -34.493
1529.0000, -34.449
1529.0200, -34.423
1529.0400, -34.400
1529.0600, -34.350
1529.0800, -34.312
1529.1000, -34.261
1529.1200, -34.228
1529.1400, -34.189
1529.1600, -34.176
1529.1800, -34.122
1529.2000, -34.085
1529.2200, -34.067
1529.2400, -34.011
1529.2600, -33.973
1529.2800, -33.939
1529.3000, -33.893
1529.3200, -33.860
1529.3400, -33.813
1529.3600, -33.781
1529.3800, -33.756
1529.4000, -33.699
1529.4200, -33.662
1529.4400, -33.627
1529.4600, -33.590
1529.4800, -33.584
1529.5000, -33.533
1529.5200, -33.524
1529.5400, -33.497
1529.5600, -33.432
1529.5800, -33.418
1529.6000, -33.401
1529.6200, -33.325
1529.6400, -33.277
1529.6600, -33.288
1529.6800, -33.217
1529.7000, -33.188
1529.7200, -33.149
1529.7400, -33.118
1529.7600, -33.069
1529.7800, -33.021
1529.8000, -32.950
1529.8200, -32.909
1529.8400, -32.889
1529.8600, -32.820
1529.8800, -32.814
1529.9000, -32.775
1529.9200, -32.710
1529.9400, -32.666
1529.9600, -32.639
1529.9800, -32.569
1530.0000, -32.510
1530.0200, -32.436
1530.0400, -32.409
1530.0600, -32.357
1530.0800, -32.309
1530.1000, -32.299
1530.1200, -32.242
1530.1400, -32.229
1530.1600, -32.165
1530.1800, -32.155
1530.2000, -32.106
1530.2200, -32.063
1530.2400, -32.065
1530.2600, -32.044
1530.2800, -32.006
1530.3000, -31.992
1530.3200, -31.939
1530.3400, -31.914
1530.3600, -31.865
1530.3800, -31.773
1530.4000, -31.741
1530.4200, -31.680
1530.4400, -31.620
1530.4600, -31.603
1530.4800, -31.511
1530.5000, -31.487
1530.5200, -31.461
1530.5400, -31.425
1530.5600, -31.345
1530.5800, -31.341
1530.6000, -31.293
1530.6200, -31.227
1530.6400, -31.197
1530.6600, -31.155
1530.6800, -31.116
1530.7000, -31.067
1530.7200, -31.056
1530.7400, -31.024
1530.7600, -31.029
1530.7800, -30.945
1530.8000, -30.943
1530.8200, -30.960
1530.8400, -30.883
1530.8600, -30.830
1530.8800, -30.829
1530.9000, -30.793
1530.9200, -30.756
1530.9400, -30.687
1530.9600, -30.683
1530.9800, -30.696
1531.0000, -30.698
1531.0200, -30.700
1531.0400, -30.655
1531.0600, -30.621
1531.0800, -30.591
1531.1000, -30.564
1531.1200, -30.487
1531.1400, -30.473
1531.1600, -30.475
1531.1800, -30.457
1531.2000, -30.424
1531.2200, -30.387
1531.2400, -30.291
1531.2600, -30.279
1531.2800, -30.200
1531.3000, -30.180
1531.3200, -30.143
1531.3400, -30.073
1531.3600, -30.023
1531.3800, -30.034
1531.4000, -29.931
1531.4200, -29.920
1531.4400, -29.931
1531.4600, -29.907
1531.4800, -29.887
1531.5000, -29.902
1531.5200, -29.922
1531.5400, -29.874
1531.5600, -29.877
1531.5800, -29.860
1531.6000, -29.830
1531.6200, -29.796
1531.6400, -29.813
1531.6600, -29.768
1531.6800, -29.735
1531.7000, -29.665
1531.7200, -29.639
1531.7400, -29.665
1531.7600, -29.572
1531.7800, -29.540
1531.8000, -29.553
1531.8200, -29.531
1531.8400, -29.455
1531.8600, -29.385
1531.8800, -29.351
1531.9000, -29.346
1531.9200, -29.343
1531.9400, -29.385
1531.9600, -29.360
1531.9800, -29.363
1532.0000, -29.385
1532.0200, -29.418
1532.0400, -29.375
1532.0600, -29.446
1532.0800, -29.483
1532.1000, -29.509
1532.1200, -29.582
1532.1400, -29.602
1532.1600, -29.580
1532.1800, -29.589
1532.2000, -29.600
1532.2200, -29.605
1532.2400, -29.599
1532.2600, -29.621
1532.2800, -29.583
1532.3000, -29.629
1532.3200, -29.554
1532.3400, -29.549
1532.3600, -29.611
1532.3800, -29.605
1532.4000, -29.619
1532.4200, -29.647
1532.4400, -29.680
1532.4600, -29.597
1532.4800, -29.611
1532.5000, -29.571
1532.5200, -29.593
1532.5400, -29.586
1532.5600, -29.648
1532.5800, -29.687
1532.6000, -29.755
1532.6200, -29.720
1532.6400, -29.746
1532.6600, -29.811
1532.6800, -29.763
1532.7000, -29.771
1532.7200, -29.780
1532.7400, -29.796
1532.7600, -29.782
1532.7800, -29.775
1532.8000, -29.809
1532.8200, -29.828
1532.8400, -29.850
1532.8600, -29.956
1532.8800, -29.973
1532.9000, -30.020
1532.9200, -30.074
1532.9400, -30.138
1532.9600, -30.175
1532.9800, -30.223
1533.0000, -30.279
1533.0200, -30.297
1533.0400, -30.359
1533.0600, -30.373
1533.0800, -30.398
1533.1000, -30.448
1533.1200, -30.465
1533.1400, -30.503
1533.1600, -30.533
1533.1800, -30.607
1533.2000, -30.576
1533.2200, -30.633
1533.2400, -30.638
1533.2600, -30.660
1533.2800, -30.748
1533.3000, -30.775
1533.3200, -30.787
1533.3400, -30.815
1533.3600, -30.880
1533.3800, -30.861
1533.4000, -30.927
1533.4200, -31.008
1533.4400, -31.064
1533.4600, -31.115
1533.4800, -31.195
1533.5000, -31.175
1533.5200, -31.289
1533.5400, -31.326
1533.5600, -31.387
1533.5800, -31.515
1533.6000, -31.548
1533.6200, -31.645
1533.6400, -31.714
1533.6600, -31.769
1533.6800, -31.803
1533.7000, -31.851
1533.7200, -31.928
1533.7400, -32.018
1533.7600, -32.071
1533.7800, -32.166
1533.8000, -32.210
1533.8200, -32.280
1533.8400, -32.351
1533.8600, -32.411
1533.8800, -32.490
1533.9000, -32.576
1533.9200, -32.671
1533.9400, -32.721
1533.9600, -32.784
1533.9800, -32.841
1534.0000, -32.878
1534.0200, -32.930
1534.0400, -32.974
1534.0600, -33.080
1534.0800, -33.122
1534.1000, -33.198
1534.1200, -33.203
1534.1400, -33.286
1534.1600, -33.306
1534.1800, -33.357
1534.2000, -33.439
1534.2200, -33.475
1534.2400, -33.525
1534.2600, -33.598
1534.2800, -33.686
1534.3000, -33.713
1534.3200, -33.804
1534.3400, -33.870
1534.3600, -33.923
1534.3800, -33.964
1534.4000, -34.018
1534.4200, -34.042
1534.4400, -34.128
1534.4600, -34.169
1534.4800, -34.227
1534.5000, -34.317
1534.5200, -34.353
1534.5400, -34.420
1534.5600, -34.483
1534.5800, -34.525
1534.6000, -34.574
1534.6200, -34.625
1534.6400, -34.668
1534.6600, -34.721
1534.6800, -34.771
1534.7000, -34.843
1534.7200, -34.904
1534.7400, -34.965
1534.7600, -35.037
1534.7800, -35.084
1534.8000, -35.138
1534.8200, -35.211
1534.8400, -35.287
1534.8600, -35.342
1534.8800, -35.401
1534.9000, -35.445
1534.9200, -35.488
1534.9400, -35.542
1534.9600, -35.602
1534.9800, -35.668
1535.0000, -35.736
1535.0200, -35.816
1535.0400, -35.837
1535.0600, -35.906
1535.0800, -35.937
1535.1000, -35.985
1535.1200, -36.052
1535.1400, -36.100
1535.1600, -36.142
1535.1800, -36.202
1535.2000, -36.266
1535.2200, -36.292
1535.2400, -36.351
1535.2600, -36.415
1535.2800, -36.461
1535.3000, -36.505
1535.3200, -36.559
1535.3400, -36.589
1535.3600, -36.647
1535.3800, -36.696
1535.4000, -36.738
1535.4200, -36.810
1535.4400, -36.841
1535.4600, -36.889
1535.4800, -36.942
1535.5000, -36.991
1535.5200, -37.038
1535.5400, -37.095
1535.5600, -37.124
1535.5800, -37.191
1535.6000, -37.227
1535.6200, -37.281
1535.6400, -37.325
1535.6600, -37.378
1535.6800, -37.428
1535.7000, -37.481
1535.7200, -37.512
1535.7400, -37.571
1535.7600, -37.633
1535.7800, -37.683
1535.8000, -37.731
1535.8200, -37.775
1535.8400, -37.819
1535.8600, -37.854
1535.8800, -37.918
1535.9000, -37.948
1535.9200, -37.988
1535.9400, -38.054
1535.9600, -38.079
1535.9800, -38.134
1536.0000, -38.159
1536.0200, -38.206
1536.0400, -38.261
1536.0600, -38.294
1536.0800, -38.328
1536.1000, -38.374
1536.1200, -38.436
1536.1400, -38.466
1536.1600, -38.514
1536.1800, -38.562
1536.2000, -38.591
1536.2200, -38.622
1536.2400, -38.662
1536.2600, -38.690
1536.2800, -38.736
1536.3000, -38.770
1536.3200, -38.811
1536.3400, -38.865
1536.3600, -38.887
1536.3800, -38.927
1536.4000, -38.972
1536.4200, -39.004
1536.4400, -39.036
1536.4600, -39.074
1536.4800, -39.110
1536.5000, -39.146
1536.5200, -39.178
1536.5400, -39.236
1536.5600, -39.257
1536.5800, -39.293
1536.6000, -39.321
1536.6200, -39.357
1536.6400, -39.386
1536.6600, -39.410
1536.6800, -39.457
1536.7000, -39.488
1536.7200, -39.518
1536.7400, -39.555
1536.7600, -39.577
1536.7800, -39.612
1536.8000, -39.646
1536.8200, -39.675
1536.8400, -39.707
1536.8600, -39.747
1536.8800, -39.761
1536.9000, -39.799
1536.9200, -39.822
1536.9400, -39.864
1536.9600, -39.898
1536.9800, -39.916
1537.0000, -39.936
1537.0200, -39.985
1537.0400, -40.014
1537.0600, -40.028
1537.0800, -40.064
1537.1000, -40.092
1537.1200, -40.106
1537.1400, -40.130
1537.1600, -40.155
1537.1800, -40.181
1537.2000, -40.206
1537.2200, -40.230
1537.2400, -40.258
1537.2600, -40.289
1537.2800, -40.300
1537.3000, -40.327
1537.3200, -40.359
1537.3400, -40.372
1537.3600, -40.393
1537.3800, -40.420
1537.4000, -40.444
1537.4200, -40.468
1537.4400, -40.499
1537.4600, -40.531
1537.4800, -40.543
1537.5000, -40.577
1537.5200, -40.590
1537.5400, -40.616
1537.5600, -40.631
1537.5800, -40.651
1537.6000, -40.686
1537.6200, -40.711
1537.6400, -40.725
1537.6600, -40.750
1537.6800, -40.759
1537.7000, -40.775
1537.7200, -40.800
1537.7400, -40.817
1537.7600, -40.838
1537.7800, -40.864
1537.8000, -40.875
1537.8200, -40.903
1537.8400, -40.914
1537.8600, -40.941
1537.8800, -40.959
1537.9000, -40.976
1537.9200, -40.989
1537.9400, -41.021
1537.9600, -41.033
1537.9800, -41.041
1538.0000, -41.067
1538.0200, -41.081
1538.0400, -41.088
1538.0600, -41.099
1538.0800, -41.120
1538.1000, -41.134
1538.1200, -41.151
1538.1400, -41.160
1538.1600, -41.190
1538.1800, -41.201
1538.2000, -41.205
1538.2200, -41.227
1538.2400, -41.239
1538.2600, -41.246
1538.2800, -41.253
1538.3000, -41.267
1538.3200, -41.277
1538.3400, -41.285
1538.3600, -41.312
1538.3800, -41.326
1538.4000, -41.335
1538.4200, -41.358
1538.4400, -41.363
1538.4600, -41.376
1538.4800, -41.385
1538.5000, -41.401
1538.5200, -41.418
1538.5400, -41.435
1538.5600, -41.443
1538.5800, -41.457
1538.6000, -41.465
1538.6200, -41.469
1538.6400, -41.482
1538.6600, -41.492
1538.6800, -41.503
1538.7000, -41.516
1538.7200, -41.523
1538.7400, -41.532
1538.7600, -41.536
1538.7800, -41.572
1538.8000, -41.566
1538.8200, -41.574
1538.8400, -41.573
1538.8600, -41.597
1538.8800, -41.596
1538.9000, -41.597
1538.9200, -41.607
1538.9400, -41.613
1538.9600, -41.613
1538.9800, -41.623
1539.0000, -41.625
1539.0200, -41.640
1539.0400, -41.643
1539.0600, -41.643
1539.0800, -41.665
1539.1000, -41.663
1539.1200, -41.661
1539.1400, -41.676
1539.1600, -41.676
1539.1800, -41.678
1539.2000, -41.679
1539.2200, -41.685
1539.2400, -41.692
1539.2600, -41.699
1539.2800, -41.710
1539.3000, -41.713
1539.3200, -41.723
1539.3400, -41.728
1539.3600, -41.734
1539.3800, -41.729
1539.4000, -41.735
1539.4200, -41.750
1539.4400, -41.751
1539.4600, -41.756
1539.4800, -41.769
1539.5000, -41.770
1539.5200, -41.771
1539.5400, -41.775
1539.5600, -41.781
1539.5800, -41.785
1539.6000, -41.789
1539.6200, -41.792
1539.6400, -41.799
1539.6600, -41.796
1539.6800, -41.803
1539.7000, -41.826
1539.7200, -41.816
1539.7400, -41.807
1539.7600, -41.812
1539.7800, -41.819
1539.8000, -41.812
1539.8200, -41.813
1539.8400, -41.818
1539.8600, -41.814
1539.8800, -41.805
1539.9000, -41.814
1539.9200, -41.814
1539.9400, -41.817
1539.9600, -41.819
1539.9800, -41.821
1540.0000, -41.831
1540.0200, -41.817
1540.0400, -41.822
1540.0600, -41.828
1540.0800, -41.822
1540.1000, -41.813
1540.1200, -41.822
1540.1400, -41.827
1540.1600, -41.823
1540.1800, -41.828
1540.2000, -41.835
1540.2200, -41.833
1540.2400, -41.845
1540.2600, -41.840
1540.2800, -41.841
1540.3000, -41.830
1540.3200, -41.831
1540.3400, -41.830
1540.3600, -41.835
1540.3800, -41.831
1540.4000, -41.841
1540.4200, -41.833
1540.4400, -41.820
1540.4600, -41.821
1540.4800, -41.825
1540.5000, -41.825
1540.5200, -41.816
1540.5400, -41.818
1540.5600, -41.825
1540.5800, -41.817
1540.6000, -41.834
1540.6200, -41.832
1540.6400, -41.825
1540.6600, -41.808
1540.6800, -41.819
1540.7000, -41.811
1540.7200, -41.803
1540.7400, -41.801
1540.7600, -41.802
1540.7800, -41.796
1540.8000, -41.789
1540.8200, -41.785
1540.8400, -41.798
1540.8600, -41.789
1540.8800, -41.777
1540.9000, -41.784
1540.9200, -41.782
1540.9400, -41.771
1540.9600, -41.774
1540.9800, -41.772
1541.0000, -41.768
1541.0200, -41.757
1541.0400, -41.761
1541.0600, -41.757
1541.0800, -41.752
1541.1000, -41.756
1541.1200, -41.748
1541.1400, -41.756
1541.1600, -41.755
1541.1800, -41.756
1541.2000, -41.745
1541.2200, -41.743
1541.2400, -41.744
1541.2600, -41.743
1541.2800, -41.746
1541.3000, -41.752
1541.3200, -41.738
1541.3400, -41.735
1541.3600, -41.735
1541.3800, -41.728
1541.4000, -41.724
1541.4200, -41.717
1541.4400, -41.712
1541.4600, -41.715
1541.4800, -41.713
1541.5000, -41.707
1541.5200, -41.727
1541.5400, -41.713
1541.5600, -41.707
1541.5800, -41.696
1541.6000, -41.702
1541.6200, -41.693
1541.6400, -41.682
1541.6600, -41.679
1541.6800, -41.674
1541.7000, -41.655
1541.7200, -41.661
1541.7400, -41.651
1541.7600, -41.667
1541.7800, -41.652
1541.8000, -41.648
1541.8200, -41.652
1541.8400, -41.641
1541.8600, -41.631
1541.8800, -41.635
1541.9000, -41.628
1541.9200, -41.611
1541.9400, -41.616
1541.9600, -41.612
1541.9800, -41.603
1542.0000, -41.601
1542.0200, -41.596
1542.0400, -41.593
1542.0600, -41.594
1542.0800, -41.589
1542.1000, -41.590
1542.1200, -41.578
1542.1400, -41.574
1542.1600, -41.575
1542.1800, -41.582
1542.2000, -41.578
1542.2200, -41.580
1542.2400, -41.566
1542.2600, -41.559
1542.2800, -41.558
1542.3000, -41.548
1542.3200, -41.542
1542.3400, -41.534
1542.3600, -41.528
1542.3800, -41.529
1542.4000, -41.525
1542.4200, -41.525
1542.4400, -41.529
1542.4600, -41.522
1542.4800, -41.508
1542.5000, -41.506
1542.5200, -41.504
1542.5400, -41.497
1542.5600, -41.489
1542.5800, -41.492
1542.6000, -41.487
1542.6200, -41.480
1542.6400, -41.474
1542.6600, -41.470
1542.6800, -41.473
1542.7000, -41.466
1542.7200, -41.465
1542.7400, -41.458
1542.7600, -41.450
1542.7800, -41.443
1542.8000, -41.445
1542.8200, -41.441
1542.8400, -41.433
1542.8600, -41.426
1542.8800, -41.421
1542.9000, -41.415
1542.9200, -41.417
1542.9400, -41.410
1542.9600, -41.412
1542.9800, -41.408
1543.0000, -41.407
1543.0200, -41.395
1543.0400, -41.388
1543.0600, -41.388
1543.0800, -41.387
1543.1000, -41.391
1543.1200, -41.388
1543.1400, -41.372
1543.1600, -41.370
1543.1800, -41.368
1543.2000, -41.364
1543.2200, -41.360
1543.2400, -41.353
1543.2600, -41.359
1543.2800, -41.357
1543.3000, -41.349
1543.3200, -41.343
1543.3400, -41.351
1543.3600, -41.344
1543.3800, -41.338
1543.4000, -41.351
1543.4200, -41.334
1543.4400, -41.328
1543.4600, -41.318
1543.4800, -41.315
1543.5000, -41.306
1543.5200, -41.293
1543.5400, -41.300
1543.5600, -41.299
1543.5800, -41.292
1543.6000, -41.297
1543.6200, -41.302
1543.6400, -41.294
1543.6600, -41.290
1543.6800, -41.278
1543.7000, -41.282
1543.7200, -41.271
1543.7400, -41.257
1543.7600, -41.266
1543.7800, -41.264
1543.8000, -41.251
1543.8200, -41.258
1543.8400, -41.254
1543.8600, -41.260
1543.8800, -41.263
1543.9000, -41.252
1543.9200, -41.252
1543.9400, -41.250
1543.9600, -41.248
1543.9800, -41.251
1544.0000, -41.251
1544.0200, -41.255
1544.0400, -41.248
1544.0600, -41.249
1544.0800, -41.245
1544.1000, -41.239
1544.1200, -41.237
1544.1400, -41.233
1544.1600, -41.229
1544.1800, -41.231
1544.2000, -41.229
1544.2200, -41.222
1544.2400, -41.240
1544.2600, -41.235
1544.2800, -41.229
1544.3000, -41.232
1544.3200, -41.226
1544.3400, -41.217
1544.3600, -41.213
1544.3800, -41.205
1544.4000, -41.206
1544.4200, -41.196
1544.4400, -41.199
1544.4600, -41.191
1544.4800, -41.207
1544.5000, -41.196
1544.5200, -41.191
1544.5400, -41.190
1544.5600, -41.181
1544.5800, -41.173
1544.6000, -41.175
1544.6200, -41.173
1544.6400, -41.166
1544.6600, -41.173
1544.6800, -41.175
1544.7000, -41.163
1544.7200, -41.169
1544.7400, -41.166
1544.7600, -41.170
1544.7800, -41.176
1544.8000, -41.176
1544.8200, -41.169
1544.8400, -41.166
1544.8600, -41.162
1544.8800, -41.163
1544.9000, -41.166
1544.9200, -41.165
1544.9400, -41.168
1544.9600, -41.166
1544.9800, -41.164
1545.0000, -41.162
1545.0200, -41.161
1545.0400, -41.162
1545.0600, -41.162
1545.0800, -41.159
1545.1000, -41.160
1545.1200, -41.154
1545.1400, -41.163
1545.1600, -41.170
1545.1800, -41.161
1545.2000, -41.163
1545.2200, -41.166
1545.2400, -41.156
1545.2600, -41.157
1545.2800, -41.146
1545.3000, -41.152
1545.3200, -41.138
1545.3400, -41.145
1545.3600, -41.143
1545.3800, -41.152
1545.4000, -41.148
1545.4200, -41.144
1545.4400, -41.149
1545.4600, -41.142
1545.4800, -41.136
1545.5000, -41.131
1545.5200, -41.132
1545.5400, -41.126
1545.5600, -41.122
1545.5800, -41.128
1545.6000, -41.121
1545.6200, -41.123
1545.6400, -41.131
1545.6600, -41.132
1545.6800, -41.138
1545.7000, -41.141
1545.7200, -41.133
1545.7400, -41.131
1545.7600, -41.131
1545.7800, -41.131
1545.8000, -41.137
1545.8200, -41.140
1545.8400, -41.145
1545.8600, -41.139
1545.8800, -41.136
1545.9000, -41.133
1545.9200, -41.134
1545.9400, -41.134
1545.9600, -41.128
1545.9800, -41.133
1546.0000, -41.132
1546.0200, -41.128
1546.0400, -41.133
1546.0600, -41.143
1546.0800, -41.129
1546.1000, -41.132
1546.1200, -41.139
1546.1400, -41.131
1546.1600, -41.131
1546.1800, -41.124
1546.2000, -41.131
1546.2200, -41.123
1546.2400, -41.125
1546.2600, -41.123
1546.2800, -41.130
1546.3000, -41.122
1546.3200, -41.124
1546.3400, -41.131
1546.3600, -41.127
1546.3800, -41.126
1546.4000, -41.121
1546.4200, -41.129
1546.4400, -41.128
1546.4600, -41.124
1546.4800, -41.125
1546.5000, -41.113
1546.5200, -41.117
1546.5400, -41.119
1546.5600, -41.121
1546.5800, -41.129
1546.6000, -41.133
1546.6200, -41.136
1546.6400, -41.132
1546.6600, -41.135
1546.6800, -41.136
1546.7000, -41.141
1546.7200, -41.144
1546.7400, -41.147
1546.7600, -41.139
1546.7800, -41.139
1546.8000, -41.140
1546.8200, -41.127
1546.8400, -41.128
1546.8600, -41.130
1546.8800, -41.127
1546.9000, -41.128
1546.9200, -41.129
1546.9400, -41.132
1546.9600, -41.128
1546.9800, -41.132
1547.0000, -41.133
1547.0200, -41.146
1547.0400, -41.132
1547.0600, -41.128
1547.0800, -41.125
1547.1000, -41.126
1547.1200, -41.117
1547.1400, -41.123
1547.1600, -41.127
1547.1800, -41.134
1547.2000, -41.134
1547.2200, -41.128
1547.2400, -41.137
1547.2600, -41.132
1547.2800, -41.129
1547.3000, -41.123
1547.3200, -41.127
1547.3400, -41.127
1547.3600, -41.122
1547.3800, -41.132
1547.4000, -41.129
1547.4200, -41.127
1547.4400, -41.129
1547.4600, -41.126
1547.4800, -41.134
1547.5000, -41.137
1547.5200, -41.129
1547.5400, -41.140
1547.5600, -41.137
1547.5800, -41.139
1547.6000, -41.146
1547.6200, -41.156
1547.6400, -41.160
1547.6600, -41.155
1547.6800, -41.164
1547.7000, -41.164
1547.7200, -41.162
1547.7400, -41.163
1547.7600, -41.160
1547.7800, -41.165
1547.8000, -41.167
1547.8200, -41.163
1547.8400, -41.161
1547.8600, -41.169
1547.8800, -41.159
1547.9000, -41.161
1547.9200, -41.177
1547.9400, -41.167
1547.9600, -41.168
1547.9800, -41.164
1548.0000, -41.169
1548.0200, -41.167
1548.0400, -41.173
1548.0600, -41.168
1548.0800, -41.164
1548.1000, -41.172
1548.1200, -41.173
1548.1400, -41.179
1548.1600, -41.177
1548.1800, -41.176
1548.2000, -41.172
1548.2200, -41.181
1548.2400, -41.173
1548.2600, -41.174
1548.2800, -41.184
1548.3000, -41.180
1548.3200, -41.175
1548.3400, -41.183
1548.3600, -41.180
1548.3800, -41.191
1548.4000, -41.195
1548.4200, -41.194
1548.4400, -41.198
1548.4600, -41.197
1548.4800, -41.193
1548.5000, -41.197
1548.5200, -41.200
1548.5400, -41.202
1548.5600, -41.197
1548.5800, -41.203
1548.6000, -41.209
1548.6200, -41.203
1548.6400, -41.201
1548.6600, -41.199
1548.6800, -41.207
1548.7000, -41.208
1548.7200, -41.207
1548.7400, -41.213
1548.7600, -41.213
1548.7800, -41.217
1548.8000, -41.219
1548.8200, -41.234
1548.8400, -41.223
1548.8600, -41.221
1548.8800, -41.217
1548.9000, -41.220
1548.9200, -41.217
1548.9400, -41.222
1548.9600, -41.222
1548.9800, -41.225
1549.0000, -41.225
1549.0200, -41.223
1549.0400, -41.227
1549.0600, -41.224
1549.0800, -41.221
1549.1000, -41.214
1549.1200, -41.218
1549.1400, -41.218
1549.1600, -41.212
1549.1800, -41.223
1549.2000, -41.218
1549.2200, -41.214
1549.2400, -41.227
1549.2600, -41.224
1549.2800, -41.230
1549.3000, -41.233
1549.3200, -41.234
1549.3400, -41.222
1549.3600, -41.232
1549.3800, -41.232
1549.4000, -41.241
1549.4200, -41.246
1549.4400, -41.258
1549.4600, -41.255
1549.4800, -41.255
1549.5000, -41.255
1549.5200, -41.258
1549.5400, -41.263
1549.5600, -41.266
1549.5800, -41.267
1549.6000, -41.270
1549.6200, -41.274
1549.6400, -41.282
1549.6600, -41.282
1549.6800, -41.286
1549.7000, -41.286
1549.7200, -41.301
1549.7400, -41.290
1549.7600, -41.292
1549.7800, -41.289
1549.8000, -41.297
1549.8200, -41.301
1549.8400, -41.301
1549.8600, -41.308
1549.8800, -41.314
1549.9000, -41.313
1549.9200, -41.310
1549.9400, -41.316
1549.9600, -41.313
1549.9800, -41.311
1550.0000, -41.308
1550.0200, -41.317
1550.0400, -41.314
1550.0600, -41.313
1550.0800, -41.312
1550.1000, -41.310
1550.1200, -41.308
1550.1400, -41.318
1550.1600, -41.314
1550.1800, -41.323
1550.2000, -41.329
1550.2200, -41.330
1550.2400, -41.333
1550.2600, -41.333
1550.2800, -41.336
1550.3000, -41.347
1550.3200, -41.355
1550.3400, -41.357
1550.3600, -41.356
1550.3800, -41.359
1550.4000, -41.354
1550.4200, -41.352
1550.4400, -41.354
1550.4600, -41.354
1550.4800, -41.358
1550.5000, -41.359
1550.5200, -41.359
1550.5400, -41.367
1550.5600, -41.384
1550.5800, -41.368
1550.6000, -41.369
1550.6200, -41.380
1550.6400, -41.378
1550.6600, -41.379
1550.6800, -41.375
1550.7000, -41.384
1550.7200, -41.381
1550.7400, -41.388
1550.7600, -41.390
1550.7800, -41.394
1550.8000, -41.399
1550.8200, -41.400
1550.8400, -41.407
1550.8600, -41.407
1550.8800, -41.407
1550.9000, -41.405
1550.9200, -41.413
1550.9400, -41.413
1550.9600, -41.408
1550.9800, -41.415
1551.0000, -41.417
1551.0200, -41.421
1551.0400, -41.424
1551.0600, -41.431
1551.0800, -41.439
1551.1000, -41.443
1551.1200, -41.448
1551.1400, -41.446
1551.1600, -41.445
1551.1800, -41.452
1551.2000, -41.463
1551.2200, -41.462
1551.2400, -41.474
1551.2600, -41.468
1551.2800, -41.475
1551.3000, -41.466
1551.3200, -41.465
1551.3400, -41.469
1551.3600, -41.473
1551.3800, -41.479
1551.4000, -41.479
1551.4200, -41.475
1551.4400, -41.482
1551.4600, -41.492
1551.4800, -41.485
1551.5000, -41.494
1551.5200, -41.498
1551.5400, -41.496
1551.5600, -41.495
1551.5800, -41.490
1551.6000, -41.496
1551.6200, -41.496
1551.6400, -41.500
1551.6600, -41.508
1551.6800, -41.508
1551.7000, -41.511
1551.7200, -41.518
1551.7400, -41.523
1551.7600, -41.521
1551.7800, -41.520
1551.8000, -41.519
1551.8200, -41.523
1551.8400, -41.526
1551.8600, -41.528
1551.8800, -41.521
1551.9000, -41.519
1551.9200, -41.533
1551.9400, -41.531
1551.9600, -41.537
1551.9800, -41.540
1552.0000, -41.542
1552.0200, -41.552
1552.0400, -41.549
1552.0600, -41.549
1552.0800, -41.555
1552.1000, -41.567
1552.1200, -41.572
1552.1400, -41.580
1552.1600, -41.576
1552.1800, -41.580
1552.2000, -41.576
1552.2200, -41.574
1552.2400, -41.578
1552.2600, -41.581
1552.2800, -41.586
1552.3000, -41.588
1552.3200, -41.587
1552.3400, -41.598
1552.3600, -41.604
1552.3800, -41.598
1552.4000, -41.596
1552.4200, -41.607
1552.4400, -41.609
1552.4600, -41.606
1552.4800, -41.604
1552.5000, -41.609
1552.5200, -41.606
1552.5400, -41.611
1552.5600, -41.619
1552.5800, -41.622
1552.6000, -41.625
1552.6200, -41.630
1552.6400, -41.636
1552.6600, -41.640
1552.6800, -41.638
1552.7000, -41.645
1552.7200, -41.641
1552.7400, -41.631
1552.7600, -41.644
1552.7800, -41.647
1552.8000, -41.641
1552.8200, -41.653
1552.8400, -41.653
1552.8600, -41.662
1552.8800, -41.668
1552.9000, -41.667
1552.9200, -41.672
1552.9400, -41.671
1552.9600, -41.672
1552.9800, -41.676
1553.0000, -41.685
1553.0200, -41.686
1553.0400, -41.689
1553.0600, -41.685
1553.0800, -41.684
1553.1000, -41.685
1553.1200, -41.688
1553.1400, -41.692
1553.1600, -41.699
1553.1800, -41.704
1553.2000, -41.706
1553.2200, -41.710
1553.2400, -41.712
1553.2600, -41.720
1553.2800, -41.718
1553.3000, -41.727
1553.3200, -41.729
1553.3400, -41.726
1553.3600, -41.725
1553.3800, -41.722
1553.4000, -41.715
1553.4200, -41.714
1553.4400, -41.717
1553.4600, -41.720
1553.4800, -41.721
1553.5000, -41.723
1553.5200, -41.729
1553.5400, -41.727
1553.5600, -41.728
1553.5800, -41.724
1553.6000, -41.734
1553.6200, -41.727
1553.6400, -41.726
1553.6600, -41.734
1553.6800, -41.728
1553.7000, -41.730
1553.7200, -41.739
1553.7400, -41.738
1553.7600, -41.744
1553.7800, -41.752
1553.8000, -41.757
1553.8200, -41.759
1553.8400, -41.761
1553.8600, -41.759
1553.8800, -41.768
1553.9000, -41.772
1553.9200, -41.779
1553.9400, -41.776
1553.9600, -41.780
1553.9800, -41.778
1554.0000, -41.776
1554.0200, -41.782
1554.0400, -41.790
1554.0600, -41.799
1554.0800, -41.803
1554.1000, -41.802
1554.1200, -41.815
1554.1400, -41.833
1554.1600, -41.821
1554.1800, -41.817
1554.2000, -41.823
1554.2200, -41.826
1554.2400, -41.822
1554.2600, -41.817
1554.2800, -41.822
1554.3000, -41.821
1554.3200, -41.821
1554.3400, -41.824
1554.3600, -41.832
1554.3800, -41.824
1554.4000, -41.825
1554.4200, -41.827
1554.4400, -41.827
1554.4600, -41.825
1554.4800, -41.824
1554.5000, -41.828
1554.5200, -41.831
1554.5400, -41.836
1554.5600, -41.837
1554.5800, -41.824
1554.6000, -41.839
1554.6200, -41.841
1554.6400, -41.848
1554.6600, -41.852
1554.6800, -41.856
1554.7000, -41.862
1554.7200, -41.859
1554.7400, -41.861
1554.7600, -41.861
1554.7800, -41.866
1554.8000, -41.866
1554.8200, -41.875
1554.8400, -41.869
1554.8600, -41.875
1554.8800, -41.867
1554.9000, -41.865
1554.9200, -41.871
1554.9400, -41.871
1554.9600, -41.873
1554.9800, -41.878
1555.0000, -41.875
1555.0200, -41.880
1555.0400, -41.878
1555.0600, -41.882
1555.0800, -41.890
1555.1000, -41.888
1555.1200, -41.888
1555.1400, -41.886
1555.1600, -41.887
1555.1800, -41.890
1555.2000, -41.891
1555.2200, -41.898
1555.2400, -41.898
1555.2600, -41.907
1555.2800, -41.905
1555.3000, -41.911
1555.3200, -41.911
1555.3400, -41.911
1555.3600, -41.905
1555.3800, -41.909
1555.4000, -41.906
1555.4200, -41.900
1555.4400, -41.914
1555.4600, -41.914
1555.4800, -41.910
1555.5000, -41.923
1555.5200, -41.924
1555.5400, -41.933
1555.5600, -41.939
1555.5800, -41.934
1555.6000, -41.942
1555.6200, -41.941
1555.6400, -41.944
1555.6600, -41.949
1555.6800, -41.956
1555.7000, -41.958
1555.7200, -41.956
1555.7400, -41.955
1555.7600, -41.955
1555.7800, -41.957
1555.8000, -41.960
1555.8200, -41.964
1555.8400, -41.967
1555.8600, -41.972
1555.8800, -41.974
1555.9000, -41.979
1555.9200, -41.979
1555.9400, -41.992
1555.9600, -41.990
1555.9800, -42.000
1556.0000, -42.004
1556.0200, -42.006
1556.0400, -42.003
1556.0600, -42.009
1556.0800, -41.998
1556.1000, -42.004
1556.1200, -42.008
1556.1400, -42.016
1556.1600, -42.017
1556.1800, -42.018
1556.2000, -42.023
1556.2200, -42.021
1556.2400, -42.022
1556.2600, -42.020
1556.2800, -42.024
1556.3000, -42.019
1556.3200, -42.023
1556.3400, -42.031
1556.3600, -42.033
1556.3800, -42.034
1556.4000, -42.035
1556.4200, -42.043
1556.4400, -42.047
1556.4600, -42.050
1556.4800, -42.056
1556.5000, -42.056
1556.5200, -42.058
1556.5400, -42.061
1556.5600, -42.070
1556.5800, -42.073
1556.6000, -42.080
1556.6200, -42.076
1556.6400, -42.082
1556.6600, -42.081
1556.6800, -42.081
1556.7000, -42.086
1556.7200, -42.092
1556.7400, -42.100
1556.7600, -42.101
1556.7800, -42.106
1556.8000, -42.111
1556.8200, -42.118
1556.8400, -42.112
1556.8600, -42.121
1556.8800, -42.122
1556.9000, -42.124
1556.9200, -42.120
1556.9400, -42.123
1556.9600, -42.123
1556.9800, -42.124
1557.0000, -42.127
1557.0200, -42.130
1557.0400, -42.128
1557.0600, -42.131
1557.0800, -42.138
1557.1000, -42.139
1557.1200, -42.141
1557.1400, -42.138
1557.1600, -42.148
1557.1800, -42.147
1557.2000, -42.143
1557.2200, -42.154
1557.2400, -42.158
1557.2600, -42.163
1557.2800, -42.168
1557.3000, -42.170
1557.3200, -42.179
1557.3400, -42.187
1557.3600, -42.194
1557.3800, -42.197
1557.4000, -42.201
1557.4200, -42.208
1557.4400, -42.216
1557.4600, -42.220
1557.4800, -42.232
1557.5000, -42.229
1557.5200, -42.232
1557.5400, -42.237
1557.5600, -42.231
1557.5800, -42.235
1557.6000, -42.241
1557.6200, -42.252
1557.6400, -42.253
1557.6600, -42.255
1557.6800, -42.269
1557.7000, -42.289
1557.7200, -42.281
1557.7400, -42.285
1557.7600, -42.284
1557.7800, -42.287
1557.8000, -42.293
1557.8200, -42.288
1557.8400, -42.297
1557.8600, -42.300
1557.8800, -42.305
1557.9000, -42.302
1557.9200, -42.307
1557.9400, -42.314
1557.9600, -42.317
1557.9800, -42.327
1558.0000, -42.332
1558.0200, -42.331
1558.0400, -42.342
1558.0600, -42.347
1558.0800, -42.350
1558.1000, -42.359
1558.1200, -42.367
1558.1400, -42.368
1558.1600, -42.377
1558.1800, -42.377
1558.2000, -42.385
1558.2200, -42.392
1558.2400, -42.395
1558.2600, -42.407
1558.2800, -42.407
1558.3000, -42.410
1558.3200, -42.419
1558.3400, -42.430
1558.3600, -42.435
1558.3800, -42.443
1558.4000, -42.444
1558.4200, -42.451
1558.4400, -42.452
1558.4600, -42.453
1558.4800, -42.458
1558.5000, -42.463
1558.5200, -42.475
1558.5400, -42.475
1558.5600, -42.486
1558.5800, -42.488
1558.6000, -42.499
1558.6200, -42.494
1558.6400, -42.510
1558.6600, -42.511
1558.6800, -42.517
1558.7000, -42.523
1558.7200, -42.530
1558.7400, -42.535
1558.7600, -42.540
1558.7800, -42.546
1558.8000, -42.553
1558.8200, -42.559
1558.8400, -42.560
1558.8600, -42.569
1558.8800, -42.574
1558.9000, -42.575
1558.9200, -42.582
1558.9400, -42.592
1558.9600, -42.597
1558.9800, -42.597
1559.0000, -42.610
1559.0200, -42.613
1559.0400, -42.627
1559.0600, -42.634
1559.0800, -42.643
1559.1000, -42.652
1559.1200, -42.659
1559.1400, -42.671
1559.1600, -42.675
1559.1800, -42.685
1559.2000, -42.692
1559.2200, -42.706
1559.2400, -42.712
1559.2600, -42.724
1559.2800, -42.721
1559.3000, -42.727
1559.3200, -42.733
1559.3400, -42.742
1559.3600, -42.750
1559.3800, -42.753
1559.4000, -42.763
1559.4200, -42.770
1559.4400, -42.780
1559.4600, -42.785
1559.4800, -42.796
1559.5000, -42.804
1559.5200, -42.821
1559.5400, -42.831
1559.5600, -42.831
1559.5800, -42.841
1559.6000, -42.850
1559.6200, -42.856
1559.6400, -42.868
1559.6600, -42.868
1559.6800, -42.882
1559.7000, -42.892
1559.7200, -42.895
1559.7400, -42.908
1559.7600, -42.914
1559.7800, -42.921
1559.8000, -42.928
1559.8200, -42.941
1559.8400, -42.942
1559.8600, -42.940
1559.8800, -42.957
1559.9000, -42.970
1559.9200, -42.977
1559.9400, -42.986
1559.9600, -42.998
1559.9800, -43.012
1560.0000, -43.025
1560.0200, -43.038
1560.0400, -43.040
1560.0600, -43.050
1560.0800, -43.065
1560.1000, -43.081
1560.1200, -43.090
1560.1400, -43.105
1560.1600, -43.109
1560.1800, -43.117
1560.2000, -43.125
1560.2200, -43.129
1560.2400, -43.145
1560.2600, -43.157
1560.2800, -43.172
1560.3000, -43.183
1560.3200, -43.189
1560.3400, -43.201
1560.3600, -43.207
1560.3800, -43.215
1560.4000, -43.225
1560.4200, -43.234
1560.4400, -43.243
1560.4600, -43.252
1560.4800, -43.261
1560.5000, -43.270
1560.5200, -43.278
1560.5400, -43.293
1560.5600, -43.304
1560.5800, -43.323
1560.6000, -43.325
1560.6200, -43.340
1560.6400, -43.350
1560.6600, -43.361
1560.6800, -43.368
1560.7000, -43.384
1560.7200, -43.387
1560.7400, -43.392
1560.7600, -43.409
1560.7800, -43.422
1560.8000, -43.425
1560.8200, -43.442
1560.8400, -43.447
1560.8600, -43.462
1560.8800, -43.476
1560.9000, -43.492
1560.9200, -43.498
1560.9400, -43.507
1560.9600, -43.521
1560.9800, -43.534
1561.0000, -43.547
1561.0200, -43.564
1561.0400, -43.565
1561.0600, -43.579
1561.0800, -43.593
1561.1000, -43.605
1561.1200, -43.620
1561.1400, -43.629
1561.1600, -43.649
1561.1800, -43.658
1561.2000, -43.663
1561.2200, -43.684
1561.2400, -43.700
1561.2600, -43.710
1561.2800, -43.725
1561.3000, -43.741
1561.3200, -43.749
1561.3400, -43.766
1561.3600, -43.778
1561.3800, -43.790
1561.4000, -43.799
1561.4200, -43.815
1561.4400, -43.826
1561.4600, -43.843
1561.4800, -43.850
1561.5000, -43.867
1561.5200, -43.885
1561.5400, -43.895
1561.5600, -43.909
1561.5800, -43.926
1561.6000, -43.935
1561.6200, -43.951
1561.6400, -43.961
1561.6600, -43.971
1561.6800, -43.984
1561.7000, -44.007
1561.7200, -44.019
1561.7400, -44.035
1561.7600, -44.053
1561.7800, -44.067
1561.8000, -44.082
1561.8200, -44.092
1561.8400, -44.106
1561.8600, -44.124
1561.8800, -44.137
1561.9000, -44.156
1561.9200, -44.161
1561.9400, -44.173
1561.9600, -44.184
1561.9800, -44.194
1562.0000, -44.210
1562.0200, -44.222
1562.0400, -44.241
1562.0600, -44.255
1562.0800, -44.265
1562.1000, -44.290
1562.1200, -44.309
1562.1400, -44.322
1562.1600, -44.339
1562.1800, -44.357
1562.2000, -44.364
1562.2200, -44.382
1562.2400, -44.395
1562.2600, -44.409
1562.2800, -44.420
1562.3000, -44.442
1562.3200, -44.453
1562.3400, -44.471
1562.3600, -44.485
1562.3800, -44.502
1562.4000, -44.516
1562.4200, -44.524
1562.4400, -44.543
1562.4600, -44.562
1562.4800, -44.567
1562.5000, -44.579
1562.5200, -44.597
1562.5400, -44.612
1562.5600, -44.623
1562.5800, -44.649
1562.6000, -44.663
1562.6200, -44.681
1562.6400, -44.699
1562.6600, -44.713
1562.6800, -44.726
1562.7000, -44.740
1562.7200, -44.758
1562.7400, -44.779
1562.7600, -44.792
1562.7800, -44.810
1562.8000, -44.823
1562.8200, -44.842
1562.8400, -44.857
1562.8600, -44.871
1562.8800, -44.890
1562.9000, -44.903
1562.9200, -44.925
1562.9400, -44.944
1562.9600, -44.952
1562.9800, -44.983
1563.0000, -44.994
1563.0200, -45.004
1563.0400, -45.024
1563.0600, -45.042
1563.0800, -45.053
1563.1000, -45.073
1563.1200, -45.089
1563.1400, -45.103
1563.1600, -45.114
1563.1800, -45.139
1563.2000, -45.151
1563.2200, -45.171
1563.2400, -45.182
1563.2600, -45.197
1563.2800, -45.218
1563.3000, -45.231
1563.3200, -45.251
1563.3400, -45.269
1563.3600, -45.279
1563.3800, -45.297
1563.4000, -45.317
1563.4200, -45.334
1563.4400, -45.344
1563.4600, -45.370
1563.4800, -45.385
1563.5000, -45.402
1563.5200, -45.424
1563.5400, -45.441
1563.5600, -45.452
1563.5800, -45.473
1563.6000, -45.492
1563.6200, -45.511
1563.6400, -45.533
1563.6600, -45.553
1563.6800, -45.564
1563.7000, -45.588
1563.7200, -45.605
1563.7400, -45.624
1563.7600, -45.641
1563.7800, -45.656
1563.8000, -45.684
1563.8200, -45.695
1563.8400, -45.710
1563.8600, -45.739
1563.8800, -45.752
1563.9000, -45.765
1563.9200, -45.784
1563.9400, -45.809
1563.9600, -45.820
1563.9800, -45.842
1564.0000, -45.865
1564.0200, -45.873
1564.0400, -45.887
1564.0600, -45.906
1564.0800, -45.922
1564.1000, -45.941
1564.1200, -45.951
1564.1400, -45.973
1564.1600, -45.992
1564.1800, -46.003
1564.2000, -46.030
1564.2200, -46.045
1564.2400, -46.062
1564.2600, -46.076
1564.2800, -46.095
1564.3000, -46.113
1564.3200, -46.129
1564.3400, -46.156
1564.3600, -46.169
1564.3800, -46.189
1564.4000, -46.209
1564.4200, -46.226
1564.4400, -46.245
1564.4600, -46.264
1564.4800, -46.291
1564.5000, -46.308
1564.5200, -46.326
1564.5400, -46.344
1564.5600, -46.363
1564.5800, -46.387
1564.6000, -46.404
1564.6200, -46.421
1564.6400, -46.441
1564.6600, -46.453
1564.6800, -46.485
1564.7000, -46.493
1564.7200, -46.509
1564.7400, -46.535
1564.7600, -46.551
1564.7800, -46.564
1564.8000, -46.589
1564.8200, -46.609
1564.8400, -46.620
1564.8600, -46.650
1564.8800, -46.668
1564.9000, -46.682
1564.9200, -46.698
1564.9400, -46.714
1564.9600, -46.735
1564.9800, -46.755
1565.0000, -46.771
1565.0200, -46.795
1565.0400, -46.812
1565.0600, -46.833
1565.0800, -46.858
1565.1000, -46.871
1565.1200, -46.886
1565.1400, -46.905
1565.1600, -46.927
1565.1800, -46.946
1565.2000, -46.962
1565.2200, -46.989
1565.2400, -47.006
1565.2600, -47.026
1565.2800, -47.039
1565.3000, -47.062
1565.3200, -47.081
1565.3400, -47.101
1565.3600, -47.131
1565.3800, -47.149
1565.4000, -47.165
1565.4200, -47.187
1565.4400, -47.205
1565.4600, -47.227
1565.4800, -47.249
1565.5000, -47.265
1565.5200, -47.287
1565.5400, -47.304
1565.5600, -47.325
1565.5800, -47.338
1565.6000, -47.357
1565.6200, -47.382
1565.6400, -47.397
1565.6600, -47.411
1565.6800, -47.442
1565.7000, -47.461
1565.7200, -47.476
1565.7400, -47.503
1565.7600, -47.521
1565.7800, -47.533
1565.8000, -47.550
1565.8200, -47.564
1565.8400, -47.584
1565.8600, -47.604
1565.8800, -47.620
1565.9000, -47.647
1565.9200, -47.662
1565.9400, -47.681
1565.9600, -47.706
1565.9800, -47.723
1566.0000, -47.738
1566.0200, -47.757
1566.0400, -47.776
1566.0600, -47.800
1566.0800, -47.819
1566.1000, -47.844
1566.1200, -47.859
1566.1400, -47.879
1566.1600, -47.895
1566.1800, -47.915
1566.2000, -47.931
1566.2200, -47.955
1566.2400, -47.984
1566.2600, -48.002
1566.2800, -48.015
1566.3000, -48.036
1566.3200, -48.051
1566.3400, -48.073
1566.3600, -48.094
1566.3800, -48.112
1566.4000, -48.131
1566.4200, -48.151
1566.4400, -48.174
1566.4600, -48.190
1566.4800, -48.208
1566.5000, -48.228
1566.5200, -48.241
1566.5400, -48.267
1566.5600, -48.297
1566.5800, -48.303
1566.6000, -48.331
1566.6200, -48.350
1566.6400, -48.366
1566.6600, -48.381
1566.6800, -48.400
1566.7000, -48.415
1566.7200, -48.438
1566.7400, -48.457
1566.7600, -48.481
1566.7800, -48.502
1566.8000, -48.519
1566.8200, -48.539
1566.8400, -48.566
1566.8600, -48.574
1566.8800, -48.591
1566.9000, -48.611
1566.9200, -48.636
1566.9400, -48.650
1566.9600, -48.671
1566.9800, -48.692
1567.0000, -48.710
1567.0200, -48.736
1567.0400, -48.750
1567.0600, -48.775
1567.0800, -48.792
1567.1000, -48.815
1567.1200, -48.832
1567.1400, -48.853
1567.1600, -48.871
1567.1800, -48.887
1567.2000, -48.911
1567.2200, -48.937
1567.2400, -48.954
1567.2600, -48.972
1567.2800, -48.989
1567.3000, -49.013
1567.3200, -49.030
1567.3400, -49.049
1567.3600, -49.070
1567.3800, -49.081
1567.4000, -49.096
1567.4200, -49.131
1567.4400, -49.149
1567.4600, -49.160
1567.4800, -49.185
1567.5000, -49.210
1567.5200, -49.226
1567.5400, -49.242
1567.5600, -49.262
1567.5800, -49.278
1567.6000, -49.292
1567.6200, -49.318
1567.6400, -49.343
1567.6600, -49.358
1567.6800, -49.379
1567.7000, -49.401
1567.7200, -49.417
1567.7400, -49.435
1567.7600, -49.451
1567.7800, -49.471
1567.8000, -49.497
1567.8200, -49.512
1567.8400, -49.532
1567.8600, -49.550
1567.8800, -49.567
1567.9000, -49.589
1567.9200, -49.610
1567.9400, -49.630
1567.9600, -49.655
1567.9800, -49.670
1568.0000, -49.694
1568.0200, -49.709
1568.0400, -49.727
1568.0600, -49.750
1568.0800, -49.769
1568.1000, -49.792
1568.1200, -49.804
1568.1400, -49.827
1568.1600, -49.850
1568.1800, -49.867
1568.2000, -49.884
1568.2200, -49.906
1568.2400, -49.924
1568.2600, -49.934
1568.2800, -49.959
1568.3000, -49.982
1568.3200, -50.001
1568.3400, -50.016
1568.3600, -50.043
1568.3800, -50.065
1568.4000, -50.076
1568.4200, -50.098
1568.4400, -50.114
1568.4600, -50.135
1568.4800, -50.143
1568.5000, -50.167
1568.5200, -50.194
1568.5400, -50.206
1568.5600, -50.225
1568.5800, -50.255
1568.6000, -50.267
1568.6200, -50.286
1568.6400, -50.313
1568.6600, -50.330
1568.6800, -50.348
1568.7000, -50.365
1568.7200, -50.390
1568.7400, -50.396
1568.7600, -50.423
1568.7800, -50.436
1568.8000, -50.457
1568.8200, -50.481
1568.8400, -50.504
1568.8600, -50.520
1568.8800, -50.537
1568.9000, -50.554
1568.9200, -50.579
1568.9400, -50.595
1568.9600, -50.619
1568.9800, -50.636
1569.0000, -50.656
1569.0200, -50.680
1569.0400, -50.694
1569.0600, -50.717
1569.0800, -50.729
1569.1000, -50.746
1569.1200, -50.765
1569.1400, -50.783
1569.1600, -50.808
1569.1800, -50.831
1569.2000, -50.845
1569.2200, -50.855
1569.2400, -50.887
1569.2600, -50.897
1569.2800, -50.915
1569.3000, -50.938
1569.3200, -50.951
1569.3400, -50.970
1569.3600, -50.981
1569.3800, -51.012
1569.4000, -51.026
1569.4200, -51.041
1569.4400, -51.064
1569.4600, -51.087
1569.4800, -51.100
1569.5000, -51.118
1569.5200, -51.140
1569.5400, -51.164
1569.5600, -51.179
1569.5800, -51.197
1569.6000, -51.209
1569.6200, -51.230
1569.6400, -51.252
1569.6600, -51.266
1569.6800, -51.287
1569.7000, -51.318
1569.7200, -51.328
1569.7400, -51.347
1569.7600, -51.363
1569.7800, -51.381
1569.8000, -51.402
1569.8200, -51.425
1569.8400, -51.440
1569.8600, -51.460
1569.8800, -51.479
1569.9000, -51.495
1569.9200, -51.514
1569.9400, -51.529
1569.9600, -51.552
1569.9800, -51.559
1570.0000, -51.580
1570.0200, -51.602
1570.0400, -51.623
1570.0600, -51.643
1570.0800, -51.650
1570.1000, -51.678
1570.1200, -51.692
1570.1400, -51.717
1570.1600, -51.728
1570.1800, -51.749
1570.2000, -51.764
1570.2200, -51.782
1570.2400, -51.800
1570.2600, -51.824
1570.2800, -51.838
1570.3000, -51.849
1570.3200, -51.878
1570.3400, -51.892
1570.3600, -51.909
1570.3800, -51.935
1570.4000, -51.951
1570.4200, -51.966
1570.4400, -51.981
1570.4600, -52.000
1570.4800, -52.015
1570.5000, -52.040
1570.5200, -52.049
1570.5400, -52.072
1570.5600, -52.092
1570.5800, -52.110
1570.6000, -52.119
1570.6200, -52.148
1570.6400, -52.166
1570.6600, -52.186
1570.6800, -52.202
1570.7000, -52.221
1570.7200, -52.241
1570.7400, -52.258
1570.7600, -52.276
1570.7800, -52.295
1570.8000, -52.312
1570.8200, -52.335
1570.8400, -52.348
1570.8600, -52.370
1570.8800, -52.379
1570.9000, -52.405
1570.9200, -52.422
1570.9400, -52.439
1570.9600, -52.454
1570.9800, -52.476
1571.0000, -52.489
1571.0200, -52.499
1571.0400, -52.523
1571.0600, -52.535
1571.0800, -52.558
1571.1000, -52.574
1571.1200, -52.594
1571.1400, -52.608
1571.1600, -52.622
1571.1800, -52.644
1571.2000, -52.660
1571.2200, -52.680
1571.2400, -52.697
1571.2600, -52.713
1571.2800, -52.729
1571.3000, -52.742
1571.3200, -52.770
1571.3400, -52.783
1571.3600, -52.803
1571.3800, -52.819
1571.4000, -52.835
1571.4200, -52.848
1571.4400, -52.874
1571.4600, -52.898
1571.4800, -52.910
1571.5000, -52.933
1571.5200, -52.945
1571.5400, -52.960
1571.5600, -52.984
1571.5800, -52.999
1571.6000, -53.015
1571.6200, -53.037
1571.6400, -53.051
1571.6600, -53.064
1571.6800, -53.078
1571.7000, -53.101
1571.7200, -53.117
1571.7400, -53.132
1571.7600, -53.153
1571.7800, -53.171
1571.8000, -53.184
1571.8200, -53.200
1571.8400, -53.218
1571.8600, -53.242
1571.8800, -53.256
1571.9000, -53.267
1571.9200, -53.285
1571.9400, -53.295
1571.9600, -53.310
1571.9800, -53.334
1572.0000, -53.354
1572.0200, -53.371
1572.0400, -53.391
1572.0600, -53.406
1572.0800, -53.418
1572.1000, -53.437
1572.1200, -53.453
1572.1400, -53.475
1572.1600, -53.487
1572.1800, -53.499
1572.2000, -53.517
1572.2200, -53.532
1572.2400, -53.561
1572.2600, -53.565
1572.2800, -53.579
1572.3000, -53.599
1572.3200, -53.623
1572.3400, -53.638
1572.3600, -53.658
1572.3800, -53.672
1572.4000, -53.685
1572.4200, -53.701
1572.4400, -53.720
1572.4600, -53.736
1572.4800, -53.756
1572.5000, -53.772
1572.5200, -53.791
1572.5400, -53.803
1572.5600, -53.819
1572.5800, -53.830
1572.6000, -53.851
1572.6200, -53.867
1572.6400, -53.882
1572.6600, -53.898
1572.6800, -53.914
1572.7000, -53.929
1572.7200, -53.947
1572.7400, -53.964
1572.7600, -53.975
1572.7800, -53.989
1572.8000, -53.996
1572.8200, -54.017
1572.8400, -54.036
1572.8600, -54.057
1572.8800, -54.073
1572.9000, -54.090
1572.9200, -54.103
1572.9400, -54.120
1572.9600, -54.138
1572.9800, -54.149
1573.0000, -54.162
1573.0200, -54.184
1573.0400, -54.199
1573.0600, -54.215
1573.0800, -54.227
1573.1000, -54.251
1573.1200, -54.258
1573.1400, -54.273
1573.1600, -54.297
1573.1800, -54.304
1573.2000, -54.327
1573.2200, -54.332
1573.2400, -54.357
1573.2600, -54.371
1573.2800, -54.386
1573.3000, -54.410
1573.3200, -54.412
1573.3400, -54.440
1573.3600, -54.438
1573.3800, -54.458
1573.4000, -54.473
1573.4200, -54.491
1573.4400, -54.513
1573.4600, -54.517
1573.4800, -54.546
1573.5000, -54.553
1573.5200, -54.569
1573.5400, -54.586
1573.5600, -54.609
1573.5800, -54.622
1573.6000, -54.632
1573.6200, -54.644
1573.6400, -54.657
1573.6600, -54.678
1573.6800, -54.696
1573.7000, -54.697
1573.7200, -54.717
1573.7400, -54.731
1573.7600, -54.749
1573.7800, -54.761
1573.8000, -54.787
1573.8200, -54.791
1573.8400, -54.807
1573.8600, -54.817
1573.8800, -54.842
1573.9000, -54.847
1573.9200, -54.867
1573.9400, -54.883
1573.9600, -54.891
1573.9800, -54.915
1574.0000, -54.927
1574.0200, -54.943
1574.0400, -54.951
1574.0600, -54.970
1574.0800, -54.989
1574.1000, -54.999
1574.1200, -55.014
1574.1400, -55.028
1574.1600, -55.041
1574.1800, -55.066
1574.2000, -55.079
1574.2200, -55.093
1574.2400, -55.102
1574.2600, -55.122
1574.2800, -55.125
1574.3000, -55.151
1574.3200, -55.163
1574.3400, -55.165
1574.3600, -55.179
1574.3800, -55.211
1574.4000, -55.208
1574.4200, -55.235
1574.4400, -55.252
1574.4600, -55.245
1574.4800, -55.264
1574.5000, -55.283
1574.5200, -55.298
1574.5400, -55.312
1574.5600, -55.320
1574.5800, -55.348
1574.6000, -55.357
1574.6200, -55.367
1574.6400, -55.387
1574.6600, -55.394
1574.6800, -55.409
1574.7000, -55.422
1574.7200, -55.446
1574.7400, -55.445
1574.7600, -55.465
1574.7800, -55.486
1574.8000, -55.504
1574.8200, -55.506
1574.8400, -55.521
1574.8600, -55.546
1574.8800, -55.554
1574.9000, -55.567
1574.9200, -55.584
1574.9400, -55.600
1574.9600, -55.607
1574.9800, -55.620
1575.0000, -55.642
1575.0200, -55.655
1575.0400, -55.670
1575.0600, -55.684
1575.0800, -55.697
1575.1000, -55.710
1575.1200, -55.736
1575.1400, -55.719
1575.1600, -55.748
1575.1800, -55.766
1575.2000, -55.780
1575.2200, -55.789
1575.2400, -55.806
1575.2600, -55.804
1575.2800, -55.827
1575.3000, -55.844
1575.3200, -55.870
1575.3400, -55.862
1575.3600, -55.885
1575.3800, -55.891
1575.4000, -55.905
1575.4200, -55.915
1575.4400, -55.933
1575.4600, -55.947
1575.4800, -55.961
1575.5000, -55.978
1575.5200, -55.990
1575.5400, -55.996
1575.5600, -56.002
1575.5800, -56.025
1575.6000, -56.036
1575.6200, -56.045
1575.6400, -56.066
1575.6600, -56.070
1575.6800, -56.091
1575.7000, -56.094
1575.7200, -56.111
1575.7400, -56.120
1575.7600, -56.139
1575.7800, -56.161
1575.8000, -56.175
1575.8200, -56.179
1575.8400, -56.184
1575.8600, -56.210
1575.8800, -56.223
1575.9000, -56.241
1575.9200, -56.258
1575.9400, -56.256
1575.9600, -56.278
1575.9800, -56.280
1576.0000, -56.295
1576.0200, -56.306
1576.0400, -56.323
1576.0600, -56.337
1576.0800, -56.344
1576.1000, -56.352
1576.1200, -56.365
1576.1400, -56.378
1576.1600, -56.403
1576.1800, -56.407
1576.2000, -56.420
1576.2200, -56.432
1576.2400, -56.436
1576.2600, -56.427
1576.2800, -56.463
1576.3000, -56.475
1576.3200, -56.492
1576.3400, -56.496
1576.3600, -56.502
1576.3800, -56.528
1576.4000, -56.533
1576.4200, -56.553
1576.4400, -56.550
1576.4600, -56.567
1576.4800, -56.585
1576.5000, -56.596
1576.5200, -56.606
1576.5400, -56.622
1576.5600, -56.623
1576.5800, -56.652
1576.6000, -56.640
1576.6200, -56.655
1576.6400, -56.678
1576.6600, -56.688
1576.6800, -56.690
1576.7000, -56.723
1576.7200, -56.715
1576.7400, -56.732
1576.7600, -56.753
1576.7800, -56.775
1576.8000, -56.764
1576.8200, -56.780
1576.8400, -56.801
1576.8600, -56.798
1576.8800, -56.811
1576.9000, -56.822
1576.9200, -56.830
1576.9400, -56.849
1576.9600, -56.870
1576.9800, -56.865
1577.0000, -56.881
1577.0200, -56.913
1577.0400, -56.914
1577.0600, -56.903
1577.0800, -56.933
1577.1000, -56.932
1577.1200, -56.951
1577.1400, -56.945
1577.1600, -56.966
1577.1800, -56.980
1577.2000, -56.992
1577.2200, -57.001
1577.2400, -57.025
1577.2600, -57.023
1577.2800, -57.017
1577.3000, -57.050
1577.3200, -57.043
1577.3400, -57.061
1577.3600, -57.094
1577.3800, -57.084
1577.4000, -57.110
1577.4200, -57.115
1577.4400, -57.119
1577.4600, -57.129
1577.4800, -57.134
1577.5000, -57.142
1577.5200, -57.171
1577.5400, -57.177
1577.5600, -57.176
1577.5800, -57.205
1577.6000, -57.209
1577.6200, -57.232
1577.6400, -57.232
1577.6600, -57.234
1577.6800, -57.258
1577.7000, -57.260
1577.7200, -57.277
1577.7400, -57.300
1577.7600, -57.281
1577.7800, -57.306
1577.8000, -57.299
1577.8200, -57.328
1577.8400, -57.331
1577.8600, -57.348
1577.8800, -57.372
1577.9000, -57.354
1577.9200, -57.394
1577.9400, -57.380
1577.9600, -57.407
1577.9800, -57.386
1578.0000, -57.425
1578.0200, -57.434
1578.0400, -57.440
1578.0600, -57.460
1578.0800, -57.454
1578.1000, -57.472
1578.1200, -57.487
1578.1400, -57.482
1578.1600, -57.509
1578.1800, -57.501
1578.2000, -57.526
1578.2200, -57.535
1578.2400, -57.547
1578.2600, -57.560
1578.2800, -57.572
1578.3000, -57.565
1578.3200, -57.583
1578.3400, -57.598
1578.3600, -57.620
1578.3800, -57.615
1578.4000, -57.621
1578.4200, -57.641
1578.4400, -57.654
1578.4600, -57.642
1578.4800, -57.667
1578.5000, -57.675
1578.5200, -57.678
1578.5400, -57.704
1578.5600, -57.700
1578.5800, -57.706
1578.6000, -57.729
1578.6200, -57.733
1578.6400, -57.741
1578.6600, -57.767
1578.6800, -57.762
1578.7000, -57.760
1578.7200, -57.794
1578.7400, -57.797
1578.7600, -57.798
1578.7800, -57.796
1578.8000, -57.824
1578.8200, -57.842
1578.8400, -57.840
1578.8600, -57.834
1578.8800, -57.865
1578.9000, -57.867
1578.9200, -57.871
1578.9400, -57.899
1578.9600, -57.905
1578.9800, -57.907
1579.0000, -57.913
1579.0200, -57.926
1579.0400, -57.937
1579.0600, -57.937
1579.0800, -57.958
1579.1000, -57.938
1579.1200, -57.963
1579.1400, -57.985
1579.1600, -58.008
1579.1800, -57.994
1579.2000, -58.015
1579.2200, -58.021
1579.2400, -58.039
1579.2600, -58.026
1579.2800, -58.044
1579.3000, -58.074
1579.3200, -58.070
1579.3400, -58.059
1579.3600, -58.097
1579.3800, -58.100
1579.4000, -58.104
1579.4200, -58.112
1579.4400, -58.120
1579.4600, -58.104
1579.4800, -58.150
1579.5000, -58.151
1579.5200, -58.154
1579.5400, -58.173
1579.5600, -58.174
1579.5800, -58.174
1579.6000, -58.198
1579.6200, -58.200
1579.6400, -58.215
1579.6600, -58.221
1579.6800, -58.247
1579.7000, -58.217
1579.7200, -58.257
1579.7400, -58.256
1579.7600, -58.260
1579.7800, -58.291
1579.8000, -58.274
1579.8200, -58.292
1579.8400, -58.279
1579.8600, -58.308
1579.8800, -58.328
1579.9000, -58.322
1579.9200, -58.337
1579.9400, -58.341
1579.9600, -58.342
1579.9800, -58.358
1580.0000, -58.364
1580.0200, -58.378
1580.0400, -58.376
1580.0600, -58.396
1580.0800, -58.393
1580.1000, -58.395
1580.1200, -58.414
1580.1400, -58.433
1580.1600, -58.448
1580.1800, -58.438
1580.2000, -58.435
1580.2200, -58.456
1580.2400, -58.472
1580.2600, -58.497
1580.2800, -58.488
1580.3000, -58.488
1580.3200, -58.511
1580.3400, -58.520
1580.3600, -58.503
1580.3800, -58.532
1580.4000, -58.527
1580.4200, -58.530
1580.4400, -58.562
1580.4600, -58.549
1580.4800, -58.564
1580.5000, -58.568
1580.5200, -58.588
1580.5400, -58.592
1580.5600, -58.602
1580.5800, -58.596
1580.6000, -58.613
1580.6200, -58.611
1580.6400, -58.627
1580.6600, -58.636
1580.6800, -58.661
1580.7000, -58.642
1580.7200, -58.661
1580.7400, -58.666
1580.7600, -58.695
1580.7800, -58.689
1580.8000, -58.690
1580.8200, -58.716
1580.8400, -58.707
1580.8600, -58.715
1580.8800, -58.707
1580.9000, -58.750
1580.9200, -58.745
1580.9400, -58.744
1580.9600, -58.746
1580.9800, -58.773
1581.0000, -58.769
1581.0200, -58.778
1581.0400, -58.789
1581.0600, -58.780
1581.0800, -58.794
1581.1000, -58.826
1581.1200, -58.831
1581.1400, -58.842
1581.1600, -58.826
1581.1800, -58.841
1581.2000, -58.858
1581.2200, -58.851
1581.2400, -58.875
1581.2600, -58.849
1581.2800, -58.877
1581.3000, -58.900
1581.3200, -58.888
1581.3400, -58.896
1581.3600, -58.904
1581.3800, -58.914
1581.4000, -58.929
1581.4200, -58.927
1581.4400, -58.929
1581.4600, -58.938
1581.4800, -58.953
1581.5000, -58.966
1581.5200, -58.965
1581.5400, -58.953
1581.5600, -58.963
1581.5800, -58.988
1581.6000, -58.983
1581.6200, -59.007
1581.6400, -59.012
1581.6600, -59.020
1581.6800, -59.010
1581.7000, -59.044
1581.7200, -59.026
1581.7400, -59.045
1581.7600, -59.063
1581.7800, -59.070
1581.8000, -59.058
1581.8200, -59.064
1581.8400, -59.085
1581.8600, -59.082
1581.8800, -59.088
1581.9000, -59.122
1581.9200, -59.104
1581.9400, -59.122
1581.9600, -59.132
1581.9800, -59.127
1582.0000, -59.142
1582.0200, -59.151
1582.0400, -59.150
1582.0600, -59.164
1582.0800, -59.202
1582.1000, -59.166
1582.1200, -59.185
1582.1400, -59.200
1582.1600, -59.207
1582.1800, -59.204
1582.2000, -59.223
1582.2200, -59.215
1582.2400, -59.223
1582.2600, -59.216
1582.2800, -59.239
1582.3000, -59.270
1582.3200, -59.243
1582.3400, -59.265
1582.3600, -59.271
1582.3800, -59.277
1582.4000, -59.279
1582.4200, -59.289
1582.4400, -59.282
1582.4600, -59.322
1582.4800, -59.303
1582.5000, -59.316
1582.5200, -59.322
1582.5400, -59.298
1582.5600, -59.336
1582.5800, -59.343
1582.6000, -59.343
1582.6200, -59.348
1582.6400, -59.372
1582.6600, -59.368
1582.6800, -59.356
1582.7000, -59.393
1582.7200, -59.394
1582.7400, -59.407
1582.7600, -59.402
1582.7800, -59.410
1582.8000, -59.417
1582.8200, -59.412
1582.8400, -59.443
1582.8600, -59.435
1582.8800, -59.436
1582.9000, -59.468
1582.9200, -59.448
1582.9400, -59.487
1582.9600, -59.474
1582.9800, -59.472
1583.0000, -59.483
1583.0200, -59.480
1583.0400, -59.515
1583.0600, -59.504
1583.0800, -59.488
1583.1000, -59.535
1583.1200, -59.515
1583.1400, -59.505
1583.1600, -59.547
1583.1800, -59.532
1583.2000, -59.563
1583.2200, -59.559
1583.2400, -59.572
1583.2600, -59.564
1583.2800, -59.568
1583.3000, -59.585
1583.3200, -59.601
1583.3400, -59.597
1583.3600, -59.588
1583.3800, -59.615
1583.4000, -59.605
1583.4200, -59.614
1583.4400, -59.623
1583.4600, -59.656
1583.4800, -59.657
1583.5000, -59.638
1583.5200, -59.642
1583.5400, -59.646
1583.5600, -59.655
1583.5800, -59.667
1583.6000, -59.690
1583.6200, -59.667
1583.6400, -59.700
1583.6600, -59.690
1583.6800, -59.730
1583.7000, -59.703
1583.7200, -59.715
1583.7400, -59.707
1583.7600, -59.725
1583.7800, -59.709
1583.8000, -59.747
1583.8200, -59.743
1583.8400, -59.752
1583.8600, -59.762
1583.8800, -59.754
1583.9000, -59.759
1583.9200, -59.784
1583.9400, -59.784
1583.9600, -59.781
1583.9800, -59.810
1584.0000, -59.777
1584.0200, -59.806
1584.0400, -59.804
1584.0600, -59.810
1584.0800, -59.802
1584.1000, -59.826
1584.1200, -59.829
1584.1400, -59.861
1584.1600, -59.849
1584.1800, -59.851
1584.2000, -59.846
1584.2200, -59.872
1584.2400, -59.874
1584.2600, -59.852
1584.2800, -59.892
1584.3000, -59.880
1584.3200, -59.889
1584.3400, -59.872
1584.3600, -59.903
1584.3800, -59.906
1584.4000, -59.901
1584.4200, -59.920
1584.4400, -59.918
1584.4600, -59.944
1584.4800, -59.908
1584.5000, -59.920
1584.5200, -59.939
1584.5400, -59.953
1584.5600, -59.967
1584.5800, -59.969
1584.6000, -59.959
1584.6200, -59.969
1584.6400, -59.990
1584.6600, -59.981
1584.6800, -59.993
1584.7000, -60.000
1584.7200, -60.001
1584.7400, -60.015
1584.7600, -60.014
1584.7800, -60.003
1584.8000, -60.028
1584.8200, -60.032
1584.8400, -60.041
1584.8600, -60.035
1584.8800, -60.043
1584.9000, -60.098
1584.9200, -60.042
1584.9400, -60.079
1584.9600, -60.051
1584.9800, -60.085
1585.0000, -60.067
1585.0200, -60.114
1585.0400, -60.098
1585.0600, -60.074
1585.0800, -60.080
1585.1000, -60.114
1585.1200, -60.096
1585.1400, -60.108
1585.1600, -60.132
1585.1800, -60.118
1585.2000, -60.124
1585.2200, -60.151
1585.2400, -60.143
1585.2600, -60.156
1585.2800, -60.167
1585.3000, -60.145
1585.3200, -60.185
1585.3400, -60.172
1585.3600, -60.178
1585.3800, -60.173
1585.4000, -60.192
1585.4200, -60.161
1585.4400, -60.198
1585.4600, -60.196
1585.4800, -60.214
1585.5000, -60.186
1585.5200, -60.229
1585.5400, -60.215
1585.5600, -60.222
1585.5800, -60.257
1585.6000, -60.240
1585.6200, -60.249
1585.6400, -60.259
1585.6600, -60.236
1585.6800, -60.236
1585.7000, -60.268
1585.7200, -60.250
1585.7400, -60.288
1585.7600, -60.276
1585.7800, -60.278
1585.8000, -60.314
1585.8200, -60.290
1585.8400, -60.265
1585.8600, -60.319
1585.8800, -60.305
1585.9000, -60.309
1585.9200, -60.316
1585.9400, -60.315
1585.9600, -60.309
1585.9800, -60.321
1586.0000, -60.340
1586.0200, -60.315
1586.0400, -60.365
1586.0600, -60.360
1586.0800, -60.351
1586.1000, -60.363
1586.1200, -60.370
1586.1400, -60.390
1586.1600, -60.403
1586.1800, -60.354
1586.2000, -60.429
1586.2200, -60.372
1586.2400, -60.414
1586.2600, -60.393
1586.2800, -60.398
1586.3000, -60.429
1586.3200, -60.414
1586.3400, -60.418
1586.3600, -60.414
1586.3800, -60.435
1586.4000, -60.431
1586.4200, -60.459
1586.4400, -60.430
1586.4600, -60.456
1586.4800, -60.468
1586.5000, -60.478
1586.5200, -60.461
1586.5400, -60.492
1586.5600, -60.467
1586.5800, -60.469
1586.6000, -60.474
1586.6200, -60.461
1586.6400, -60.526
1586.6600, -60.479
1586.6800, -60.523
1586.7000, -60.508
1586.7200, -60.524
1586.7400, -60.596
1586.7600, -60.490
1586.7800, -60.551
1586.8000, -60.517
1586.8200, -60.541
1586.8400, -60.545
1586.8600, -60.548
1586.8800, -60.566
1586.9000, -60.576
1586.9200, -60.581
1586.9400, -60.553
1586.9600, -60.616
1586.9800, -60.581
1587.0000, -60.603
1587.0200, -60.619
1587.0400, -60.594
1587.0600, -60.606
1587.0800, -60.609
1587.1000, -60.605
1587.1200, -60.629
1587.1400, -60.607
1587.1600, -60.655
1587.1800, -60.638
1587.2000, -60.630
1587.2200, -60.656
1587.2400, -60.637
1587.2600, -60.668
1587.2800, -60.655
1587.3000, -60.656
1587.3200, -60.653
1587.3400, -60.670
1587.3600, -60.670
1587.3800, -60.700
1587.4000, -60.670
1587.4200, -60.683
1587.4400, -60.710
1587.4600, -60.657
1587.4800, -60.748
1587.5000, -60.705
1587.5200, -60.707
1587.5400, -60.724
1587.5600, -60.711
1587.5800, -60.710
1587.6000, -60.755
1587.6200, -60.749
1587.6400, -60.770
1587.6600, -60.737
1587.6800, -60.756
1587.7000, -60.739
1587.7200, -60.766
1587.7400, -60.809
1587.7600, -60.765
1587.7800, -60.778
1587.8000, -60.772
1587.8200, -60.798
1587.8400, -60.824
1587.8600, -60.799
1587.8800, -60.810
1587.9000, -60.817
1587.9200, -60.801
1587.9400, -60.814
1587.9600, -60.818
1587.9800, -60.832
1588.0000, -60.849
1588.0200, -60.825
1588.0400, -60.844
1588.0600, -60.846
1588.0800, -60.859
1588.1000, -60.872
1588.1200, -60.890
1588.1400, -60.830
1588.1600, -60.874
1588.1800, -60.862
1588.2000, -60.851
1588.2200, -60.930
1588.2400, -60.873
1588.2600, -60.872
1588.2800, -60.874
1588.3000, -60.897
1588.3200, -60.918
1588.3400, -60.896
1588.3600, -60.918
1588.3800, -60.890
1588.4000, -60.932
1588.4200, -60.922
1588.4400, -60.918
1588.4600, -60.929
1588.4800, -60.943
1588.5000, -60.925
1588.5200, -60.955
1588.5400, -60.976
1588.5600, -60.922
1588.5800, -60.953
1588.6000, -60.977
1588.6200, -60.959
1588.6400, -60.949
1588.6600, -60.992
1588.6800, -60.997
1588.7000, -60.990
1588.7200, -61.022
1588.7400, -60.992
1588.7600, -60.992
1588.7800, -61.026
1588.8000, -61.006
1588.8200, -61.010
1588.8400, -61.043
1588.8600, -61.004
1588.8800, -61.045
1588.9000, -61.040
1588.9200, -61.015
1588.9400, -61.049
1588.9600, -61.054
1588.9800, -61.031
1589.0000, -61.041
1589.0200, -61.059
1589.0400, -61.037
1589.0600, -61.084
1589.0800, -61.042
1589.1000, -61.071
1589.1200, -61.092
1589.1400, -61.053
1589.1600, -61.122
1589.1800, -61.068
1589.2000, -61.107
1589.2200, -61.110
1589.2400, -61.100
1589.2600, -61.130
1589.2800, -61.105
1589.3000, -61.125
1589.3200, -61.097
1589.3400, -61.128
1589.3600, -61.124
1589.3800, -61.142
1589.4000, -61.147
1589.4200, -61.130
1589.4400, -61.145
1589.4600, -61.156
1589.4800, -61.137
1589.5000, -61.190
1589.5200, -61.183
1589.5400, -61.182
1589.5600, -61.194
1589.5800, -61.168
1589.6000, -61.184
1589.6200, -61.188
1589.6400, -61.176
1589.6600, -61.185
1589.6800, -61.175
1589.7000, -61.211
1589.7200, -61.204
1589.7400, -61.228
1589.7600, -61.197
1589.7800, -61.210
1589.8000, -61.230
1589.8200, -61.209
1589.8400, -61.239
1589.8600, -61.245
1589.8800, -61.231
1589.9000, -61.220
1589.9200, -61.264
1589.9400, -61.255
1589.9600, -61.244
1589.9800, -61.235
1590.0000, -61.250
1590.0200, -61.275
1590.0400, -61.268
1590.0600, -61.323
1590.0800, -61.288
1590.1000, -61.257
1590.1200, -61.307
1590.1400, -61.296
1590.1600, -61.288
1590.1800, -61.306
1590.2000, -61.286
1590.2200, -61.326
1590.2400, -61.320
1590.2600, -61.364
1590.2800, -61.326
1590.3000, -61.316
1590.3200, -61.356
1590.3400, -61.337
1590.3600, -61.362
1590.3800, -61.350
1590.4000, -61.361
1590.4200, -61.390
1590.4400, -61.362
1590.4600, -61.343
1590.4800, -61.370
1590.5000, -61.406
1590.5200, -61.356
1590.5400, -61.378
1590.5600, -61.371
1590.5800, -61.413
1590.6000, -61.397
1590.6200, -61.414
1590.6400, -61.408
1590.6600, -61.413
1590.6800, -61.378
1590.7000, -61.424
1590.7200, -61.424
1590.7400, -61.416
1590.7600, -61.422
1590.7800, -61.444
1590.8000, -61.426
1590.8200, -61.471
1590.8400, -61.447
1590.8600, -61.451
1590.8800, -61.476
1590.9000, -61.438
1590.9200, -61.463
1590.9400, -61.470
1590.9600, -61.473
1590.9800, -61.483
1591.0000, -61.458
1591.0200, -61.508
1591.0400, -61.488
1591.0600, -61.472
1591.0800, -61.500
1591.1000, -61.486
1591.1200, -61.522
1591.1400, -61.519
1591.1600, -61.516
1591.1800, -61.580
1591.2000, -61.563
1591.2200, -61.508
1591.2400, -61.501
1591.2600, -61.552
1591.2800, -61.536
1591.3000, -61.586
1591.3200, -61.542
1591.3400, -61.521
1591.3600, -61.547
1591.3800, -61.595
1591.4000, -61.577
1591.4200, -61.573
1591.4400, -61.599
1591.4600, -61.577
1591.4800, -61.601
1591.5000, -61.576
1591.5200, -61.596
1591.5400, -61.614
1591.5600, -61.623
1591.5800, -61.606
1591.6000, -61.632
1591.6200, -61.624
1591.6400, -61.618
1591.6600, -61.657
1591.6800, -61.642
1591.7000, -61.682
1591.7200, -61.642
1591.7400, -61.637
1591.7600, -61.614
1591.7800, -61.692
1591.8000, -61.681
1591.8200, -61.673
1591.8400, -61.664
1591.8600, -61.638
1591.8800, -61.688
1591.9000, -61.679
1591.9200, -61.662
1591.9400, -61.738
1591.9600, -61.691
1591.9800, -61.691
1592.0000, -61.692
1592.0200, -61.742
1592.0400, -61.713
1592.0600, -61.742
1592.0800, -61.732
1592.1000, -61.738
1592.1200, -61.734
1592.1400, -61.764
1592.1600, -61.735
1592.1800, -61.716
1592.2000, -61.753
1592.2200, -61.788
1592.2400, -61.730
1592.2600, -61.767
1592.2800, -61.759
1592.3000, -61.769
1592.3200, -61.778
1592.3400, -61.776
1592.3600, -61.743
1592.3800, -61.809
1592.4000, -61.796
1592.4200, -61.772
1592.4400, -61.788
1592.4600, -61.795
1592.4800, -61.824
1592.5000, -61.794
1592.5200, -61.835
1592.5400, -61.816
1592.5600, -61.826
1592.5800, -61.823
1592.6000, -61.823
1592.6200, -61.811
1592.6400, -61.846
1592.6600, -61.827
1592.6800, -61.848
1592.7000, -61.888
1592.7200, -61.854
1592.7400, -61.801
1592.7600, -61.855
1592.7800, -61.855
1592.8000, -61.913
1592.8200, -61.836
1592.8400, -61.899
1592.8600, -61.882
1592.8800, -61.901
1592.9000, -61.894
1592.9200, -61.863
1592.9400, -61.919
1592.9600, -61.918
1592.9800, -61.917
1593.0000, -61.948
1593.0200, -61.892
1593.0400, -61.952
1593.0600, -61.933
1593.0800, -61.908
1593.1000, -61.946
1593.1200, -61.962
1593.1400, -61.920
1593.1600, -61.938
1593.1800, -61.941
1593.2000, -61.974
1593.2200, -61.966
1593.2400, -61.918
1593.2600, -61.963
1593.2800, -61.968
1593.3000, -61.941
1593.3200, -62.025
1593.3400, -62.006
1593.3600, -61.989
1593.3800, -61.965
1593.4000, -62.015
1593.4200, -61.967
1593.4400, -62.007
1593.4600, -62.026
1593.4800, -62.005
1593.5000, -61.996
1593.5200, -62.007
1593.5400, -62.027
1593.5600, -61.977
1593.5800, -62.048
1593.6000, -62.011
1593.6200, -62.064
1593.6400, -62.047
1593.6600, -62.026
1593.6800, -62.061
1593.7000, -62.038
1593.7200, -62.063
1593.7400, -62.045
1593.7600, -62.094
1593.7800, -62.103
1593.8000, -62.071
1593.8200, -62.044
1593.8400, -62.101
1593.8600, -62.149
1593.8800, -62.062
1593.9000, -62.080
1593.9200, -62.103
1593.9400, -62.101
1593.9600, -62.098
1593.9800, -62.108
1594.0000, -62.099
1594.0200, -62.142
1594.0400, -62.127
1594.0600, -62.074
1594.0800, -62.170
1594.1000, -62.147
1594.1200, -62.088
1594.1400, -62.154
1594.1600, -62.129
1594.1800, -62.122
1594.2000, -62.195
1594.2200, -62.183
1594.2400, -62.143
1594.2600, -62.174
1594.2800, -62.204
1594.3000, -62.144
1594.3200, -62.181
1594.3400, -62.206
1594.3600, -62.200
1594.3800, -62.207
1594.4000, -62.173
1594.4200, -62.218
1594.4400, -62.244
1594.4600, -62.167
1594.4800, -62.202
1594.5000, -62.233
1594.5200, -62.251
1594.5400, -62.224
1594.5600, -62.225
1594.5800, -62.245
1594.6000, -62.196
1594.6200, -62.265
1594.6400, -62.243
1594.6600, -62.233
1594.6800, -62.280
1594.7000, -62.227
1594.7200, -62.279
1594.7400, -62.226
1594.7600, -62.273
1594.7800, -62.273
1594.8000, -62.279
1594.8200, -62.315
1594.8400, -62.256
1594.8600, -62.286
1594.8800, -62.297
1594.9000, -62.294
1594.9200, -62.349
1594.9400, -62.288
1594.9600, -62.292
1594.9800, -62.299
1595.0000, -62.326
1595.0200, -62.331
1595.0400, -62.332
1595.0600, -62.353
1595.0800, -62.324
1595.1000, -62.342
1595.1200, -62.366
1595.1400, -62.348
1595.1600, -62.343
1595.1800, -62.354
1595.2000, -62.307
1595.2200, -62.370
1595.2400, -62.367
1595.2600, -62.441
1595.2800, -62.311
1595.3000, -62.372
1595.3200, -62.376
1595.3400, -62.405
1595.3600, -62.370
1595.3800, -62.430
1595.4000, -62.418
1595.4200, -62.402
1595.4400, -62.414
1595.4600, -62.449
1595.4800, -62.464
1595.5000, -62.451
1595.5200, -62.422
1595.5400, -62.377
1595.5600, -62.439
1595.5800, -62.462
1595.6000, -62.439
1595.6200, -62.470
1595.6400, -62.453
1595.6600, -62.449
1595.6800, -62.508
1595.7000, -62.463
1595.7200, -62.479
1595.7400, -62.477
1595.7600, -62.431
1595.7800, -62.513
1595.8000, -62.455
1595.8200, -62.497
1595.8400, -62.492
1595.8600, -62.554
1595.8800, -62.524
1595.9000, -62.486
1595.9200, -62.543
1595.9400, -62.521
1595.9600, -62.557
1595.9800, -62.505
1596.0000, -62.533
1596.0200, -62.513
1596.0400, -62.559
1596.0600, -62.563
1596.0800, -62.573
1596.1000, -62.555
1596.1200, -62.578
1596.1400, -62.535
1596.1600, -62.571
1596.1800, -62.594
1596.2000, -62.579
1596.2200, -62.575
1596.2400, -62.599
1596.2600, -62.618
1596.2800, -62.569
1596.3000, -62.609
1596.3200, -62.553
1596.3400, -62.645
1596.3600, -62.603
1596.3800, -62.651
1596.4000, -62.618
1596.4200, -62.594
1596.4400, -62.601
1596.4600, -62.621
1596.4800, -62.638
1596.5000, -62.635
1596.5200, -62.624
1596.5400, -62.688
1596.5600, -62.652
1596.5800, -62.639
1596.6000, -62.635
1596.6200, -62.631
1596.6400, -62.651
1596.6600, -62.694
1596.6800, -62.652
1596.7000, -62.702
1596.7200, -62.646
1596.7400, -62.669
1596.7600, -62.689
1596.7800, -62.670
1596.8000, -62.713
1596.8200, -62.720
1596.8400, -62.742
1596.8600, -62.689
1596.8800, -62.725
1596.9000, -62.693
1596.9200, -62.733
1596.9400, -62.714
1596.9600, -62.708
1596.9800, -62.746
1597.0000, -62.737
1597.0200, -62.741
1597.0400, -62.698
1597.0600, -62.755
1597.0800, -62.745
1597.1000, -62.772
1597.1200, -62.769
1597.1400, -62.771
1597.1600, -62.741
1597.1800, -62.727
1597.2000, -62.771
1597.2200, -62.740
1597.2400, -62.857
1597.2600, -62.760
1597.2800, -62.788
1597.3000, -62.801
1597.3200, -62.772
1597.3400, -62.775
1597.3600, -62.771
1597.3800, -62.822
1597.4000, -62.777
1597.4200, -62.802
1597.4400, -62.821
1597.4600, -62.800
1597.4800, -62.864
1597.5000, -62.813
1597.5200, -62.834
1597.5400, -62.888
1597.5600, -62.819
1597.5800, -62.827
1597.6000, -62.902
1597.6200, -62.869
1597.6400, -62.869
1597.6600, -62.867
1597.6800, -62.885
1597.7000, -62.868
1597.7200, -62.897
1597.7400, -62.861
1597.7600, -62.927
1597.7800, -62.870
1597.8000, -62.850
1597.8200, -62.914
1597.8400, -62.849
1597.8600, -62.896
1597.8800, -62.904
1597.9000, -62.905
1597.9200, -62.918
1597.9400, -62.940
1597.9600, -62.874
1597.9800, -62.919
1598.0000, -62.988
1598.0200, -62.888
1598.0400, -62.955
1598.0600, -62.962
1598.0800, -62.931
1598.1000, -62.926
1598.1200, -62.969
1598.1400, -62.958
1598.1600, -62.977
1598.1800, -62.935
1598.2000, -62.982
1598.2200, -62.947
1598.2400, -63.018
1598.2600, -62.954
1598.2800, -62.963
1598.3000, -62.985
1598.3200, -63.012
1598.3400, -63.028
1598.3600, -62.998
1598.3800, -63.007
1598.4000, -63.011
1598.4200, -63.019
1598.4400, -63.033
1598.4600, -63.007
1598.4800, -63.069
1598.5000, -63.026
1598.5200, -63.107
1598.5400, -63.029
1598.5600, -63.022
1598.5800, -63.071
1598.6000, -63.064
1598.6200, -63.072
1598.6400, -63.045
1598.6600, -63.078
1598.6800, -63.094
1598.7000, -63.038
1598.7200, -63.071
1598.7400, -63.072
1598.7600, -63.121
1598.7800, -63.063
1598.8000, -63.081
1598.8200, -63.078
1598.8400, -63.116
1598.8600, -63.078
1598.8800, -63.098
1598.9000, -63.052
1598.9200, -63.131
1598.9400, -63.108
1598.9600, -63.121
1598.9800, -63.132
1599.0000, -63.129
1599.0200, -63.145
1599.0400, -63.204
1599.0600, -63.114
1599.0800, -63.134
1599.1000, -63.121
1599.1200, -63.164
1599.1400, -63.143
1599.1600, -63.168
1599.1800, -63.176
1599.2000, -63.186
1599.2200, -63.213
1599.2400, -63.221
1599.2600, -63.195
1599.2800, -63.154
1599.3000, -63.192
1599.3200, -63.195
1599.3400, -63.194
1599.3600, -63.265
1599.3800, -63.212
1599.4000, -63.219
1599.4200, -63.253
1599.4400, -63.237
1599.4600, -63.183
1599.4800, -63.210
1599.5000, -63.224
1599.5200, -63.239
1599.5400, -63.313
1599.5600, -63.268
1599.5800, -63.175
1599.6000, -63.335
1599.6200, -63.216
1599.6400, -63.228
1599.6600, -63.304
1599.6800, -63.226
1599.7000, -63.364
1599.7200, -63.289
1599.7400, -63.312
1599.7600, -63.227
1599.7800, -63.276
1599.8000, -63.298
1599.8200, -63.283
1599.8400, -63.320
1599.8600, -63.348
1599.8800, -63.359
1599.9000, -63.258
1599.9200, -63.346
1599.9400, -63.409
1599.9600, -63.325
1599.9800, -63.306
1600.0000, -63.337
