70BCSV 	
// AQ6370B OPTICAL SPECTRUM ANALYZER //                 
25
"CTRWL",1550.000000
"SPAN", 100.000000
"START WL",1500.000000
"STOP WL",1600.000000
"WLFREQ", 0
"REFL",-28.8
"LSCL", 5.0
"RESLN",0.100
"AVG",   1
"SMPLAUTO",      0
"SMPL",       5001
"SMPLINTVL",0.0200
"HIGH1"
"MEAS"
"LSUNT",0
"NMSKH","OFF"
"RESCOR",0
"RESPARM", 9050
"FREQPARM", 9050






"[TRACE DATA]"
1500.0000, -62.601
1500.0200, -62.625
1500.0400, -62.545
1500.0600, -62.588
1500.0800, -62.604
1500.1000, -62.582
1500.1200, -62.496
1500.1400, -62.540
1500.1600, -62.553
1500.1800, -62.519
1500.2000, -62.544
1500.2200, -62.535
1500.2400, -62.567
1500.2600, -62.492
1500.2800, -62.510
1500.3000, -62.494
1500.3200, -62.477
1500.3400, -62.501
1500.3600, -62.470
1500.3800, -62.480
1500.4000, -62.460
1500.4200, -62.470
1500.4400, -62.516
1500.4600, -62.423
1500.4800, -62.444
1500.5000, -62.400
1500.5200, -62.433
1500.5400, -62.436
1500.5600, -62.401
1500.5800, -62.425
1500.6000, -62.420
1500.6200, -62.396
1500.6400, -62.420
1500.6600, -62.382
1500.6800, -62.411
1500.7000, -62.390
1500.7200, -62.414
1500.7400, -62.397
1500.7600, -62.365
1500.7800, -62.351
1500.8000, -62.382
1500.8200, -62.391
1500.8400, -62.354
1500.8600, -62.399
1500.8800, -62.308
1500.9000, -62.323
1500.9200, -62.362
1500.9400, -62.366
1500.9600, -62.360
1500.9800, -62.308
1501.0000, -62.321
1501.0200, -62.344
1501.0400, -62.304
1501.0600, -62.290
1501.0800, -62.275
1501.1000, -62.275
1501.1200, -62.269
1501.1400, -62.267
1501.1600, -62.290
1501.1800, -62.275
1501.2000, -62.230
1501.2200, -62.239
1501.2400, -62.283
1501.2600, -62.216
1501.2800, -62.224
1501.3000, -62.251
1501.3200, -62.173
1501.3400, -62.208
1501.3600, -62.227
1501.3800, -62.207
1501.4000, -62.181
1501.4200, -62.181
1501.4400, -62.204
1501.4600, -62.184
1501.4800, -62.178
1501.5000, -62.147
1501.5200, -62.179
1501.5400, -62.151
1501.5600, -62.148
1501.5800, -62.157
1501.6000, -62.143
1501.6200, -62.139
1501.6400, -62.118
1501.6600, -62.137
1501.6800, -62.112
1501.7000, -62.099
1501.7200, -62.094
1501.7400, -62.129
1501.7600, -62.108
1501.7800, -62.109
1501.8000, -62.108
1501.8200, -62.091
1501.8400, -62.138
1501.8600, -62.112
1501.8800, -62.075
1501.9000, -62.090
1501.9200, -62.094
1501.9400, -62.050
1501.9600, -62.040
1501.9800, -62.062
1502.0000, -62.041
1502.0200, -62.036
1502.0400, -62.067
1502.0600, -62.016
1502.0800, -61.988
1502.1000, -62.016
1502.1200, -62.015
1502.1400, -61.982
1502.1600, -61.976
1502.1800, -61.947
1502.2000, -61.980
1502.2200, -61.979
1502.2400, -61.966
1502.2600, -61.943
1502.2800, -61.935
1502.3000, -61.926
1502.3200, -61.945
1502.3400, -61.914
1502.3600, -61.942
1502.3800, -61.913
1502.4000, -61.937
1502.4200, -61.888
1502.4400, -61.890
1502.4600, -61.910
1502.4800, -61.854
1502.5000, -61.884
1502.5200, -61.833
1502.5400, -61.877
1502.5600, -61.879
1502.5800, -61.861
1502.6000, -61.844
1502.6200, -61.856
1502.6400, -61.797
1502.6600, -61.787
1502.6800, -61.825
1502.7000, -61.840
1502.7200, -61.808
1502.7400, -61.826
1502.7600, -61.822
1502.7800, -61.835
1502.8000, -61.804
1502.8200, -61.808
1502.8400, -61.768
1502.8600, -61.822
1502.8800, -61.741
1502.9000, -61.766
1502.9200, -61.790
1502.9400, -61.778
1502.9600, -61.740
1502.9800, -61.751
1503.0000, -61.710
1503.0200, -61.703
1503.0400, -61.711
1503.0600, -61.691
1503.0800, -61.721
1503.1000, -61.663
1503.1200, -61.677
1503.1400, -61.667
1503.1600, -61.680
1503.1800, -61.683
1503.2000, -61.656
1503.2200, -61.704
1503.2400, -61.636
1503.2600, -61.635
1503.2800, -61.640
1503.3000, -61.613
1503.3200, -61.592
1503.3400, -61.607
1503.3600, -61.589
1503.3800, -61.599
1503.4000, -61.585
1503.4200, -61.592
1503.4400, -61.551
1503.4600, -61.597
1503.4800, -61.561
1503.5000, -61.538
1503.5200, -61.549
1503.5400, -61.494
1503.5600, -61.552
1503.5800, -61.528
1503.6000, -61.545
1503.6200, -61.561
1503.6400, -61.505
1503.6600, -61.515
1503.6800, -61.490
1503.7000, -61.544
1503.7200, -61.509
1503.7400, -61.472
1503.7600, -61.455
1503.7800, -61.481
1503.8000, -61.448
1503.8200, -61.491
1503.8400, -61.479
1503.8600, -61.462
1503.8800, -61.454
1503.9000, -61.459
1503.9200, -61.439
1503.9400, -61.440
1503.9600, -61.424
1503.9800, -61.413
1504.0000, -61.421
1504.0200, -61.385
1504.0400, -61.395
1504.0600, -61.407
1504.0800, -61.373
1504.1000, -61.348
1504.1200, -61.361
1504.1400, -61.334
1504.1600, -61.337
1504.1800, -61.344
1504.2000, -61.349
1504.2200, -61.336
1504.2400, -61.297
1504.2600, -61.309
1504.2800, -61.287
1504.3000, -61.283
1504.3200, -61.264
1504.3400, -61.254
1504.3600, -61.242
1504.3800, -61.278
1504.4000, -61.271
1504.4200, -61.250
1504.4400, -61.235
1504.4600, -61.222
1504.4800, -61.202
1504.5000, -61.249
1504.5200, -61.206
1504.5400, -61.231
1504.5600, -61.198
1504.5800, -61.178
1504.6000, -61.219
1504.6200, -61.192
1504.6400, -61.172
1504.6600, -61.194
1504.6800, -61.142
1504.7000, -61.165
1504.7200, -61.147
1504.7400, -61.141
1504.7600, -61.163
1504.7800, -61.180
1504.8000, -61.113
1504.8200, -61.144
1504.8400, -61.129
1504.8600, -61.114
1504.8800, -61.125
1504.9000, -61.092
1504.9200, -61.069
1504.9400, -61.078
1504.9600, -61.072
1504.9800, -61.046
1505.0000, -61.034
1505.0200, -61.059
1505.0400, -61.012
1505.0600, -61.035
1505.0800, -61.024
1505.1000, -61.002
1505.1200, -61.026
1505.1400, -61.001
1505.1600, -60.973
1505.1800, -60.962
1505.2000, -60.966
1505.2200, -60.954
1505.2400, -60.974
1505.2600, -60.928
1505.2800, -60.950
1505.3000, -60.901
1505.3200, -60.936
1505.3400, -60.889
1505.3600, -60.914
1505.3800, -60.912
1505.4000, -60.868
1505.4200, -60.887
1505.4400, -60.865
1505.4600, -60.918
1505.4800, -60.868
1505.5000, -60.834
1505.5200, -60.851
1505.5400, -60.831
1505.5600, -60.845
1505.5800, -60.855
1505.6000, -60.840
1505.6200, -60.818
1505.6400, -60.832
1505.6600, -60.776
1505.6800, -60.798
1505.7000, -60.814
1505.7200, -60.787
1505.7400, -60.812
1505.7600, -60.762
1505.7800, -60.779
1505.8000, -60.775
1505.8200, -60.762
1505.8400, -60.767
1505.8600, -60.732
1505.8800, -60.739
1505.9000, -60.720
1505.9200, -60.720
1505.9400, -60.680
1505.9600, -60.678
1505.9800, -60.695
1506.0000, -60.680
1506.0200, -60.667
1506.0400, -60.659
1506.0600, -60.683
1506.0800, -60.659
1506.1000, -60.630
1506.1200, -60.636
1506.1400, -60.630
1506.1600, -60.604
1506.1800, -60.596
1506.2000, -60.598
1506.2200, -60.601
1506.2400, -60.583
1506.2600, -60.585
1506.2800, -60.550
1506.3000, -60.548
1506.3200, -60.579
1506.3400, -60.531
1506.3600, -60.552
1506.3800, -60.544
1506.4000, -60.496
1506.4200, -60.535
1506.4400, -60.530
1506.4600, -60.503
1506.4800, -60.479
1506.5000, -60.496
1506.5200, -60.467
1506.5400, -60.490
1506.5600, -60.503
1506.5800, -60.474
1506.6000, -60.448
1506.6200, -60.450
1506.6400, -60.428
1506.6600, -60.469
1506.6800, -60.414
1506.7000, -60.452
1506.7200, -60.404
1506.7400, -60.418
1506.7600, -60.416
1506.7800, -60.393
1506.8000, -60.388
1506.8200, -60.389
1506.8400, -60.388
1506.8600, -60.359
1506.8800, -60.345
1506.9000, -60.341
1506.9200, -60.326
1506.9400, -60.341
1506.9600, -60.300
1506.9800, -60.332
1507.0000, -60.297
1507.0200, -60.295
1507.0400, -60.279
1507.0600, -60.281
1507.0800, -60.287
1507.1000, -60.267
1507.1200, -60.240
1507.1400, -60.273
1507.1600, -60.215
1507.1800, -60.233
1507.2000, -60.208
1507.2200, -60.220
1507.2400, -60.204
1507.2600, -60.196
1507.2800, -60.197
1507.3000, -60.196
1507.3200, -60.145
1507.3400, -60.194
1507.3600, -60.164
1507.3800, -60.139
1507.4000, -60.163
1507.4200, -60.151
1507.4400, -60.129
1507.4600, -60.113
1507.4800, -60.140
1507.5000, -60.118
1507.5200, -60.093
1507.5400, -60.114
1507.5600, -60.077
1507.5800, -60.098
1507.6000, -60.061
1507.6200, -60.059
1507.6400, -60.069
1507.6600, -60.048
1507.6800, -60.077
1507.7000, -60.027
1507.7200, -60.059
1507.7400, -60.034
1507.7600, -60.031
1507.7800, -60.009
1507.8000, -59.982
1507.8200, -59.986
1507.8400, -59.960
1507.8600, -59.974
1507.8800, -59.973
1507.9000, -59.942
1507.9200, -59.922
1507.9400, -59.957
1507.9600, -59.927
1507.9800, -59.909
1508.0000, -59.921
1508.0200, -59.881
1508.0400, -59.898
1508.0600, -59.885
1508.0800, -59.865
1508.1000, -59.852
1508.1200, -59.874
1508.1400, -59.858
1508.1600, -59.810
1508.1800, -59.830
1508.2000, -59.823
1508.2200, -59.833
1508.2400, -59.819
1508.2600, -59.795
1508.2800, -59.810
1508.3000, -59.818
1508.3200, -59.789
1508.3400, -59.795
1508.3600, -59.756
1508.3800, -59.759
1508.4000, -59.761
1508.4200, -59.762
1508.4400, -59.745
1508.4600, -59.721
1508.4800, -59.749
1508.5000, -59.698
1508.5200, -59.722
1508.5400, -59.690
1508.5600, -59.719
1508.5800, -59.674
1508.6000, -59.691
1508.6200, -59.664
1508.6400, -59.708
1508.6600, -59.644
1508.6800, -59.664
1508.7000, -59.634
1508.7200, -59.668
1508.7400, -59.601
1508.7600, -59.639
1508.7800, -59.608
1508.8000, -59.599
1508.8200, -59.600
1508.8400, -59.583
1508.8600, -59.568
1508.8800, -59.566
1508.9000, -59.568
1508.9200, -59.536
1508.9400, -59.527
1508.9600, -59.535
1508.9800, -59.516
1509.0000, -59.506
1509.0200, -59.501
1509.0400, -59.504
1509.0600, -59.467
1509.0800, -59.489
1509.1000, -59.463
1509.1200, -59.452
1509.1400, -59.435
1509.1600, -59.440
1509.1800, -59.415
1509.2000, -59.413
1509.2200, -59.422
1509.2400, -59.396
1509.2600, -59.422
1509.2800, -59.389
1509.3000, -59.371
1509.3200, -59.377
1509.3400, -59.358
1509.3600, -59.381
1509.3800, -59.338
1509.4000, -59.331
1509.4200, -59.333
1509.4400, -59.336
1509.4600, -59.304
1509.4800, -59.301
1509.5000, -59.298
1509.5200, -59.287
1509.5400, -59.284
1509.5600, -59.292
1509.5800, -59.300
1509.6000, -59.251
1509.6200, -59.259
1509.6400, -59.251
1509.6600, -59.230
1509.6800, -59.246
1509.7000, -59.230
1509.7200, -59.211
1509.7400, -59.205
1509.7600, -59.188
1509.7800, -59.172
1509.8000, -59.173
1509.8200, -59.136
1509.8400, -59.165
1509.8600, -59.131
1509.8800, -59.142
1509.9000, -59.147
1509.9200, -59.116
1509.9400, -59.109
1509.9600, -59.105
1509.9800, -59.097
1510.0000, -59.076
1510.0200, -59.074
1510.0400, -59.062
1510.0600, -59.051
1510.0800, -59.044
1510.1000, -59.045
1510.1200, -59.015
1510.1400, -58.992
1510.1600, -59.003
1510.1800, -58.992
1510.2000, -58.974
1510.2200, -58.982
1510.2400, -58.973
1510.2600, -58.969
1510.2800, -58.943
1510.3000, -58.950
1510.3200, -58.940
1510.3400, -58.933
1510.3600, -58.900
1510.3800, -58.922
1510.4000, -58.896
1510.4200, -58.875
1510.4400, -58.867
1510.4600, -58.864
1510.4800, -58.852
1510.5000, -58.841
1510.5200, -58.838
1510.5400, -58.835
1510.5600, -58.833
1510.5800, -58.792
1510.6000, -58.805
1510.6200, -58.800
1510.6400, -58.778
1510.6600, -58.771
1510.6800, -58.754
1510.7000, -58.738
1510.7200, -58.726
1510.7400, -58.722
1510.7600, -58.707
1510.7800, -58.691
1510.8000, -58.683
1510.8200, -58.689
1510.8400, -58.661
1510.8600, -58.667
1510.8800, -58.636
1510.9000, -58.629
1510.9200, -58.597
1510.9400, -58.608
1510.9600, -58.608
1510.9800, -58.599
1511.0000, -58.562
1511.0200, -58.558
1511.0400, -58.548
1511.0600, -58.549
1511.0800, -58.552
1511.1000, -58.519
1511.1200, -58.525
1511.1400, -58.491
1511.1600, -58.486
1511.1800, -58.516
1511.2000, -58.479
1511.2200, -58.458
1511.2400, -58.449
1511.2600, -58.461
1511.2800, -58.449
1511.3000, -58.430
1511.3200, -58.436
1511.3400, -58.425
1511.3600, -58.400
1511.3800, -58.388
1511.4000, -58.388
1511.4200, -58.360
1511.4400, -58.334
1511.4600, -58.344
1511.4800, -58.350
1511.5000, -58.336
1511.5200, -58.315
1511.5400, -58.304
1511.5600, -58.293
1511.5800, -58.282
1511.6000, -58.274
1511.6200, -58.259
1511.6400, -58.259
1511.6600, -58.225
1511.6800, -58.224
1511.7000, -58.210
1511.7200, -58.211
1511.7400, -58.199
1511.7600, -58.203
1511.7800, -58.166
1511.8000, -58.150
1511.8200, -58.133
1511.8400, -58.125
1511.8600, -58.120
1511.8800, -58.114
1511.9000, -58.093
1511.9200, -58.089
1511.9400, -58.066
1511.9600, -58.061
1511.9800, -58.062
1512.0000, -58.036
1512.0200, -58.031
1512.0400, -58.014
1512.0600, -58.018
1512.0800, -57.995
1512.1000, -57.987
1512.1200, -57.989
1512.1400, -57.974
1512.1600, -57.967
1512.1800, -57.948
1512.2000, -57.944
1512.2200, -57.935
1512.2400, -57.933
1512.2600, -57.922
1512.2800, -57.902
1512.3000, -57.900
1512.3200, -57.893
1512.3400, -57.867
1512.3600, -57.862
1512.3800, -57.855
1512.4000, -57.871
1512.4200, -57.842
1512.4400, -57.836
1512.4600, -57.816
1512.4800, -57.811
1512.5000, -57.804
1512.5200, -57.780
1512.5400, -57.765
1512.5600, -57.759
1512.5800, -57.736
1512.6000, -57.734
1512.6200, -57.710
1512.6400, -57.703
1512.6600, -57.691
1512.6800, -57.695
1512.7000, -57.668
1512.7200, -57.670
1512.7400, -57.662
1512.7600, -57.629
1512.7800, -57.614
1512.8000, -57.615
1512.8200, -57.611
1512.8400, -57.586
1512.8600, -57.572
1512.8800, -57.569
1512.9000, -57.545
1512.9200, -57.544
1512.9400, -57.531
1512.9600, -57.509
1512.9800, -57.508
1513.0000, -57.491
1513.0200, -57.482
1513.0400, -57.472
1513.0600, -57.476
1513.0800, -57.451
1513.1000, -57.441
1513.1200, -57.431
1513.1400, -57.421
1513.1600, -57.421
1513.1800, -57.395
1513.2000, -57.404
1513.2200, -57.396
1513.2400, -57.374
1513.2600, -57.364
1513.2800, -57.358
1513.3000, -57.352
1513.3200, -57.330
1513.3400, -57.325
1513.3600, -57.318
1513.3800, -57.288
1513.4000, -57.283
1513.4200, -57.284
1513.4400, -57.266
1513.4600, -57.249
1513.4800, -57.232
1513.5000, -57.231
1513.5200, -57.207
1513.5400, -57.193
1513.5600, -57.183
1513.5800, -57.172
1513.6000, -57.158
1513.6200, -57.144
1513.6400, -57.129
1513.6600, -57.121
1513.6800, -57.115
1513.7000, -57.090
1513.7200, -57.065
1513.7400, -57.070
1513.7600, -57.050
1513.7800, -57.046
1513.8000, -57.028
1513.8200, -57.021
1513.8400, -57.001
1513.8600, -56.970
1513.8800, -56.966
1513.9000, -56.958
1513.9200, -56.954
1513.9400, -56.943
1513.9600, -56.922
1513.9800, -56.921
1514.0000, -56.901
1514.0200, -56.917
1514.0400, -56.876
1514.0600, -56.873
1514.0800, -56.857
1514.1000, -56.847
1514.1200, -56.848
1514.1400, -56.839
1514.1600, -56.829
1514.1800, -56.807
1514.2000, -56.793
1514.2200, -56.793
1514.2400, -56.786
1514.2600, -56.759
1514.2800, -56.747
1514.3000, -56.729
1514.3200, -56.736
1514.3400, -56.712
1514.3600, -56.691
1514.3800, -56.690
1514.4000, -56.685
1514.4200, -56.668
1514.4400, -56.656
1514.4600, -56.638
1514.4800, -56.615
1514.5000, -56.605
1514.5200, -56.587
1514.5400, -56.575
1514.5600, -56.553
1514.5800, -56.540
1514.6000, -56.542
1514.6200, -56.530
1514.6400, -56.515
1514.6600, -56.515
1514.6800, -56.477
1514.7000, -56.463
1514.7200, -56.447
1514.7400, -56.436
1514.7600, -56.427
1514.7800, -56.404
1514.8000, -56.395
1514.8200, -56.375
1514.8400, -56.378
1514.8600, -56.376
1514.8800, -56.351
1514.9000, -56.340
1514.9200, -56.320
1514.9400, -56.316
1514.9600, -56.317
1514.9800, -56.293
1515.0000, -56.274
1515.0200, -56.267
1515.0400, -56.254
1515.0600, -56.248
1515.0800, -56.224
1515.1000, -56.225
1515.1200, -56.215
1515.1400, -56.188
1515.1600, -56.183
1515.1800, -56.161
1515.2000, -56.161
1515.2200, -56.140
1515.2400, -56.120
1515.2600, -56.110
1515.2800, -56.095
1515.3000, -56.089
1515.3200, -56.068
1515.3400, -56.048
1515.3600, -56.042
1515.3800, -56.024
1515.4000, -56.011
1515.4200, -55.992
1515.4400, -55.975
1515.4600, -55.968
1515.4800, -55.946
1515.5000, -55.922
1515.5200, -55.921
1515.5400, -55.916
1515.5600, -55.888
1515.5800, -55.882
1515.6000, -55.857
1515.6200, -55.848
1515.6400, -55.836
1515.6600, -55.816
1515.6800, -55.802
1515.7000, -55.781
1515.7200, -55.770
1515.7400, -55.751
1515.7600, -55.723
1515.7800, -55.713
1515.8000, -55.722
1515.8200, -55.711
1515.8400, -55.690
1515.8600, -55.673
1515.8800, -55.663
1515.9000, -55.649
1515.9200, -55.641
1515.9400, -55.612
1515.9600, -55.606
1515.9800, -55.589
1516.0000, -55.580
1516.0200, -55.572
1516.0400, -55.555
1516.0600, -55.548
1516.0800, -55.514
1516.1000, -55.508
1516.1200, -55.511
1516.1400, -55.489
1516.1600, -55.464
1516.1800, -55.437
1516.2000, -55.443
1516.2200, -55.429
1516.2400, -55.413
1516.2600, -55.394
1516.2800, -55.383
1516.3000, -55.357
1516.3200, -55.339
1516.3400, -55.332
1516.3600, -55.307
1516.3800, -55.288
1516.4000, -55.272
1516.4200, -55.253
1516.4400, -55.232
1516.4600, -55.221
1516.4800, -55.207
1516.5000, -55.190
1516.5200, -55.180
1516.5400, -55.151
1516.5600, -55.140
1516.5800, -55.125
1516.6000, -55.096
1516.6200, -55.085
1516.6400, -55.064
1516.6600, -55.054
1516.6800, -55.032
1516.7000, -55.003
1516.7200, -54.990
1516.7400, -54.992
1516.7600, -54.971
1516.7800, -54.951
1516.8000, -54.933
1516.8200, -54.914
1516.8400, -54.915
1516.8600, -54.899
1516.8800, -54.883
1516.9000, -54.857
1516.9200, -54.841
1516.9400, -54.823
1516.9600, -54.810
1516.9800, -54.803
1517.0000, -54.797
1517.0200, -54.766
1517.0400, -54.751
1517.0600, -54.743
1517.0800, -54.719
1517.1000, -54.708
1517.1200, -54.677
1517.1400, -54.663
1517.1600, -54.663
1517.1800, -54.639
1517.2000, -54.612
1517.2200, -54.597
1517.2400, -54.579
1517.2600, -54.555
1517.2800, -54.545
1517.3000, -54.523
1517.3200, -54.483
1517.3400, -54.482
1517.3600, -54.464
1517.3800, -54.441
1517.4000, -54.430
1517.4200, -54.422
1517.4400, -54.388
1517.4600, -54.374
1517.4800, -54.348
1517.5000, -54.329
1517.5200, -54.325
1517.5400, -54.301
1517.5600, -54.276
1517.5800, -54.254
1517.6000, -54.245
1517.6200, -54.219
1517.6400, -54.196
1517.6600, -54.176
1517.6800, -54.161
1517.7000, -54.143
1517.7200, -54.121
1517.7400, -54.103
1517.7600, -54.080
1517.7800, -54.066
1517.8000, -54.050
1517.8200, -54.041
1517.8400, -54.012
1517.8600, -53.993
1517.8800, -53.966
1517.9000, -53.959
1517.9200, -53.939
1517.9400, -53.939
1517.9600, -53.911
1517.9800, -53.889
1518.0000, -53.880
1518.0200, -53.862
1518.0400, -53.841
1518.0600, -53.810
1518.0800, -53.792
1518.1000, -53.781
1518.1200, -53.755
1518.1400, -53.723
1518.1600, -53.710
1518.1800, -53.690
1518.2000, -53.667
1518.2200, -53.655
1518.2400, -53.641
1518.2600, -53.610
1518.2800, -53.583
1518.3000, -53.558
1518.3200, -53.536
1518.3400, -53.519
1518.3600, -53.506
1518.3800, -53.474
1518.4000, -53.457
1518.4200, -53.427
1518.4400, -53.413
1518.4600, -53.398
1518.4800, -53.366
1518.5000, -53.345
1518.5200, -53.314
1518.5400, -53.297
1518.5600, -53.277
1518.5800, -53.244
1518.6000, -53.221
1518.6200, -53.209
1518.6400, -53.184
1518.6600, -53.164
1518.6800, -53.143
1518.7000, -53.128
1518.7200, -53.105
1518.7400, -53.087
1518.7600, -53.068
1518.7800, -53.040
1518.8000, -53.019
1518.8200, -52.992
1518.8400, -52.980
1518.8600, -52.965
1518.8800, -52.954
1518.9000, -52.917
1518.9200, -52.899
1518.9400, -52.884
1518.9600, -52.864
1518.9800, -52.826
1519.0000, -52.794
1519.0200, -52.783
1519.0400, -52.780
1519.0600, -52.745
1519.0800, -52.713
1519.1000, -52.697
1519.1200, -52.664
1519.1400, -52.635
1519.1600, -52.618
1519.1800, -52.581
1519.2000, -52.560
1519.2200, -52.532
1519.2400, -52.501
1519.2600, -52.476
1519.2800, -52.457
1519.3000, -52.440
1519.3200, -52.409
1519.3400, -52.384
1519.3600, -52.365
1519.3800, -52.332
1519.4000, -52.303
1519.4200, -52.266
1519.4400, -52.233
1519.4600, -52.213
1519.4800, -52.192
1519.5000, -52.161
1519.5200, -52.127
1519.5400, -52.100
1519.5600, -52.093
1519.5800, -52.065
1519.6000, -52.039
1519.6200, -52.009
1519.6400, -51.982
1519.6600, -51.972
1519.6800, -51.951
1519.7000, -51.920
1519.7200, -51.888
1519.7400, -51.863
1519.7600, -51.846
1519.7800, -51.826
1519.8000, -51.806
1519.8200, -51.782
1519.8400, -51.749
1519.8600, -51.715
1519.8800, -51.695
1519.9000, -51.663
1519.9200, -51.633
1519.9400, -51.598
1519.9600, -51.584
1519.9800, -51.575
1520.0000, -51.532
1520.0200, -51.515
1520.0400, -51.483
1520.0600, -51.444
1520.0800, -51.417
1520.1000, -51.384
1520.1200, -51.356
1520.1400, -51.315
1520.1600, -51.282
1520.1800, -51.252
1520.2000, -51.216
1520.2200, -51.201
1520.2400, -51.171
1520.2600, -51.145
1520.2800, -51.116
1520.3000, -51.082
1520.3200, -51.055
1520.3400, -51.024
1520.3600, -50.987
1520.3800, -50.952
1520.4000, -50.913
1520.4200, -50.898
1520.4400, -50.860
1520.4600, -50.810
1520.4800, -50.782
1520.5000, -50.769
1520.5200, -50.745
1520.5400, -50.705
1520.5600, -50.675
1520.5800, -50.637
1520.6000, -50.625
1520.6200, -50.600
1520.6400, -50.556
1520.6600, -50.523
1520.6800, -50.496
1520.7000, -50.467
1520.7200, -50.447
1520.7400, -50.423
1520.7600, -50.398
1520.7800, -50.346
1520.8000, -50.306
1520.8200, -50.278
1520.8400, -50.244
1520.8600, -50.202
1520.8800, -50.176
1520.9000, -50.167
1520.9200, -50.131
1520.9400, -50.097
1520.9600, -50.064
1520.9800, -50.029
1521.0000, -49.991
1521.0200, -49.963
1521.0400, -49.926
1521.0600, -49.887
1521.0800, -49.842
1521.1000, -49.807
1521.1200, -49.771
1521.1400, -49.732
1521.1600, -49.713
1521.1800, -49.678
1521.2000, -49.639
1521.2200, -49.607
1521.2400, -49.569
1521.2600, -49.535
1521.2800, -49.495
1521.3000, -49.450
1521.3200, -49.421
1521.3400, -49.375
1521.3600, -49.354
1521.3800, -49.302
1521.4000, -49.253
1521.4200, -49.221
1521.4400, -49.203
1521.4600, -49.173
1521.4800, -49.134
1521.5000, -49.099
1521.5200, -49.064
1521.5400, -49.040
1521.5600, -49.009
1521.5800, -48.966
1521.6000, -48.926
1521.6200, -48.895
1521.6400, -48.858
1521.6600, -48.840
1521.6800, -48.805
1521.7000, -48.770
1521.7200, -48.714
1521.7400, -48.680
1521.7600, -48.650
1521.7800, -48.608
1521.8000, -48.564
1521.8200, -48.532
1521.8400, -48.522
1521.8600, -48.475
1521.8800, -48.441
1521.9000, -48.403
1521.9200, -48.367
1521.9400, -48.322
1521.9600, -48.291
1521.9800, -48.251
1522.0000, -48.206
1522.0200, -48.160
1522.0400, -48.120
1522.0600, -48.082
1522.0800, -48.045
1522.1000, -48.021
1522.1200, -47.982
1522.1400, -47.938
1522.1600, -47.904
1522.1800, -47.858
1522.2000, -47.824
1522.2200, -47.786
1522.2400, -47.745
1522.2600, -47.700
1522.2800, -47.666
1522.3000, -47.627
1522.3200, -47.568
1522.3400, -47.523
1522.3600, -47.492
1522.3800, -47.469
1522.4000, -47.428
1522.4200, -47.397
1522.4400, -47.349
1522.4600, -47.317
1522.4800, -47.292
1522.5000, -47.252
1522.5200, -47.205
1522.5400, -47.167
1522.5600, -47.131
1522.5800, -47.104
1522.6000, -47.073
1522.6200, -47.036
1522.6400, -47.000
1522.6600, -46.942
1522.6800, -46.907
1522.7000, -46.869
1522.7200, -46.830
1522.7400, -46.790
1522.7600, -46.758
1522.7800, -46.738
1522.8000, -46.694
1522.8200, -46.650
1522.8400, -46.611
1522.8600, -46.577
1522.8800, -46.528
1522.9000, -46.493
1522.9200, -46.456
1522.9400, -46.419
1522.9600, -46.374
1522.9800, -46.327
1523.0000, -46.287
1523.0200, -46.246
1523.0400, -46.222
1523.0600, -46.179
1523.0800, -46.145
1523.1000, -46.108
1523.1200, -46.058
1523.1400, -46.014
1523.1600, -45.974
1523.1800, -45.932
1523.2000, -45.889
1523.2200, -45.856
1523.2400, -45.821
1523.2600, -45.773
1523.2800, -45.734
1523.3000, -45.702
1523.3200, -45.657
1523.3400, -45.622
1523.3600, -45.580
1523.3800, -45.539
1523.4000, -45.514
1523.4200, -45.490
1523.4400, -45.451
1523.4600, -45.406
1523.4800, -45.369
1523.5000, -45.327
1523.5200, -45.298
1523.5400, -45.272
1523.5600, -45.232
1523.5800, -45.194
1523.6000, -45.157
1523.6200, -45.115
1523.6400, -45.076
1523.6600, -45.039
1523.6800, -45.001
1523.7000, -44.969
1523.7200, -44.941
1523.7400, -44.893
1523.7600, -44.863
1523.7800, -44.831
1523.8000, -44.791
1523.8200, -44.733
1523.8400, -44.697
1523.8600, -44.651
1523.8800, -44.612
1523.9000, -44.578
1523.9200, -44.542
1523.9400, -44.506
1523.9600, -44.473
1523.9800, -44.440
1524.0000, -44.400
1524.0200, -44.372
1524.0400, -44.321
1524.0600, -44.277
1524.0800, -44.239
1524.1000, -44.200
1524.1200, -44.162
1524.1400, -44.123
1524.1600, -44.088
1524.1800, -44.055
1524.2000, -44.029
1524.2200, -43.987
1524.2400, -43.941
1524.2600, -43.902
1524.2800, -43.861
1524.3000, -43.824
1524.3200, -43.788
1524.3400, -43.769
1524.3600, -43.732
1524.3800, -43.698
1524.4000, -43.657
1524.4200, -43.616
1524.4400, -43.584
1524.4600, -43.564
1524.4800, -43.532
1524.5000, -43.495
1524.5200, -43.433
1524.5400, -43.418
1524.5600, -43.388
1524.5800, -43.355
1524.6000, -43.324
1524.6200, -43.300
1524.6400, -43.246
1524.6600, -43.214
1524.6800, -43.174
1524.7000, -43.137
1524.7200, -43.112
1524.7400, -43.068
1524.7600, -43.021
1524.7800, -42.985
1524.8000, -42.940
1524.8200, -42.897
1524.8400, -42.865
1524.8600, -42.829
1524.8800, -42.808
1524.9000, -42.769
1524.9200, -42.736
1524.9400, -42.698
1524.9600, -42.664
1524.9800, -42.610
1525.0000, -42.577
1525.0200, -42.533
1525.0400, -42.490
1525.0600, -42.464
1525.0800, -42.422
1525.1000, -42.394
1525.1200, -42.371
1525.1400, -42.338
1525.1600, -42.289
1525.1800, -42.247
1525.2000, -42.213
1525.2200, -42.170
1525.2400, -42.141
1525.2600, -42.115
1525.2800, -42.099
1525.3000, -42.063
1525.3200, -42.024
1525.3400, -41.982
1525.3600, -41.954
1525.3800, -41.920
1525.4000, -41.905
1525.4200, -41.866
1525.4400, -41.831
1525.4600, -41.799
1525.4800, -41.758
1525.5000, -41.725
1525.5200, -41.684
1525.5400, -41.662
1525.5600, -41.616
1525.5800, -41.590
1525.6000, -41.550
1525.6200, -41.506
1525.6400, -41.485
1525.6600, -41.449
1525.6800, -41.400
1525.7000, -41.354
1525.7200, -41.321
1525.7400, -41.278
1525.7600, -41.250
1525.7800, -41.210
1525.8000, -41.180
1525.8200, -41.142
1525.8400, -41.114
1525.8600, -41.067
1525.8800, -41.048
1525.9000, -40.999
1525.9200, -40.949
1525.9400, -40.924
1525.9600, -40.872
1525.9800, -40.852
1526.0000, -40.814
1526.0200, -40.778
1526.0400, -40.749
1526.0600, -40.711
1526.0800, -40.681
1526.1000, -40.645
1526.1200, -40.614
1526.1400, -40.574
1526.1600, -40.533
1526.1800, -40.505
1526.2000, -40.476
1526.2200, -40.449
1526.2400, -40.416
1526.2600, -40.372
1526.2800, -40.341
1526.3000, -40.312
1526.3200, -40.284
1526.3400, -40.259
1526.3600, -40.236
1526.3800, -40.200
1526.4000, -40.172
1526.4200, -40.142
1526.4400, -40.106
1526.4600, -40.074
1526.4800, -40.034
1526.5000, -40.009
1526.5200, -39.977
1526.5400, -39.918
1526.5600, -39.897
1526.5800, -39.877
1526.6000, -39.826
1526.6200, -39.768
1526.6400, -39.757
1526.6600, -39.712
1526.6800, -39.680
1526.7000, -39.647
1526.7200, -39.620
1526.7400, -39.580
1526.7600, -39.561
1526.7800, -39.504
1526.8000, -39.486
1526.8200, -39.456
1526.8400, -39.395
1526.8600, -39.354
1526.8800, -39.331
1526.9000, -39.285
1526.9200, -39.261
1526.9400, -39.212
1526.9600, -39.188
1526.9800, -39.158
1527.0000, -39.124
1527.0200, -39.091
1527.0400, -39.049
1527.0600, -39.024
1527.0800, -38.985
1527.1000, -38.959
1527.1200, -38.916
1527.1400, -38.905
1527.1600, -38.866
1527.1800, -38.831
1527.2000, -38.800
1527.2200, -38.763
1527.2400, -38.732
1527.2600, -38.721
1527.2800, -38.683
1527.3000, -38.658
1527.3200, -38.626
1527.3400, -38.603
1527.3600, -38.573
1527.3800, -38.534
1527.4000, -38.490
1527.4200, -38.461
1527.4400, -38.441
1527.4600, -38.386
1527.4800, -38.330
1527.5000, -38.327
1527.5200, -38.280
1527.5400, -38.216
1527.5600, -38.189
1527.5800, -38.160
1527.6000, -38.118
1527.6200, -38.084
1527.6400, -38.062
1527.6600, -38.015
1527.6800, -37.984
1527.7000, -37.952
1527.7200, -37.893
1527.7400, -37.890
1527.7600, -37.836
1527.7800, -37.775
1527.8000, -37.751
1527.8200, -37.704
1527.8400, -37.677
1527.8600, -37.645
1527.8800, -37.613
1527.9000, -37.579
1527.9200, -37.537
1527.9400, -37.509
1527.9600, -37.473
1527.9800, -37.440
1528.0000, -37.387
1528.0200, -37.332
1528.0400, -37.319
1528.0600, -37.296
1528.0800, -37.269
1528.1000, -37.244
1528.1200, -37.193
1528.1400, -37.153
1528.1600, -37.125
1528.1800, -37.102
1528.2000, -37.070
1528.2200, -37.054
1528.2400, -37.001
1528.2600, -36.984
1528.2800, -36.969
1528.3000, -36.932
1528.3200, -36.886
1528.3400, -36.846
1528.3600, -36.836
1528.3800, -36.800
1528.4000, -36.736
1528.4200, -36.731
1528.4400, -36.702
1528.4600, -36.649
1528.4800, -36.592
1528.5000, -36.586
1528.5200, -36.532
1528.5400, -36.503
1528.5600, -36.479
1528.5800, -36.448
1528.6000, -36.408
1528.6200, -36.409
1528.6400, -36.345
1528.6600, -36.340
1528.6800, -36.291
1528.7000, -36.226
1528.7200, -36.204
1528.7400, -36.157
1528.7600, -36.122
1528.7800, -36.092
1528.8000, -36.046
1528.8200, -36.022
1528.8400, -35.958
1528.8600, -35.924
1528.8800, -35.920
1528.9000, -35.883
1528.9200, -35.834
1528.9400, -35.794
1528.9600, -35.788
1528.9800, -35.733
1529.0000, -35.732
1529.0200, -35.694
1529.0400, -35.647
1529.0600, -35.620
1529.0800, -35.575
1529.1000, -35.554
1529.1200, -35.558
1529.1400, -35.513
1529.1600, -35.478
1529.1800, -35.435
1529.2000, -35.422
1529.2200, -35.386
1529.2400, -35.333
1529.2600, -35.285
1529.2800, -35.275
1529.3000, -35.244
1529.3200, -35.165
1529.3400, -35.149
1529.3600, -35.131
1529.3800, -35.061
1529.4000, -35.003
1529.4200, -34.997
1529.4400, -34.946
1529.4600, -34.896
1529.4800, -34.865
1529.5000, -34.843
1529.5200, -34.809
1529.5400, -34.822
1529.5600, -34.758
1529.5800, -34.758
1529.6000, -34.708
1529.6200, -34.638
1529.6400, -34.579
1529.6600, -34.562
1529.6800, -34.506
1529.7000, -34.504
1529.7200, -34.468
1529.7400, -34.444
1529.7600, -34.406
1529.7800, -34.351
1529.8000, -34.337
1529.8200, -34.281
1529.8400, -34.273
1529.8600, -34.205
1529.8800, -34.179
1529.9000, -34.163
1529.9200, -34.182
1529.9400, -34.127
1529.9600, -34.075
1529.9800, -34.034
1530.0000, -34.002
1530.0200, -33.953
1530.0400, -33.972
1530.0600, -33.918
1530.0800, -33.892
1530.1000, -33.855
1530.1200, -33.849
1530.1400, -33.822
1530.1600, -33.773
1530.1800, -33.705
1530.2000, -33.699
1530.2200, -33.690
1530.2400, -33.629
1530.2600, -33.627
1530.2800, -33.626
1530.3000, -33.588
1530.3200, -33.498
1530.3400, -33.491
1530.3600, -33.425
1530.3800, -33.389
1530.4000, -33.341
1530.4200, -33.289
1530.4400, -33.281
1530.4600, -33.236
1530.4800, -33.193
1530.5000, -33.178
1530.5200, -33.177
1530.5400, -33.086
1530.5600, -33.015
1530.5800, -32.969
1530.6000, -32.929
1530.6200, -32.908
1530.6400, -32.912
1530.6600, -32.891
1530.6800, -32.831
1530.7000, -32.776
1530.7200, -32.796
1530.7400, -32.817
1530.7600, -32.806
1530.7800, -32.722
1530.8000, -32.700
1530.8200, -32.689
1530.8400, -32.692
1530.8600, -32.667
1530.8800, -32.647
1530.9000, -32.613
1530.9200, -32.595
1530.9400, -32.556
1530.9600, -32.567
1530.9800, -32.573
1531.0000, -32.584
1531.0200, -32.537
1531.0400, -32.556
1531.0600, -32.561
1531.0800, -32.501
1531.1000, -32.421
1531.1200, -32.405
1531.1400, -32.403
1531.1600, -32.340
1531.1800, -32.322
1531.2000, -32.317
1531.2200, -32.261
1531.2400, -32.177
1531.2600, -32.126
1531.2800, -32.104
1531.3000, -32.051
1531.3200, -31.978
1531.3400, -31.965
1531.3600, -31.987
1531.3800, -31.946
1531.4000, -31.952
1531.4200, -31.921
1531.4400, -31.920
1531.4600, -31.880
1531.4800, -31.840
1531.5000, -31.815
1531.5200, -31.820
1531.5400, -31.796
1531.5600, -31.749
1531.5800, -31.775
1531.6000, -31.702
1531.6200, -31.667
1531.6400, -31.677
1531.6600, -31.749
1531.6800, -31.662
1531.7000, -31.647
1531.7200, -31.655
1531.7400, -31.606
1531.7600, -31.645
1531.7800, -31.637
1531.8000, -31.623
1531.8200, -31.585
1531.8400, -31.570
1531.8600, -31.548
1531.8800, -31.574
1531.9000, -31.585
1531.9200, -31.590
1531.9400, -31.564
1531.9600, -31.600
1531.9800, -31.628
1532.0000, -31.634
1532.0200, -31.594
1532.0400, -31.651
1532.0600, -31.711
1532.0800, -31.676
1532.1000, -31.704
1532.1200, -31.753
1532.1400, -31.757
1532.1600, -31.738
1532.1800, -31.722
1532.2000, -31.705
1532.2200, -31.720
1532.2400, -31.699
1532.2600, -31.703
1532.2800, -31.745
1532.3000, -31.734
1532.3200, -31.752
1532.3400, -31.742
1532.3600, -31.768
1532.3800, -31.759
1532.4000, -31.761
1532.4200, -31.762
1532.4400, -31.752
1532.4600, -31.684
1532.4800, -31.710
1532.5000, -31.780
1532.5200, -31.739
1532.5400, -31.717
1532.5600, -31.802
1532.5800, -31.876
1532.6000, -31.848
1532.6200, -31.828
1532.6400, -31.871
1532.6600, -31.876
1532.6800, -31.910
1532.7000, -31.927
1532.7200, -31.911
1532.7400, -31.899
1532.7600, -31.874
1532.7800, -31.874
1532.8000, -31.971
1532.8200, -31.994
1532.8400, -32.047
1532.8600, -32.042
1532.8800, -32.114
1532.9000, -32.260
1532.9200, -32.204
1532.9400, -32.178
1532.9600, -32.224
1532.9800, -32.288
1533.0000, -32.272
1533.0200, -32.290
1533.0400, -32.347
1533.0600, -32.346
1533.0800, -32.354
1533.1000, -32.363
1533.1200, -32.384
1533.1400, -32.417
1533.1600, -32.387
1533.1800, -32.440
1533.2000, -32.514
1533.2200, -32.503
1533.2400, -32.547
1533.2600, -32.570
1533.2800, -32.606
1533.3000, -32.604
1533.3200, -32.615
1533.3400, -32.664
1533.3600, -32.652
1533.3800, -32.648
1533.4000, -32.732
1533.4200, -32.793
1533.4400, -32.834
1533.4600, -32.837
1533.4800, -32.892
1533.5000, -32.977
1533.5200, -33.012
1533.5400, -33.028
1533.5600, -33.065
1533.5800, -33.156
1533.6000, -33.231
1533.6200, -33.333
1533.6400, -33.366
1533.6600, -33.410
1533.6800, -33.448
1533.7000, -33.486
1533.7200, -33.556
1533.7400, -33.665
1533.7600, -33.703
1533.7800, -33.754
1533.8000, -33.809
1533.8200, -33.906
1533.8400, -33.944
1533.8600, -33.950
1533.8800, -34.018
1533.9000, -34.117
1533.9200, -34.135
1533.9400, -34.205
1533.9600, -34.250
1533.9800, -34.278
1534.0000, -34.296
1534.0200, -34.343
1534.0400, -34.402
1534.0600, -34.411
1534.0800, -34.439
1534.1000, -34.551
1534.1200, -34.573
1534.1400, -34.609
1534.1600, -34.656
1534.1800, -34.748
1534.2000, -34.788
1534.2200, -34.793
1534.2400, -34.868
1534.2600, -34.905
1534.2800, -34.911
1534.3000, -34.996
1534.3200, -35.088
1534.3400, -35.110
1534.3600, -35.144
1534.3800, -35.184
1534.4000, -35.224
1534.4200, -35.287
1534.4400, -35.358
1534.4600, -35.402
1534.4800, -35.462
1534.5000, -35.526
1534.5200, -35.565
1534.5400, -35.645
1534.5600, -35.679
1534.5800, -35.724
1534.6000, -35.753
1534.6200, -35.802
1534.6400, -35.872
1534.6600, -35.938
1534.6800, -35.975
1534.7000, -36.022
1534.7200, -36.058
1534.7400, -36.127
1534.7600, -36.171
1534.7800, -36.209
1534.8000, -36.278
1534.8200, -36.367
1534.8400, -36.380
1534.8600, -36.441
1534.8800, -36.492
1534.9000, -36.530
1534.9200, -36.553
1534.9400, -36.614
1534.9600, -36.656
1534.9800, -36.677
1535.0000, -36.730
1535.0200, -36.818
1535.0400, -36.841
1535.0600, -36.872
1535.0800, -36.927
1535.1000, -36.972
1535.1200, -37.026
1535.1400, -37.050
1535.1600, -37.104
1535.1800, -37.152
1535.2000, -37.198
1535.2200, -37.241
1535.2400, -37.288
1535.2600, -37.329
1535.2800, -37.353
1535.3000, -37.402
1535.3200, -37.445
1535.3400, -37.504
1535.3600, -37.570
1535.3800, -37.595
1535.4000, -37.646
1535.4200, -37.699
1535.4400, -37.741
1535.4600, -37.797
1535.4800, -37.839
1535.5000, -37.893
1535.5200, -37.923
1535.5400, -37.993
1535.5600, -38.038
1535.5800, -38.088
1535.6000, -38.145
1535.6200, -38.167
1535.6400, -38.220
1535.6600, -38.286
1535.6800, -38.313
1535.7000, -38.343
1535.7200, -38.398
1535.7400, -38.466
1535.7600, -38.503
1535.7800, -38.532
1535.8000, -38.591
1535.8200, -38.624
1535.8400, -38.665
1535.8600, -38.714
1535.8800, -38.754
1535.9000, -38.783
1535.9200, -38.834
1535.9400, -38.878
1535.9600, -38.902
1535.9800, -38.931
1536.0000, -38.987
1536.0200, -39.012
1536.0400, -39.061
1536.0600, -39.090
1536.0800, -39.136
1536.1000, -39.180
1536.1200, -39.196
1536.1400, -39.242
1536.1600, -39.282
1536.1800, -39.317
1536.2000, -39.344
1536.2200, -39.372
1536.2400, -39.403
1536.2600, -39.468
1536.2800, -39.513
1536.3000, -39.538
1536.3200, -39.567
1536.3400, -39.615
1536.3600, -39.649
1536.3800, -39.679
1536.4000, -39.713
1536.4200, -39.763
1536.4400, -39.793
1536.4600, -39.829
1536.4800, -39.876
1536.5000, -39.904
1536.5200, -39.954
1536.5400, -39.961
1536.5600, -40.011
1536.5800, -40.061
1536.6000, -40.070
1536.6200, -40.080
1536.6400, -40.126
1536.6600, -40.173
1536.6800, -40.183
1536.7000, -40.201
1536.7200, -40.249
1536.7400, -40.273
1536.7600, -40.308
1536.7800, -40.338
1536.8000, -40.358
1536.8200, -40.378
1536.8400, -40.408
1536.8600, -40.436
1536.8800, -40.458
1536.9000, -40.496
1536.9200, -40.529
1536.9400, -40.548
1536.9600, -40.581
1536.9800, -40.598
1537.0000, -40.630
1537.0200, -40.657
1537.0400, -40.676
1537.0600, -40.702
1537.0800, -40.735
1537.1000, -40.755
1537.1200, -40.761
1537.1400, -40.781
1537.1600, -40.801
1537.1800, -40.857
1537.2000, -40.889
1537.2200, -40.913
1537.2400, -40.916
1537.2600, -40.955
1537.2800, -40.979
1537.3000, -40.995
1537.3200, -41.015
1537.3400, -41.049
1537.3600, -41.071
1537.3800, -41.108
1537.4000, -41.139
1537.4200, -41.155
1537.4400, -41.191
1537.4600, -41.191
1537.4800, -41.225
1537.5000, -41.257
1537.5200, -41.258
1537.5400, -41.279
1537.5600, -41.317
1537.5800, -41.339
1537.6000, -41.346
1537.6200, -41.376
1537.6400, -41.395
1537.6600, -41.407
1537.6800, -41.430
1537.7000, -41.456
1537.7200, -41.455
1537.7400, -41.471
1537.7600, -41.483
1537.7800, -41.502
1537.8000, -41.510
1537.8200, -41.541
1537.8400, -41.558
1537.8600, -41.583
1537.8800, -41.594
1537.9000, -41.614
1537.9200, -41.633
1537.9400, -41.643
1537.9600, -41.652
1537.9800, -41.663
1538.0000, -41.678
1538.0200, -41.696
1538.0400, -41.693
1538.0600, -41.705
1538.0800, -41.732
1538.1000, -41.756
1538.1200, -41.768
1538.1400, -41.796
1538.1600, -41.804
1538.1800, -41.818
1538.2000, -41.842
1538.2200, -41.849
1538.2400, -41.858
1538.2600, -41.870
1538.2800, -41.888
1538.3000, -41.905
1538.3200, -41.929
1538.3400, -41.939
1538.3600, -41.946
1538.3800, -41.954
1538.4000, -41.977
1538.4200, -41.987
1538.4400, -41.994
1538.4600, -42.005
1538.4800, -42.028
1538.5000, -42.034
1538.5200, -42.046
1538.5400, -42.057
1538.5600, -42.073
1538.5800, -42.072
1538.6000, -42.079
1538.6200, -42.087
1538.6400, -42.101
1538.6600, -42.104
1538.6800, -42.119
1538.7000, -42.113
1538.7200, -42.119
1538.7400, -42.143
1538.7600, -42.146
1538.7800, -42.164
1538.8000, -42.162
1538.8200, -42.159
1538.8400, -42.172
1538.8600, -42.175
1538.8800, -42.176
1538.9000, -42.189
1538.9200, -42.178
1538.9400, -42.197
1538.9600, -42.195
1538.9800, -42.204
1539.0000, -42.217
1539.0200, -42.217
1539.0400, -42.232
1539.0600, -42.239
1539.0800, -42.248
1539.1000, -42.253
1539.1200, -42.270
1539.1400, -42.269
1539.1600, -42.271
1539.1800, -42.278
1539.2000, -42.278
1539.2200, -42.298
1539.2400, -42.307
1539.2600, -42.318
1539.2800, -42.309
1539.3000, -42.323
1539.3200, -42.334
1539.3400, -42.335
1539.3600, -42.328
1539.3800, -42.336
1539.4000, -42.352
1539.4200, -42.356
1539.4400, -42.351
1539.4600, -42.358
1539.4800, -42.362
1539.5000, -42.351
1539.5200, -42.360
1539.5400, -42.368
1539.5600, -42.362
1539.5800, -42.357
1539.6000, -42.367
1539.6200, -42.373
1539.6400, -42.375
1539.6600, -42.388
1539.6800, -42.385
1539.7000, -42.389
1539.7200, -42.381
1539.7400, -42.378
1539.7600, -42.384
1539.7800, -42.372
1539.8000, -42.380
1539.8200, -42.382
1539.8400, -42.385
1539.8600, -42.369
1539.8800, -42.365
1539.9000, -42.382
1539.9200, -42.389
1539.9400, -42.388
1539.9600, -42.393
1539.9800, -42.402
1540.0000, -42.399
1540.0200, -42.410
1540.0400, -42.409
1540.0600, -42.405
1540.0800, -42.408
1540.1000, -42.409
1540.1200, -42.414
1540.1400, -42.432
1540.1600, -42.432
1540.1800, -42.431
1540.2000, -42.420
1540.2200, -42.426
1540.2400, -42.428
1540.2600, -42.420
1540.2800, -42.419
1540.3000, -42.418
1540.3200, -42.436
1540.3400, -42.410
1540.3600, -42.412
1540.3800, -42.423
1540.4000, -42.414
1540.4200, -42.400
1540.4400, -42.407
1540.4600, -42.411
1540.4800, -42.397
1540.5000, -42.393
1540.5200, -42.381
1540.5400, -42.387
1540.5600, -42.397
1540.5800, -42.382
1540.6000, -42.393
1540.6200, -42.393
1540.6400, -42.378
1540.6600, -42.389
1540.6800, -42.376
1540.7000, -42.359
1540.7200, -42.365
1540.7400, -42.354
1540.7600, -42.357
1540.7800, -42.349
1540.8000, -42.349
1540.8200, -42.349
1540.8400, -42.340
1540.8600, -42.346
1540.8800, -42.338
1540.9000, -42.358
1540.9200, -42.352
1540.9400, -42.354
1540.9600, -42.352
1540.9800, -42.340
1541.0000, -42.337
1541.0200, -42.343
1541.0400, -42.352
1541.0600, -42.352
1541.0800, -42.353
1541.1000, -42.338
1541.1200, -42.337
1541.1400, -42.323
1541.1600, -42.334
1541.1800, -42.328
1541.2000, -42.327
1541.2200, -42.329
1541.2400, -42.344
1541.2600, -42.327
1541.2800, -42.326
1541.3000, -42.324
1541.3200, -42.318
1541.3400, -42.316
1541.3600, -42.312
1541.3800, -42.293
1541.4000, -42.284
1541.4200, -42.280
1541.4400, -42.283
1541.4600, -42.271
1541.4800, -42.292
1541.5000, -42.276
1541.5200, -42.277
1541.5400, -42.270
1541.5600, -42.264
1541.5800, -42.252
1541.6000, -42.239
1541.6200, -42.232
1541.6400, -42.232
1541.6600, -42.231
1541.6800, -42.232
1541.7000, -42.212
1541.7200, -42.221
1541.7400, -42.216
1541.7600, -42.207
1541.7800, -42.203
1541.8000, -42.209
1541.8200, -42.200
1541.8400, -42.214
1541.8600, -42.210
1541.8800, -42.199
1541.9000, -42.197
1541.9200, -42.196
1541.9400, -42.198
1541.9600, -42.199
1541.9800, -42.199
1542.0000, -42.190
1542.0200, -42.192
1542.0400, -42.186
1542.0600, -42.179
1542.0800, -42.186
1542.1000, -42.168
1542.1200, -42.160
1542.1400, -42.182
1542.1600, -42.161
1542.1800, -42.155
1542.2000, -42.162
1542.2200, -42.156
1542.2400, -42.147
1542.2600, -42.148
1542.2800, -42.141
1542.3000, -42.125
1542.3200, -42.118
1542.3400, -42.113
1542.3600, -42.104
1542.3800, -42.106
1542.4000, -42.094
1542.4200, -42.092
1542.4400, -42.095
1542.4600, -42.083
1542.4800, -42.086
1542.5000, -42.066
1542.5200, -42.063
1542.5400, -42.054
1542.5600, -42.050
1542.5800, -42.052
1542.6000, -42.038
1542.6200, -42.035
1542.6400, -42.038
1542.6600, -42.029
1542.6800, -42.030
1542.7000, -42.026
1542.7200, -42.016
1542.7400, -42.028
1542.7600, -42.015
1542.7800, -42.017
1542.8000, -42.011
1542.8200, -42.011
1542.8400, -42.008
1542.8600, -42.016
1542.8800, -42.003
1542.9000, -42.008
1542.9200, -41.990
1542.9400, -42.008
1542.9600, -42.004
1542.9800, -42.002
1543.0000, -41.979
1543.0200, -41.964
1543.0400, -41.976
1543.0600, -41.972
1543.0800, -41.953
1543.1000, -41.957
1543.1200, -41.960
1543.1400, -41.955
1543.1600, -41.953
1543.1800, -41.943
1543.2000, -41.920
1543.2200, -41.930
1543.2400, -41.920
1543.2600, -41.923
1543.2800, -41.919
1543.3000, -41.922
1543.3200, -41.906
1543.3400, -41.918
1543.3600, -41.914
1543.3800, -41.909
1543.4000, -41.901
1543.4200, -41.888
1543.4400, -41.888
1543.4600, -41.879
1543.4800, -41.879
1543.5000, -41.868
1543.5200, -41.863
1543.5400, -41.867
1543.5600, -41.861
1543.5800, -41.864
1543.6000, -41.857
1543.6200, -41.872
1543.6400, -41.870
1543.6600, -41.863
1543.6800, -41.862
1543.7000, -41.853
1543.7200, -41.850
1543.7400, -41.844
1543.7600, -41.853
1543.7800, -41.846
1543.8000, -41.855
1543.8200, -41.841
1543.8400, -41.854
1543.8600, -41.849
1543.8800, -41.849
1543.9000, -41.849
1543.9200, -41.834
1543.9400, -41.829
1543.9600, -41.844
1543.9800, -41.826
1544.0000, -41.823
1544.0200, -41.832
1544.0400, -41.830
1544.0600, -41.823
1544.0800, -41.821
1544.1000, -41.812
1544.1200, -41.804
1544.1400, -41.800
1544.1600, -41.796
1544.1800, -41.789
1544.2000, -41.803
1544.2200, -41.785
1544.2400, -41.795
1544.2600, -41.797
1544.2800, -41.788
1544.3000, -41.788
1544.3200, -41.768
1544.3400, -41.774
1544.3600, -41.768
1544.3800, -41.763
1544.4000, -41.762
1544.4200, -41.757
1544.4400, -41.758
1544.4600, -41.756
1544.4800, -41.755
1544.5000, -41.750
1544.5200, -41.749
1544.5400, -41.748
1544.5600, -41.757
1544.5800, -41.751
1544.6000, -41.746
1544.6200, -41.745
1544.6400, -41.742
1544.6600, -41.736
1544.6800, -41.754
1544.7000, -41.759
1544.7200, -41.754
1544.7400, -41.758
1544.7600, -41.756
1544.7800, -41.755
1544.8000, -41.761
1544.8200, -41.754
1544.8400, -41.741
1544.8600, -41.762
1544.8800, -41.745
1544.9000, -41.731
1544.9200, -41.745
1544.9400, -41.746
1544.9600, -41.739
1544.9800, -41.736
1545.0000, -41.731
1545.0200, -41.718
1545.0400, -41.728
1545.0600, -41.719
1545.0800, -41.720
1545.1000, -41.729
1545.1200, -41.717
1545.1400, -41.715
1545.1600, -41.724
1545.1800, -41.714
1545.2000, -41.707
1545.2200, -41.703
1545.2400, -41.706
1545.2600, -41.705
1545.2800, -41.703
1545.3000, -41.702
1545.3200, -41.704
1545.3400, -41.704
1545.3600, -41.702
1545.3800, -41.700
1545.4000, -41.701
1545.4200, -41.698
1545.4400, -41.697
1545.4600, -41.709
1545.4800, -41.699
1545.5000, -41.706
1545.5200, -41.700
1545.5400, -41.698
1545.5600, -41.706
1545.5800, -41.713
1545.6000, -41.709
1545.6200, -41.719
1545.6400, -41.718
1545.6600, -41.721
1545.6800, -41.717
1545.7000, -41.722
1545.7200, -41.721
1545.7400, -41.709
1545.7600, -41.730
1545.7800, -41.718
1545.8000, -41.702
1545.8200, -41.711
1545.8400, -41.716
1545.8600, -41.712
1545.8800, -41.705
1545.9000, -41.707
1545.9200, -41.694
1545.9400, -41.696
1545.9600, -41.690
1545.9800, -41.692
1546.0000, -41.696
1546.0200, -41.697
1546.0400, -41.688
1546.0600, -41.698
1546.0800, -41.692
1546.1000, -41.684
1546.1200, -41.678
1546.1400, -41.671
1546.1600, -41.678
1546.1800, -41.682
1546.2000, -41.680
1546.2200, -41.679
1546.2400, -41.676
1546.2600, -41.678
1546.2800, -41.679
1546.3000, -41.675
1546.3200, -41.675
1546.3400, -41.685
1546.3600, -41.689
1546.3800, -41.691
1546.4000, -41.695
1546.4200, -41.693
1546.4400, -41.688
1546.4600, -41.695
1546.4800, -41.706
1546.5000, -41.701
1546.5200, -41.704
1546.5400, -41.703
1546.5600, -41.703
1546.5800, -41.705
1546.6000, -41.706
1546.6200, -41.710
1546.6400, -41.707
1546.6600, -41.714
1546.6800, -41.716
1546.7000, -41.707
1546.7200, -41.708
1546.7400, -41.711
1546.7600, -41.707
1546.7800, -41.702
1546.8000, -41.699
1546.8200, -41.682
1546.8400, -41.689
1546.8600, -41.688
1546.8800, -41.692
1546.9000, -41.690
1546.9200, -41.695
1546.9400, -41.688
1546.9600, -41.695
1546.9800, -41.687
1547.0000, -41.691
1547.0200, -41.684
1547.0400, -41.674
1547.0600, -41.674
1547.0800, -41.682
1547.1000, -41.679
1547.1200, -41.677
1547.1400, -41.678
1547.1600, -41.684
1547.1800, -41.682
1547.2000, -41.677
1547.2200, -41.677
1547.2400, -41.679
1547.2600, -41.687
1547.2800, -41.691
1547.3000, -41.695
1547.3200, -41.693
1547.3400, -41.684
1547.3600, -41.691
1547.3800, -41.703
1547.4000, -41.705
1547.4200, -41.710
1547.4400, -41.710
1547.4600, -41.712
1547.4800, -41.715
1547.5000, -41.713
1547.5200, -41.711
1547.5400, -41.714
1547.5600, -41.715
1547.5800, -41.724
1547.6000, -41.715
1547.6200, -41.720
1547.6400, -41.724
1547.6600, -41.718
1547.6800, -41.723
1547.7000, -41.729
1547.7200, -41.710
1547.7400, -41.713
1547.7600, -41.715
1547.7800, -41.719
1547.8000, -41.716
1547.8200, -41.722
1547.8400, -41.717
1547.8600, -41.722
1547.8800, -41.709
1547.9000, -41.714
1547.9200, -41.712
1547.9400, -41.701
1547.9600, -41.708
1547.9800, -41.712
1548.0000, -41.713
1548.0200, -41.712
1548.0400, -41.710
1548.0600, -41.713
1548.0800, -41.715
1548.1000, -41.716
1548.1200, -41.710
1548.1400, -41.723
1548.1600, -41.723
1548.1800, -41.729
1548.2000, -41.734
1548.2200, -41.732
1548.2400, -41.729
1548.2600, -41.743
1548.2800, -41.748
1548.3000, -41.750
1548.3200, -41.757
1548.3400, -41.749
1548.3600, -41.753
1548.3800, -41.751
1548.4000, -41.753
1548.4200, -41.756
1548.4400, -41.755
1548.4600, -41.760
1548.4800, -41.763
1548.5000, -41.758
1548.5200, -41.758
1548.5400, -41.758
1548.5600, -41.747
1548.5800, -41.757
1548.6000, -41.757
1548.6200, -41.742
1548.6400, -41.746
1548.6600, -41.749
1548.6800, -41.746
1548.7000, -41.750
1548.7200, -41.759
1548.7400, -41.757
1548.7600, -41.765
1548.7800, -41.749
1548.8000, -41.761
1548.8200, -41.758
1548.8400, -41.749
1548.8600, -41.754
1548.8800, -41.757
1548.9000, -41.754
1548.9200, -41.754
1548.9400, -41.752
1548.9600, -41.753
1548.9800, -41.759
1549.0000, -41.761
1549.0200, -41.759
1549.0400, -41.751
1549.0600, -41.763
1549.0800, -41.774
1549.1000, -41.774
1549.1200, -41.769
1549.1400, -41.769
1549.1600, -41.770
1549.1800, -41.790
1549.2000, -41.792
1549.2200, -41.797
1549.2400, -41.789
1549.2600, -41.797
1549.2800, -41.799
1549.3000, -41.795
1549.3200, -41.788
1549.3400, -41.785
1549.3600, -41.797
1549.3800, -41.805
1549.4000, -41.799
1549.4200, -41.804
1549.4400, -41.811
1549.4600, -41.800
1549.4800, -41.813
1549.5000, -41.808
1549.5200, -41.802
1549.5400, -41.813
1549.5600, -41.807
1549.5800, -41.809
1549.6000, -41.808
1549.6200, -41.818
1549.6400, -41.813
1549.6600, -41.826
1549.6800, -41.817
1549.7000, -41.817
1549.7200, -41.813
1549.7400, -41.812
1549.7600, -41.814
1549.7800, -41.817
1549.8000, -41.822
1549.8200, -41.823
1549.8400, -41.825
1549.8600, -41.832
1549.8800, -41.830
1549.9000, -41.837
1549.9200, -41.830
1549.9400, -41.839
1549.9600, -41.848
1549.9800, -41.845
1550.0000, -41.855
1550.0200, -41.850
1550.0400, -41.850
1550.0600, -41.846
1550.0800, -41.865
1550.1000, -41.862
1550.1200, -41.873
1550.1400, -41.864
1550.1600, -41.865
1550.1800, -41.864
1550.2000, -41.869
1550.2200, -41.872
1550.2400, -41.864
1550.2600, -41.888
1550.2800, -41.886
1550.3000, -41.880
1550.3200, -41.888
1550.3400, -41.898
1550.3600, -41.887
1550.3800, -41.884
1550.4000, -41.884
1550.4200, -41.890
1550.4400, -41.883
1550.4600, -41.890
1550.4800, -41.885
1550.5000, -41.891
1550.5200, -41.891
1550.5400, -41.888
1550.5600, -41.900
1550.5800, -41.884
1550.6000, -41.874
1550.6200, -41.890
1550.6400, -41.898
1550.6600, -41.901
1550.6800, -41.901
1550.7000, -41.900
1550.7200, -41.902
1550.7400, -41.903
1550.7600, -41.909
1550.7800, -41.910
1550.8000, -41.915
1550.8200, -41.920
1550.8400, -41.916
1550.8600, -41.938
1550.8800, -41.941
1550.9000, -41.944
1550.9200, -41.940
1550.9400, -41.950
1550.9600, -41.951
1550.9800, -41.963
1551.0000, -41.964
1551.0200, -41.975
1551.0400, -41.970
1551.0600, -41.974
1551.0800, -41.977
1551.1000, -41.979
1551.1200, -41.980
1551.1400, -41.971
1551.1600, -42.011
1551.1800, -41.996
1551.2000, -41.991
1551.2200, -41.997
1551.2400, -42.004
1551.2600, -41.994
1551.2800, -41.994
1551.3000, -41.987
1551.3200, -41.989
1551.3400, -41.987
1551.3600, -41.988
1551.3800, -41.983
1551.4000, -42.005
1551.4200, -41.996
1551.4400, -41.992
1551.4600, -41.998
1551.4800, -41.986
1551.5000, -41.985
1551.5200, -41.986
1551.5400, -41.991
1551.5600, -41.983
1551.5800, -41.993
1551.6000, -41.987
1551.6200, -41.991
1551.6400, -41.991
1551.6600, -42.001
1551.6800, -42.005
1551.7000, -42.017
1551.7200, -42.012
1551.7400, -42.019
1551.7600, -42.032
1551.7800, -42.040
1551.8000, -42.028
1551.8200, -42.032
1551.8400, -42.039
1551.8600, -42.044
1551.8800, -42.051
1551.9000, -42.064
1551.9200, -42.050
1551.9400, -42.050
1551.9600, -42.061
1551.9800, -42.062
1552.0000, -42.054
1552.0200, -42.060
1552.0400, -42.056
1552.0600, -42.097
1552.0800, -42.079
1552.1000, -42.079
1552.1200, -42.085
1552.1400, -42.088
1552.1600, -42.083
1552.1800, -42.083
1552.2000, -42.086
1552.2200, -42.087
1552.2400, -42.077
1552.2600, -42.083
1552.2800, -42.080
1552.3000, -42.106
1552.3200, -42.097
1552.3400, -42.098
1552.3600, -42.099
1552.3800, -42.096
1552.4000, -42.091
1552.4200, -42.095
1552.4400, -42.098
1552.4600, -42.095
1552.4800, -42.102
1552.5000, -42.093
1552.5200, -42.094
1552.5400, -42.100
1552.5600, -42.114
1552.5800, -42.114
1552.6000, -42.121
1552.6200, -42.132
1552.6400, -42.137
1552.6600, -42.145
1552.6800, -42.154
1552.7000, -42.142
1552.7200, -42.145
1552.7400, -42.147
1552.7600, -42.160
1552.7800, -42.167
1552.8000, -42.176
1552.8200, -42.162
1552.8400, -42.168
1552.8600, -42.179
1552.8800, -42.182
1552.9000, -42.171
1552.9200, -42.175
1552.9400, -42.175
1552.9600, -42.200
1552.9800, -42.187
1553.0000, -42.187
1553.0200, -42.189
1553.0400, -42.187
1553.0600, -42.185
1553.0800, -42.182
1553.1000, -42.176
1553.1200, -42.183
1553.1400, -42.185
1553.1600, -42.181
1553.1800, -42.185
1553.2000, -42.205
1553.2200, -42.200
1553.2400, -42.200
1553.2600, -42.200
1553.2800, -42.203
1553.3000, -42.195
1553.3200, -42.201
1553.3400, -42.198
1553.3600, -42.198
1553.3800, -42.196
1553.4000, -42.186
1553.4200, -42.184
1553.4400, -42.192
1553.4600, -42.198
1553.4800, -42.203
1553.5000, -42.203
1553.5200, -42.212
1553.5400, -42.216
1553.5600, -42.223
1553.5800, -42.222
1553.6000, -42.217
1553.6200, -42.219
1553.6400, -42.226
1553.6600, -42.239
1553.6800, -42.245
1553.7000, -42.247
1553.7200, -42.233
1553.7400, -42.241
1553.7600, -42.249
1553.7800, -42.248
1553.8000, -42.239
1553.8200, -42.245
1553.8400, -42.263
1553.8600, -42.264
1553.8800, -42.266
1553.9000, -42.269
1553.9200, -42.268
1553.9400, -42.263
1553.9600, -42.266
1553.9800, -42.268
1554.0000, -42.269
1554.0200, -42.271
1554.0400, -42.270
1554.0600, -42.270
1554.0800, -42.283
1554.1000, -42.293
1554.1200, -42.293
1554.1400, -42.299
1554.1600, -42.294
1554.1800, -42.295
1554.2000, -42.286
1554.2200, -42.293
1554.2400, -42.286
1554.2600, -42.289
1554.2800, -42.285
1554.3000, -42.278
1554.3200, -42.282
1554.3400, -42.295
1554.3600, -42.296
1554.3800, -42.296
1554.4000, -42.293
1554.4200, -42.303
1554.4400, -42.310
1554.4600, -42.309
1554.4800, -42.304
1554.5000, -42.310
1554.5200, -42.309
1554.5400, -42.321
1554.5600, -42.332
1554.5800, -42.337
1554.6000, -42.330
1554.6200, -42.336
1554.6400, -42.350
1554.6600, -42.352
1554.6800, -42.344
1554.7000, -42.341
1554.7200, -42.342
1554.7400, -42.360
1554.7600, -42.351
1554.7800, -42.352
1554.8000, -42.357
1554.8200, -42.353
1554.8400, -42.350
1554.8600, -42.360
1554.8800, -42.354
1554.9000, -42.353
1554.9200, -42.342
1554.9400, -42.345
1554.9600, -42.342
1554.9800, -42.356
1555.0000, -42.347
1555.0200, -42.360
1555.0400, -42.355
1555.0600, -42.349
1555.0800, -42.360
1555.1000, -42.342
1555.1200, -42.350
1555.1400, -42.344
1555.1600, -42.356
1555.1800, -42.354
1555.2000, -42.354
1555.2200, -42.361
1555.2400, -42.362
1555.2600, -42.370
1555.2800, -42.369
1555.3000, -42.369
1555.3200, -42.381
1555.3400, -42.382
1555.3600, -42.382
1555.3800, -42.381
1555.4000, -42.381
1555.4200, -42.383
1555.4400, -42.402
1555.4600, -42.403
1555.4800, -42.409
1555.5000, -42.404
1555.5200, -42.418
1555.5400, -42.415
1555.5600, -42.424
1555.5800, -42.419
1555.6000, -42.418
1555.6200, -42.430
1555.6400, -42.432
1555.6600, -42.428
1555.6800, -42.434
1555.7000, -42.438
1555.7200, -42.431
1555.7400, -42.438
1555.7600, -42.435
1555.7800, -42.436
1555.8000, -42.435
1555.8200, -42.436
1555.8400, -42.434
1555.8600, -42.442
1555.8800, -42.449
1555.9000, -42.447
1555.9200, -42.458
1555.9400, -42.455
1555.9600, -42.447
1555.9800, -42.447
1556.0000, -42.457
1556.0200, -42.458
1556.0400, -42.468
1556.0600, -42.459
1556.0800, -42.457
1556.1000, -42.458
1556.1200, -42.478
1556.1400, -42.476
1556.1600, -42.473
1556.1800, -42.470
1556.2000, -42.484
1556.2200, -42.491
1556.2400, -42.490
1556.2600, -42.488
1556.2800, -42.492
1556.3000, -42.497
1556.3200, -42.503
1556.3400, -42.512
1556.3600, -42.513
1556.3800, -42.509
1556.4000, -42.510
1556.4200, -42.522
1556.4400, -42.526
1556.4600, -42.522
1556.4800, -42.515
1556.5000, -42.522
1556.5200, -42.535
1556.5400, -42.534
1556.5600, -42.529
1556.5800, -42.542
1556.6000, -42.540
1556.6200, -42.535
1556.6400, -42.532
1556.6600, -42.534
1556.6800, -42.539
1556.7000, -42.539
1556.7200, -42.556
1556.7400, -42.546
1556.7600, -42.557
1556.7800, -42.552
1556.8000, -42.565
1556.8200, -42.567
1556.8400, -42.565
1556.8600, -42.563
1556.8800, -42.561
1556.9000, -42.557
1556.9200, -42.565
1556.9400, -42.578
1556.9600, -42.561
1556.9800, -42.559
1557.0000, -42.579
1557.0200, -42.581
1557.0400, -42.576
1557.0600, -42.576
1557.0800, -42.579
1557.1000, -42.598
1557.1200, -42.599
1557.1400, -42.601
1557.1600, -42.607
1557.1800, -42.605
1557.2000, -42.613
1557.2200, -42.630
1557.2400, -42.632
1557.2600, -42.637
1557.2800, -42.637
1557.3000, -42.663
1557.3200, -42.670
1557.3400, -42.668
1557.3600, -42.653
1557.3800, -42.661
1557.4000, -42.678
1557.4200, -42.682
1557.4400, -42.680
1557.4600, -42.687
1557.4800, -42.687
1557.5000, -42.690
1557.5200, -42.695
1557.5400, -42.696
1557.5600, -42.694
1557.5800, -42.692
1557.6000, -42.703
1557.6200, -42.699
1557.6400, -42.713
1557.6600, -42.717
1557.6800, -42.723
1557.7000, -42.730
1557.7200, -42.731
1557.7400, -42.728
1557.7600, -42.728
1557.7800, -42.734
1557.8000, -42.737
1557.8200, -42.743
1557.8400, -42.740
1557.8600, -42.738
1557.8800, -42.746
1557.9000, -42.752
1557.9200, -42.754
1557.9400, -42.760
1557.9600, -42.762
1557.9800, -42.776
1558.0000, -42.784
1558.0200, -42.796
1558.0400, -42.793
1558.0600, -42.804
1558.0800, -42.809
1558.1000, -42.825
1558.1200, -42.830
1558.1400, -42.839
1558.1600, -42.831
1558.1800, -42.842
1558.2000, -42.844
1558.2200, -42.848
1558.2400, -42.847
1558.2600, -42.852
1558.2800, -42.866
1558.3000, -42.872
1558.3200, -42.873
1558.3400, -42.879
1558.3600, -42.883
1558.3800, -42.884
1558.4000, -42.887
1558.4200, -42.892
1558.4400, -42.897
1558.4600, -42.896
1558.4800, -42.897
1558.5000, -42.899
1558.5200, -42.913
1558.5400, -42.919
1558.5600, -42.924
1558.5800, -42.930
1558.6000, -42.926
1558.6200, -42.932
1558.6400, -42.929
1558.6600, -42.935
1558.6800, -42.942
1558.7000, -42.943
1558.7200, -42.949
1558.7400, -42.942
1558.7600, -42.953
1558.7800, -42.965
1558.8000, -42.973
1558.8200, -42.987
1558.8400, -42.989
1558.8600, -43.000
1558.8800, -43.014
1558.9000, -43.019
1558.9200, -43.020
1558.9400, -43.028
1558.9600, -43.036
1558.9800, -43.046
1559.0000, -43.066
1559.0200, -43.074
1559.0400, -43.077
1559.0600, -43.077
1559.0800, -43.083
1559.1000, -43.089
1559.1200, -43.104
1559.1400, -43.104
1559.1600, -43.125
1559.1800, -43.140
1559.2000, -43.140
1559.2200, -43.148
1559.2400, -43.161
1559.2600, -43.158
1559.2800, -43.163
1559.3000, -43.177
1559.3200, -43.184
1559.3400, -43.182
1559.3600, -43.186
1559.3800, -43.189
1559.4000, -43.198
1559.4200, -43.214
1559.4400, -43.213
1559.4600, -43.230
1559.4800, -43.229
1559.5000, -43.241
1559.5200, -43.247
1559.5400, -43.246
1559.5600, -43.265
1559.5800, -43.266
1559.6000, -43.265
1559.6200, -43.275
1559.6400, -43.281
1559.6600, -43.293
1559.6800, -43.303
1559.7000, -43.315
1559.7200, -43.317
1559.7400, -43.326
1559.7600, -43.346
1559.7800, -43.357
1559.8000, -43.362
1559.8200, -43.372
1559.8400, -43.376
1559.8600, -43.382
1559.8800, -43.404
1559.9000, -43.415
1559.9200, -43.415
1559.9400, -43.425
1559.9600, -43.442
1559.9800, -43.453
1560.0000, -43.457
1560.0200, -43.466
1560.0400, -43.467
1560.0600, -43.500
1560.0800, -43.505
1560.1000, -43.504
1560.1200, -43.517
1560.1400, -43.524
1560.1600, -43.518
1560.1800, -43.536
1560.2000, -43.538
1560.2200, -43.553
1560.2400, -43.560
1560.2600, -43.571
1560.2800, -43.573
1560.3000, -43.608
1560.3200, -43.604
1560.3400, -43.610
1560.3600, -43.617
1560.3800, -43.617
1560.4000, -43.627
1560.4200, -43.636
1560.4400, -43.641
1560.4600, -43.649
1560.4800, -43.665
1560.5000, -43.672
1560.5200, -43.684
1560.5400, -43.701
1560.5600, -43.702
1560.5800, -43.717
1560.6000, -43.724
1560.6200, -43.743
1560.6400, -43.757
1560.6600, -43.774
1560.6800, -43.785
1560.7000, -43.792
1560.7200, -43.798
1560.7400, -43.812
1560.7600, -43.832
1560.7800, -43.844
1560.8000, -43.850
1560.8200, -43.861
1560.8400, -43.882
1560.8600, -43.896
1560.8800, -43.906
1560.9000, -43.911
1560.9200, -43.912
1560.9400, -43.935
1560.9600, -43.947
1560.9800, -43.952
1561.0000, -43.963
1561.0200, -43.974
1561.0400, -43.971
1561.0600, -43.991
1561.0800, -43.999
1561.1000, -44.009
1561.1200, -44.022
1561.1400, -44.037
1561.1600, -44.043
1561.1800, -44.065
1561.2000, -44.075
1561.2200, -44.083
1561.2400, -44.103
1561.2600, -44.101
1561.2800, -44.117
1561.3000, -44.128
1561.3200, -44.139
1561.3400, -44.150
1561.3600, -44.178
1561.3800, -44.179
1561.4000, -44.189
1561.4200, -44.206
1561.4400, -44.230
1561.4600, -44.231
1561.4800, -44.240
1561.5000, -44.260
1561.5200, -44.278
1561.5400, -44.296
1561.5600, -44.308
1561.5800, -44.318
1561.6000, -44.330
1561.6200, -44.346
1561.6400, -44.370
1561.6600, -44.385
1561.6800, -44.399
1561.7000, -44.406
1561.7200, -44.426
1561.7400, -44.445
1561.7600, -44.455
1561.7800, -44.461
1561.8000, -44.473
1561.8200, -44.494
1561.8400, -44.505
1561.8600, -44.518
1561.8800, -44.532
1561.9000, -44.551
1561.9200, -44.550
1561.9400, -44.561
1561.9600, -44.566
1561.9800, -44.575
1562.0000, -44.592
1562.0200, -44.606
1562.0400, -44.617
1562.0600, -44.640
1562.0800, -44.657
1562.1000, -44.673
1562.1200, -44.691
1562.1400, -44.693
1562.1600, -44.712
1562.1800, -44.720
1562.2000, -44.736
1562.2200, -44.750
1562.2400, -44.772
1562.2600, -44.778
1562.2800, -44.797
1562.3000, -44.811
1562.3200, -44.828
1562.3400, -44.848
1562.3600, -44.861
1562.3800, -44.875
1562.4000, -44.894
1562.4200, -44.912
1562.4400, -44.923
1562.4600, -44.935
1562.4800, -44.949
1562.5000, -44.963
1562.5200, -44.990
1562.5400, -45.006
1562.5600, -45.019
1562.5800, -45.027
1562.6000, -45.058
1562.6200, -45.075
1562.6400, -45.086
1562.6600, -45.085
1562.6800, -45.102
1562.7000, -45.128
1562.7200, -45.139
1562.7400, -45.155
1562.7600, -45.172
1562.7800, -45.188
1562.8000, -45.193
1562.8200, -45.210
1562.8400, -45.220
1562.8600, -45.232
1562.8800, -45.252
1562.9000, -45.266
1562.9200, -45.280
1562.9400, -45.306
1562.9600, -45.318
1562.9800, -45.333
1563.0000, -45.355
1563.0200, -45.363
1563.0400, -45.377
1563.0600, -45.387
1563.0800, -45.407
1563.1000, -45.421
1563.1200, -45.437
1563.1400, -45.454
1563.1600, -45.467
1563.1800, -45.486
1563.2000, -45.503
1563.2200, -45.523
1563.2400, -45.534
1563.2600, -45.556
1563.2800, -45.577
1563.3000, -45.592
1563.3200, -45.608
1563.3400, -45.622
1563.3600, -45.635
1563.3800, -45.652
1563.4000, -45.687
1563.4200, -45.705
1563.4400, -45.718
1563.4600, -45.733
1563.4800, -45.753
1563.5000, -45.769
1563.5200, -45.784
1563.5400, -45.799
1563.5600, -45.810
1563.5800, -45.848
1563.6000, -45.855
1563.6200, -45.871
1563.6400, -45.888
1563.6600, -45.913
1563.6800, -45.921
1563.7000, -45.935
1563.7200, -45.951
1563.7400, -45.963
1563.7600, -45.981
1563.7800, -46.003
1563.8000, -46.013
1563.8200, -46.039
1563.8400, -46.054
1563.8600, -46.076
1563.8800, -46.100
1563.9000, -46.105
1563.9200, -46.112
1563.9400, -46.131
1563.9600, -46.156
1563.9800, -46.172
1564.0000, -46.193
1564.0200, -46.207
1564.0400, -46.225
1564.0600, -46.238
1564.0800, -46.254
1564.1000, -46.272
1564.1200, -46.296
1564.1400, -46.306
1564.1600, -46.325
1564.1800, -46.348
1564.2000, -46.364
1564.2200, -46.379
1564.2400, -46.392
1564.2600, -46.419
1564.2800, -46.443
1564.3000, -46.460
1564.3200, -46.481
1564.3400, -46.490
1564.3600, -46.523
1564.3800, -46.543
1564.4000, -46.558
1564.4200, -46.566
1564.4400, -46.578
1564.4600, -46.617
1564.4800, -46.623
1564.5000, -46.645
1564.5200, -46.667
1564.5400, -46.683
1564.5600, -46.701
1564.5800, -46.706
1564.6000, -46.723
1564.6200, -46.739
1564.6400, -46.755
1564.6600, -46.782
1564.6800, -46.794
1564.7000, -46.825
1564.7200, -46.835
1564.7400, -46.859
1564.7600, -46.872
1564.7800, -46.877
1564.8000, -46.899
1564.8200, -46.915
1564.8400, -46.934
1564.8600, -46.958
1564.8800, -46.978
1564.9000, -46.996
1564.9200, -47.014
1564.9400, -47.032
1564.9600, -47.055
1564.9800, -47.070
1565.0000, -47.085
1565.0200, -47.109
1565.0400, -47.135
1565.0600, -47.149
1565.0800, -47.172
1565.1000, -47.188
1565.1200, -47.203
1565.1400, -47.228
1565.1600, -47.258
1565.1800, -47.273
1565.2000, -47.286
1565.2200, -47.309
1565.2400, -47.327
1565.2600, -47.354
1565.2800, -47.367
1565.3000, -47.385
1565.3200, -47.399
1565.3400, -47.432
1565.3600, -47.439
1565.3800, -47.465
1565.4000, -47.489
1565.4200, -47.500
1565.4400, -47.519
1565.4600, -47.532
1565.4800, -47.557
1565.5000, -47.573
1565.5200, -47.588
1565.5400, -47.609
1565.5600, -47.627
1565.5800, -47.649
1565.6000, -47.670
1565.6200, -47.695
1565.6400, -47.703
1565.6600, -47.718
1565.6800, -47.735
1565.7000, -47.753
1565.7200, -47.777
1565.7400, -47.794
1565.7600, -47.813
1565.7800, -47.829
1565.8000, -47.847
1565.8200, -47.868
1565.8400, -47.880
1565.8600, -47.905
1565.8800, -47.925
1565.9000, -47.941
1565.9200, -47.969
1565.9400, -47.986
1565.9600, -48.004
1565.9800, -48.019
1566.0000, -48.036
1566.0200, -48.061
1566.0400, -48.091
1566.0600, -48.106
1566.0800, -48.126
1566.1000, -48.144
1566.1200, -48.167
1566.1400, -48.186
1566.1600, -48.203
1566.1800, -48.215
1566.2000, -48.240
1566.2200, -48.264
1566.2400, -48.276
1566.2600, -48.301
1566.2800, -48.319
1566.3000, -48.334
1566.3200, -48.348
1566.3400, -48.358
1566.3600, -48.384
1566.3800, -48.405
1566.4000, -48.419
1566.4200, -48.442
1566.4400, -48.463
1566.4600, -48.480
1566.4800, -48.501
1566.5000, -48.523
1566.5200, -48.536
1566.5400, -48.555
1566.5600, -48.572
1566.5800, -48.590
1566.6000, -48.609
1566.6200, -48.627
1566.6400, -48.650
1566.6600, -48.665
1566.6800, -48.684
1566.7000, -48.703
1566.7200, -48.720
1566.7400, -48.741
1566.7600, -48.757
1566.7800, -48.781
1566.8000, -48.811
1566.8200, -48.828
1566.8400, -48.849
1566.8600, -48.858
1566.8800, -48.879
1566.9000, -48.901
1566.9200, -48.929
1566.9400, -48.947
1566.9600, -48.966
1566.9800, -48.986
1567.0000, -49.010
1567.0200, -49.026
1567.0400, -49.043
1567.0600, -49.072
1567.0800, -49.083
1567.1000, -49.098
1567.1200, -49.123
1567.1400, -49.144
1567.1600, -49.157
1567.1800, -49.170
1567.2000, -49.192
1567.2200, -49.205
1567.2400, -49.229
1567.2600, -49.248
1567.2800, -49.265
1567.3000, -49.285
1567.3200, -49.305
1567.3400, -49.324
1567.3600, -49.349
1567.3800, -49.367
1567.4000, -49.377
1567.4200, -49.388
1567.4400, -49.414
1567.4600, -49.431
1567.4800, -49.448
1567.5000, -49.470
1567.5200, -49.490
1567.5400, -49.511
1567.5600, -49.535
1567.5800, -49.547
1567.6000, -49.565
1567.6200, -49.583
1567.6400, -49.610
1567.6600, -49.630
1567.6800, -49.660
1567.7000, -49.677
1567.7200, -49.695
1567.7400, -49.708
1567.7600, -49.730
1567.7800, -49.757
1567.8000, -49.773
1567.8200, -49.797
1567.8400, -49.811
1567.8600, -49.832
1567.8800, -49.854
1567.9000, -49.873
1567.9200, -49.887
1567.9400, -49.914
1567.9600, -49.929
1567.9800, -49.939
1568.0000, -49.960
1568.0200, -49.983
1568.0400, -50.003
1568.0600, -50.015
1568.0800, -50.034
1568.1000, -50.049
1568.1200, -50.064
1568.1400, -50.086
1568.1600, -50.108
1568.1800, -50.127
1568.2000, -50.147
1568.2200, -50.164
1568.2400, -50.189
1568.2600, -50.202
1568.2800, -50.221
1568.3000, -50.235
1568.3200, -50.252
1568.3400, -50.278
1568.3600, -50.298
1568.3800, -50.313
1568.4000, -50.332
1568.4200, -50.351
1568.4400, -50.371
1568.4600, -50.388
1568.4800, -50.408
1568.5000, -50.424
1568.5200, -50.447
1568.5400, -50.472
1568.5600, -50.487
1568.5800, -50.509
1568.6000, -50.524
1568.6200, -50.545
1568.6400, -50.569
1568.6600, -50.596
1568.6800, -50.611
1568.7000, -50.628
1568.7200, -50.647
1568.7400, -50.667
1568.7600, -50.687
1568.7800, -50.705
1568.8000, -50.723
1568.8200, -50.742
1568.8400, -50.759
1568.8600, -50.775
1568.8800, -50.796
1568.9000, -50.817
1568.9200, -50.827
1568.9400, -50.850
1568.9600, -50.866
1568.9800, -50.875
1569.0000, -50.897
1569.0200, -50.921
1569.0400, -50.936
1569.0600, -50.963
1569.0800, -50.974
1569.1000, -51.002
1569.1200, -51.019
1569.1400, -51.028
1569.1600, -51.049
1569.1800, -51.065
1569.2000, -51.081
1569.2200, -51.106
1569.2400, -51.122
1569.2600, -51.137
1569.2800, -51.155
1569.3000, -51.174
1569.3200, -51.192
1569.3400, -51.215
1569.3600, -51.231
1569.3800, -51.244
1569.4000, -51.269
1569.4200, -51.297
1569.4400, -51.308
1569.4600, -51.324
1569.4800, -51.342
1569.5000, -51.363
1569.5200, -51.386
1569.5400, -51.402
1569.5600, -51.429
1569.5800, -51.443
1569.6000, -51.459
1569.6200, -51.477
1569.6400, -51.497
1569.6600, -51.517
1569.6800, -51.535
1569.7000, -51.559
1569.7200, -51.572
1569.7400, -51.586
1569.7600, -51.614
1569.7800, -51.628
1569.8000, -51.638
1569.8200, -51.661
1569.8400, -51.674
1569.8600, -51.695
1569.8800, -51.706
1569.9000, -51.722
1569.9200, -51.745
1569.9400, -51.765
1569.9600, -51.784
1569.9800, -51.802
1570.0000, -51.812
1570.0200, -51.825
1570.0400, -51.847
1570.0600, -51.864
1570.0800, -51.886
1570.1000, -51.895
1570.1200, -51.921
1570.1400, -51.936
1570.1600, -51.954
1570.1800, -51.977
1570.2000, -51.988
1570.2200, -52.015
1570.2400, -52.035
1570.2600, -52.049
1570.2800, -52.072
1570.3000, -52.090
1570.3200, -52.105
1570.3400, -52.120
1570.3600, -52.144
1570.3800, -52.159
1570.4000, -52.186
1570.4200, -52.202
1570.4400, -52.216
1570.4600, -52.238
1570.4800, -52.264
1570.5000, -52.273
1570.5200, -52.283
1570.5400, -52.301
1570.5600, -52.327
1570.5800, -52.348
1570.6000, -52.361
1570.6200, -52.376
1570.6400, -52.399
1570.6600, -52.405
1570.6800, -52.428
1570.7000, -52.446
1570.7200, -52.467
1570.7400, -52.486
1570.7600, -52.501
1570.7800, -52.517
1570.8000, -52.536
1570.8200, -52.555
1570.8400, -52.571
1570.8600, -52.588
1570.8800, -52.601
1570.9000, -52.618
1570.9200, -52.640
1570.9400, -52.654
1570.9600, -52.671
1570.9800, -52.690
1571.0000, -52.695
1571.0200, -52.712
1571.0400, -52.733
1571.0600, -52.759
1571.0800, -52.780
1571.1000, -52.789
1571.1200, -52.812
1571.1400, -52.825
1571.1600, -52.850
1571.1800, -52.858
1571.2000, -52.875
1571.2200, -52.899
1571.2400, -52.914
1571.2600, -52.942
1571.2800, -52.961
1571.3000, -52.973
1571.3200, -52.986
1571.3400, -53.013
1571.3600, -53.029
1571.3800, -53.045
1571.4000, -53.053
1571.4200, -53.079
1571.4400, -53.097
1571.4600, -53.121
1571.4800, -53.130
1571.5000, -53.148
1571.5200, -53.170
1571.5400, -53.179
1571.5600, -53.201
1571.5800, -53.220
1571.6000, -53.232
1571.6200, -53.244
1571.6400, -53.259
1571.6600, -53.282
1571.6800, -53.291
1571.7000, -53.309
1571.7200, -53.334
1571.7400, -53.340
1571.7600, -53.360
1571.7800, -53.375
1571.8000, -53.394
1571.8200, -53.412
1571.8400, -53.429
1571.8600, -53.437
1571.8800, -53.453
1571.9000, -53.470
1571.9200, -53.488
1571.9400, -53.507
1571.9600, -53.524
1571.9800, -53.547
1572.0000, -53.557
1572.0200, -53.590
1572.0400, -53.599
1572.0600, -53.617
1572.0800, -53.624
1572.1000, -53.658
1572.1200, -53.669
1572.1400, -53.678
1572.1600, -53.704
1572.1800, -53.709
1572.2000, -53.736
1572.2200, -53.753
1572.2400, -53.773
1572.2600, -53.782
1572.2800, -53.796
1572.3000, -53.828
1572.3200, -53.827
1572.3400, -53.851
1572.3600, -53.867
1572.3800, -53.880
1572.4000, -53.891
1572.4200, -53.911
1572.4400, -53.926
1572.4600, -53.944
1572.4800, -53.958
1572.5000, -53.973
1572.5200, -53.983
1572.5400, -54.016
1572.5600, -54.019
1572.5800, -54.036
1572.6000, -54.049
1572.6200, -54.068
1572.6400, -54.085
1572.6600, -54.103
1572.6800, -54.113
1572.7000, -54.125
1572.7200, -54.135
1572.7400, -54.149
1572.7600, -54.161
1572.7800, -54.186
1572.8000, -54.200
1572.8200, -54.217
1572.8400, -54.239
1572.8600, -54.251
1572.8800, -54.270
1572.9000, -54.285
1572.9200, -54.304
1572.9400, -54.322
1572.9600, -54.332
1572.9800, -54.351
1573.0000, -54.367
1573.0200, -54.391
1573.0400, -54.398
1573.0600, -54.418
1573.0800, -54.434
1573.1000, -54.439
1573.1200, -54.453
1573.1400, -54.479
1573.1600, -54.494
1573.1800, -54.507
1573.2000, -54.524
1573.2200, -54.536
1573.2400, -54.557
1573.2600, -54.574
1573.2800, -54.578
1573.3000, -54.599
1573.3200, -54.607
1573.3400, -54.620
1573.3600, -54.640
1573.3800, -54.646
1573.4000, -54.680
1573.4200, -54.680
1573.4400, -54.706
1573.4600, -54.714
1573.4800, -54.718
1573.5000, -54.735
1573.5200, -54.766
1573.5400, -54.775
1573.5600, -54.772
1573.5800, -54.808
1573.6000, -54.806
1573.6200, -54.832
1573.6400, -54.848
1573.6600, -54.878
1573.6800, -54.870
1573.7000, -54.893
1573.7200, -54.909
1573.7400, -54.922
1573.7600, -54.940
1573.7800, -54.952
1573.8000, -54.968
1573.8200, -54.993
1573.8400, -54.991
1573.8600, -55.019
1573.8800, -55.022
1573.9000, -55.045
1573.9200, -55.065
1573.9400, -55.083
1573.9600, -55.080
1573.9800, -55.097
1574.0000, -55.109
1574.0200, -55.135
1574.0400, -55.145
1574.0600, -55.157
1574.0800, -55.173
1574.1000, -55.192
1574.1200, -55.202
1574.1400, -55.206
1574.1600, -55.232
1574.1800, -55.234
1574.2000, -55.261
1574.2200, -55.269
1574.2400, -55.281
1574.2600, -55.300
1574.2800, -55.323
1574.3000, -55.324
1574.3200, -55.346
1574.3400, -55.355
1574.3600, -55.360
1574.3800, -55.383
1574.4000, -55.395
1574.4200, -55.405
1574.4400, -55.425
1574.4600, -55.423
1574.4800, -55.435
1574.5000, -55.451
1574.5200, -55.485
1574.5400, -55.490
1574.5600, -55.506
1574.5800, -55.522
1574.6000, -55.530
1574.6200, -55.559
1574.6400, -55.556
1574.6600, -55.576
1574.6800, -55.589
1574.7000, -55.622
1574.7200, -55.624
1574.7400, -55.646
1574.7600, -55.644
1574.7800, -55.667
1574.8000, -55.682
1574.8200, -55.703
1574.8400, -55.705
1574.8600, -55.717
1574.8800, -55.739
1574.9000, -55.756
1574.9200, -55.765
1574.9400, -55.778
1574.9600, -55.798
1574.9800, -55.797
1575.0000, -55.826
1575.0200, -55.829
1575.0400, -55.831
1575.0600, -55.853
1575.0800, -55.875
1575.1000, -55.871
1575.1200, -55.894
1575.1400, -55.910
1575.1600, -55.920
1575.1800, -55.934
1575.2000, -55.950
1575.2200, -55.963
1575.2400, -55.971
1575.2600, -55.980
1575.2800, -55.997
1575.3000, -55.991
1575.3200, -56.026
1575.3400, -56.024
1575.3600, -56.037
1575.3800, -56.054
1575.4000, -56.085
1575.4200, -56.078
1575.4400, -56.110
1575.4600, -56.108
1575.4800, -56.134
1575.5000, -56.135
1575.5200, -56.160
1575.5400, -56.166
1575.5600, -56.186
1575.5800, -56.198
1575.6000, -56.205
1575.6200, -56.222
1575.6400, -56.226
1575.6600, -56.235
1575.6800, -56.259
1575.7000, -56.277
1575.7200, -56.278
1575.7400, -56.300
1575.7600, -56.314
1575.7800, -56.329
1575.8000, -56.319
1575.8200, -56.353
1575.8400, -56.358
1575.8600, -56.367
1575.8800, -56.389
1575.9000, -56.396
1575.9200, -56.416
1575.9400, -56.410
1575.9600, -56.434
1575.9800, -56.440
1576.0000, -56.463
1576.0200, -56.468
1576.0400, -56.485
1576.0600, -56.494
1576.0800, -56.507
1576.1000, -56.514
1576.1200, -56.537
1576.1400, -56.541
1576.1600, -56.556
1576.1800, -56.566
1576.2000, -56.570
1576.2200, -56.577
1576.2400, -56.584
1576.2600, -56.625
1576.2800, -56.628
1576.3000, -56.637
1576.3200, -56.637
1576.3400, -56.673
1576.3600, -56.671
1576.3800, -56.684
1576.4000, -56.707
1576.4200, -56.710
1576.4400, -56.726
1576.4600, -56.739
1576.4800, -56.755
1576.5000, -56.767
1576.5200, -56.765
1576.5400, -56.780
1576.5600, -56.796
1576.5800, -56.806
1576.6000, -56.821
1576.6200, -56.836
1576.6400, -56.835
1576.6600, -56.852
1576.6800, -56.857
1576.7000, -56.881
1576.7200, -56.886
1576.7400, -56.904
1576.7600, -56.911
1576.7800, -56.917
1576.8000, -56.924
1576.8200, -56.933
1576.8400, -56.948
1576.8600, -56.974
1576.8800, -56.982
1576.9000, -56.988
1576.9200, -56.992
1576.9400, -57.005
1576.9600, -57.022
1576.9800, -57.037
1577.0000, -57.040
1577.0200, -57.045
1577.0400, -57.049
1577.0600, -57.057
1577.0800, -57.068
1577.1000, -57.096
1577.1200, -57.101
1577.1400, -57.103
1577.1600, -57.118
1577.1800, -57.144
1577.2000, -57.137
1577.2200, -57.150
1577.2400, -57.162
1577.2600, -57.186
1577.2800, -57.183
1577.3000, -57.198
1577.3200, -57.203
1577.3400, -57.210
1577.3600, -57.229
1577.3800, -57.265
1577.4000, -57.252
1577.4200, -57.251
1577.4400, -57.278
1577.4600, -57.295
1577.4800, -57.297
1577.5000, -57.317
1577.5200, -57.332
1577.5400, -57.326
1577.5600, -57.357
1577.5800, -57.332
1577.6000, -57.375
1577.6200, -57.362
1577.6400, -57.378
1577.6600, -57.402
1577.6800, -57.405
1577.7000, -57.412
1577.7200, -57.425
1577.7400, -57.433
1577.7600, -57.438
1577.7800, -57.447
1577.8000, -57.469
1577.8200, -57.473
1577.8400, -57.504
1577.8600, -57.481
1577.8800, -57.504
1577.9000, -57.512
1577.9200, -57.524
1577.9400, -57.530
1577.9600, -57.551
1577.9800, -57.566
1578.0000, -57.571
1578.0200, -57.558
1578.0400, -57.603
1578.0600, -57.590
1578.0800, -57.615
1578.1000, -57.618
1578.1200, -57.629
1578.1400, -57.630
1578.1600, -57.651
1578.1800, -57.679
1578.2000, -57.685
1578.2200, -57.685
1578.2400, -57.689
1578.2600, -57.700
1578.2800, -57.723
1578.3000, -57.711
1578.3200, -57.733
1578.3400, -57.757
1578.3600, -57.757
1578.3800, -57.783
1578.4000, -57.763
1578.4200, -57.789
1578.4400, -57.786
1578.4600, -57.806
1578.4800, -57.802
1578.5000, -57.819
1578.5200, -57.836
1578.5400, -57.845
1578.5600, -57.840
1578.5800, -57.865
1578.6000, -57.880
1578.6200, -57.877
1578.6400, -57.866
1578.6600, -57.896
1578.6800, -57.896
1578.7000, -57.924
1578.7200, -57.914
1578.7400, -57.932
1578.7600, -57.926
1578.7800, -57.954
1578.8000, -57.968
1578.8200, -57.978
1578.8400, -57.973
1578.8600, -57.989
1578.8800, -58.007
1578.9000, -58.021
1578.9200, -58.034
1578.9400, -58.019
1578.9600, -58.027
1578.9800, -58.051
1579.0000, -58.058
1579.0200, -58.071
1579.0400, -58.093
1579.0600, -58.088
1579.0800, -58.091
1579.1000, -58.110
1579.1200, -58.113
1579.1400, -58.124
1579.1600, -58.128
1579.1800, -58.149
1579.2000, -58.151
1579.2200, -58.160
1579.2400, -58.176
1579.2600, -58.189
1579.2800, -58.192
1579.3000, -58.203
1579.3200, -58.199
1579.3400, -58.225
1579.3600, -58.234
1579.3800, -58.254
1579.4000, -58.238
1579.4200, -58.263
1579.4400, -58.254
1579.4600, -58.276
1579.4800, -58.283
1579.5000, -58.264
1579.5200, -58.300
1579.5400, -58.311
1579.5600, -58.305
1579.5800, -58.340
1579.6000, -58.318
1579.6200, -58.316
1579.6400, -58.338
1579.6600, -58.363
1579.6800, -58.358
1579.7000, -58.381
1579.7200, -58.400
1579.7400, -58.394
1579.7600, -58.408
1579.7800, -58.417
1579.8000, -58.422
1579.8200, -58.416
1579.8400, -58.432
1579.8600, -58.447
1579.8800, -58.461
1579.9000, -58.465
1579.9200, -58.479
1579.9400, -58.492
1579.9600, -58.500
1579.9800, -58.492
1580.0000, -58.516
1580.0200, -58.510
1580.0400, -58.511
1580.0600, -58.555
1580.0800, -58.537
1580.1000, -58.521
1580.1200, -58.550
1580.1400, -58.582
1580.1600, -58.552
1580.1800, -58.593
1580.2000, -58.595
1580.2200, -58.581
1580.2400, -58.598
1580.2600, -58.603
1580.2800, -58.623
1580.3000, -58.623
1580.3200, -58.656
1580.3400, -58.648
1580.3600, -58.650
1580.3800, -58.635
1580.4000, -58.672
1580.4200, -58.706
1580.4400, -58.663
1580.4600, -58.704
1580.4800, -58.678
1580.5000, -58.681
1580.5200, -58.707
1580.5400, -58.736
1580.5600, -58.735
1580.5800, -58.742
1580.6000, -58.786
1580.6200, -58.741
1580.6400, -58.761
1580.6600, -58.785
1580.6800, -58.762
1580.7000, -58.777
1580.7200, -58.829
1580.7400, -58.773
1580.7600, -58.860
1580.7800, -58.818
1580.8000, -58.838
1580.8200, -58.846
1580.8400, -58.812
1580.8600, -58.861
1580.8800, -58.842
1580.9000, -58.885
1580.9200, -58.885
1580.9400, -58.874
1580.9600, -58.884
1580.9800, -58.908
1581.0000, -58.897
1581.0200, -58.924
1581.0400, -58.923
1581.0600, -58.934
1581.0800, -58.960
1581.1000, -58.922
1581.1200, -58.974
1581.1400, -58.923
1581.1600, -58.992
1581.1800, -58.958
1581.2000, -58.980
1581.2200, -58.999
1581.2400, -58.962
1581.2600, -59.004
1581.2800, -59.016
1581.3000, -59.020
1581.3200, -59.020
1581.3400, -58.988
1581.3600, -59.036
1581.3800, -59.032
1581.4000, -59.047
1581.4200, -59.060
1581.4400, -59.067
1581.4600, -59.078
1581.4800, -59.107
1581.5000, -59.094
1581.5200, -59.102
1581.5400, -59.092
1581.5600, -59.110
1581.5800, -59.125
1581.6000, -59.123
1581.6200, -59.141
1581.6400, -59.149
1581.6600, -59.158
1581.6800, -59.160
1581.7000, -59.148
1581.7200, -59.161
1581.7400, -59.174
1581.7600, -59.210
1581.7800, -59.187
1581.8000, -59.189
1581.8200, -59.207
1581.8400, -59.215
1581.8600, -59.208
1581.8800, -59.238
1581.9000, -59.231
1581.9200, -59.230
1581.9400, -59.248
1581.9600, -59.254
1581.9800, -59.272
1582.0000, -59.259
1582.0200, -59.271
1582.0400, -59.303
1582.0600, -59.291
1582.0800, -59.293
1582.1000, -59.285
1582.1200, -59.324
1582.1400, -59.315
1582.1600, -59.310
1582.1800, -59.330
1582.2000, -59.348
1582.2200, -59.343
1582.2400, -59.334
1582.2600, -59.373
1582.2800, -59.356
1582.3000, -59.383
1582.3200, -59.402
1582.3400, -59.399
1582.3600, -59.377
1582.3800, -59.406
1582.4000, -59.400
1582.4200, -59.420
1582.4400, -59.433
1582.4600, -59.415
1582.4800, -59.448
1582.5000, -59.444
1582.5200, -59.433
1582.5400, -59.465
1582.5600, -59.465
1582.5800, -59.482
1582.6000, -59.474
1582.6200, -59.482
1582.6400, -59.487
1582.6600, -59.496
1582.6800, -59.499
1582.7000, -59.513
1582.7200, -59.512
1582.7400, -59.517
1582.7600, -59.537
1582.7800, -59.523
1582.8000, -59.550
1582.8200, -59.540
1582.8400, -59.548
1582.8600, -59.539
1582.8800, -59.592
1582.9000, -59.563
1582.9200, -59.575
1582.9400, -59.580
1582.9600, -59.586
1582.9800, -59.600
1583.0000, -59.588
1583.0200, -59.613
1583.0400, -59.628
1583.0600, -59.630
1583.0800, -59.599
1583.1000, -59.639
1583.1200, -59.641
1583.1400, -59.653
1583.1600, -59.639
1583.1800, -59.670
1583.2000, -59.675
1583.2200, -59.669
1583.2400, -59.695
1583.2600, -59.678
1583.2800, -59.691
1583.3000, -59.696
1583.3200, -59.715
1583.3400, -59.751
1583.3600, -59.709
1583.3800, -59.724
1583.4000, -59.739
1583.4200, -59.751
1583.4400, -59.756
1583.4600, -59.745
1583.4800, -59.789
1583.5000, -59.766
1583.5200, -59.756
1583.5400, -59.789
1583.5600, -59.789
1583.5800, -59.790
1583.6000, -59.794
1583.6200, -59.785
1583.6400, -59.831
1583.6600, -59.816
1583.6800, -59.798
1583.7000, -59.847
1583.7200, -59.826
1583.7400, -59.857
1583.7600, -59.816
1583.7800, -59.847
1583.8000, -59.842
1583.8200, -59.850
1583.8400, -59.872
1583.8600, -59.889
1583.8800, -59.875
1583.9000, -59.888
1583.9200, -59.874
1583.9400, -59.886
1583.9600, -59.897
1583.9800, -59.905
1584.0000, -59.941
1584.0200, -59.927
1584.0400, -59.938
1584.0600, -59.926
1584.0800, -59.954
1584.1000, -59.915
1584.1200, -59.935
1584.1400, -59.952
1584.1600, -59.980
1584.1800, -59.984
1584.2000, -59.979
1584.2200, -59.953
1584.2400, -60.014
1584.2600, -59.980
1584.2800, -59.981
1584.3000, -60.004
1584.3200, -59.998
1584.3400, -60.018
1584.3600, -60.039
1584.3800, -60.000
1584.4000, -60.036
1584.4200, -60.057
1584.4400, -60.062
1584.4600, -60.022
1584.4800, -60.057
1584.5000, -60.058
1584.5200, -60.077
1584.5400, -60.089
1584.5600, -60.093
1584.5800, -60.042
1584.6000, -60.130
1584.6200, -60.064
1584.6400, -60.085
1584.6600, -60.125
1584.6800, -60.075
1584.7000, -60.148
1584.7200, -60.116
1584.7400, -60.120
1584.7600, -60.127
1584.7800, -60.141
1584.8000, -60.110
1584.8200, -60.148
1584.8400, -60.130
1584.8600, -60.176
1584.8800, -60.166
1584.9000, -60.162
1584.9200, -60.164
1584.9400, -60.176
1584.9600, -60.182
1584.9800, -60.183
1585.0000, -60.200
1585.0200, -60.204
1585.0400, -60.198
1585.0600, -60.220
1585.0800, -60.222
1585.1000, -60.207
1585.1200, -60.237
1585.1400, -60.238
1585.1600, -60.250
1585.1800, -60.257
1585.2000, -60.252
1585.2200, -60.243
1585.2400, -60.246
1585.2600, -60.256
1585.2800, -60.291
1585.3000, -60.264
1585.3200, -60.274
1585.3400, -60.307
1585.3600, -60.265
1585.3800, -60.300
1585.4000, -60.302
1585.4200, -60.316
1585.4400, -60.294
1585.4600, -60.336
1585.4800, -60.286
1585.5000, -60.340
1585.5200, -60.306
1585.5400, -60.347
1585.5600, -60.324
1585.5800, -60.360
1585.6000, -60.371
1585.6200, -60.344
1585.6400, -60.340
1585.6600, -60.336
1585.6800, -60.393
1585.7000, -60.398
1585.7200, -60.344
1585.7400, -60.363
1585.7600, -60.358
1585.7800, -60.410
1585.8000, -60.419
1585.8200, -60.405
1585.8400, -60.413
1585.8600, -60.392
1585.8800, -60.413
1585.9000, -60.430
1585.9200, -60.422
1585.9400, -60.439
1585.9600, -60.442
1585.9800, -60.457
1586.0000, -60.471
1586.0200, -60.456
1586.0400, -60.445
1586.0600, -60.469
1586.0800, -60.481
1586.1000, -60.456
1586.1200, -60.501
1586.1400, -60.476
1586.1600, -60.508
1586.1800, -60.507
1586.2000, -60.460
1586.2200, -60.501
1586.2400, -60.515
1586.2600, -60.513
1586.2800, -60.521
1586.3000, -60.515
1586.3200, -60.531
1586.3400, -60.509
1586.3600, -60.562
1586.3800, -60.557
1586.4000, -60.569
1586.4200, -60.497
1586.4400, -60.575
1586.4600, -60.556
1586.4800, -60.592
1586.5000, -60.528
1586.5200, -60.569
1586.5400, -60.587
1586.5600, -60.592
1586.5800, -60.585
1586.6000, -60.598
1586.6200, -60.596
1586.6400, -60.613
1586.6600, -60.631
1586.6800, -60.607
1586.7000, -60.628
1586.7200, -60.636
1586.7400, -60.644
1586.7600, -60.648
1586.7800, -60.636
1586.8000, -60.652
1586.8200, -60.680
1586.8400, -60.680
1586.8600, -60.669
1586.8800, -60.640
1586.9000, -60.710
1586.9200, -60.675
1586.9400, -60.679
1586.9600, -60.710
1586.9800, -60.713
1587.0000, -60.681
1587.0200, -60.687
1587.0400, -60.703
1587.0600, -60.722
1587.0800, -60.682
1587.1000, -60.725
1587.1200, -60.767
1587.1400, -60.729
1587.1600, -60.747
1587.1800, -60.740
1587.2000, -60.752
1587.2200, -60.690
1587.2400, -60.805
1587.2600, -60.736
1587.2800, -60.742
1587.3000, -60.784
1587.3200, -60.731
1587.3400, -60.788
1587.3600, -60.732
1587.3800, -60.818
1587.4000, -60.756
1587.4200, -60.831
1587.4400, -60.789
1587.4600, -60.836
1587.4800, -60.810
1587.5000, -60.825
1587.5200, -60.833
1587.5400, -60.836
1587.5600, -60.833
1587.5800, -60.832
1587.6000, -60.828
1587.6200, -60.849
1587.6400, -60.887
1587.6600, -60.862
1587.6800, -60.843
1587.7000, -60.860
1587.7200, -60.902
1587.7400, -60.882
1587.7600, -60.872
1587.7800, -60.888
1587.8000, -60.891
1587.8200, -60.882
1587.8400, -60.904
1587.8600, -60.875
1587.8800, -60.923
1587.9000, -60.931
1587.9200, -60.935
1587.9400, -60.880
1587.9600, -60.961
1587.9800, -60.898
1588.0000, -60.971
1588.0200, -60.927
1588.0400, -60.944
1588.0600, -60.934
1588.0800, -60.984
1588.1000, -60.961
1588.1200, -60.977
1588.1400, -60.953
1588.1600, -60.966
1588.1800, -60.982
1588.2000, -60.951
1588.2200, -60.991
1588.2400, -60.982
1588.2600, -61.028
1588.2800, -61.040
1588.3000, -60.996
1588.3200, -61.002
1588.3400, -61.014
1588.3600, -61.013
1588.3800, -61.038
1588.4000, -61.024
1588.4200, -61.039
1588.4400, -61.029
1588.4600, -61.026
1588.4800, -61.041
1588.5000, -61.048
1588.5200, -61.069
1588.5400, -61.041
1588.5600, -61.062
1588.5800, -61.063
1588.6000, -61.081
1588.6200, -61.081
1588.6400, -61.106
1588.6600, -61.070
1588.6800, -61.096
1588.7000, -61.092
1588.7200, -61.094
1588.7400, -61.116
1588.7600, -61.099
1588.7800, -61.089
1588.8000, -61.131
1588.8200, -61.114
1588.8400, -61.127
1588.8600, -61.106
1588.8800, -61.161
1588.9000, -61.128
1588.9200, -61.141
1588.9400, -61.140
1588.9600, -61.163
1588.9800, -61.119
1589.0000, -61.172
1589.0200, -61.193
1589.0400, -61.166
1589.0600, -61.159
1589.0800, -61.150
1589.1000, -61.161
1589.1200, -61.179
1589.1400, -61.206
1589.1600, -61.208
1589.1800, -61.200
1589.2000, -61.205
1589.2200, -61.202
1589.2400, -61.176
1589.2600, -61.231
1589.2800, -61.228
1589.3000, -61.218
1589.3200, -61.210
1589.3400, -61.246
1589.3600, -61.238
1589.3800, -61.219
1589.4000, -61.241
1589.4200, -61.236
1589.4400, -61.268
1589.4600, -61.258
1589.4800, -61.285
1589.5000, -61.272
1589.5200, -61.231
1589.5400, -61.269
1589.5600, -61.294
1589.5800, -61.297
1589.6000, -61.299
1589.6200, -61.298
1589.6400, -61.321
1589.6600, -61.285
1589.6800, -61.283
1589.7000, -61.308
1589.7200, -61.286
1589.7400, -61.338
1589.7600, -61.314
1589.7800, -61.314
1589.8000, -61.365
1589.8200, -61.319
1589.8400, -61.329
1589.8600, -61.350
1589.8800, -61.310
1589.9000, -61.330
1589.9200, -61.332
1589.9400, -61.342
1589.9600, -61.360
1589.9800, -61.381
1590.0000, -61.359
1590.0200, -61.378
1590.0400, -61.420
1590.0600, -61.358
1590.0800, -61.363
1590.1000, -61.445
1590.1200, -61.377
1590.1400, -61.381
1590.1600, -61.410
1590.1800, -61.412
1590.2000, -61.405
1590.2200, -61.424
1590.2400, -61.431
1590.2600, -61.402
1590.2800, -61.440
1590.3000, -61.440
1590.3200, -61.438
1590.3400, -61.411
1590.3600, -61.422
1590.3800, -61.440
1590.4000, -61.465
1590.4200, -61.485
1590.4400, -61.481
1590.4600, -61.434
1590.4800, -61.524
1590.5000, -61.456
1590.5200, -61.499
1590.5400, -61.447
1590.5600, -61.481
1590.5800, -61.485
1590.6000, -61.481
1590.6200, -61.515
1590.6400, -61.482
1590.6600, -61.560
1590.6800, -61.511
1590.7000, -61.490
1590.7200, -61.527
1590.7400, -61.514
1590.7600, -61.556
1590.7800, -61.550
1590.8000, -61.516
1590.8200, -61.536
1590.8400, -61.605
1590.8600, -61.527
1590.8800, -61.562
1590.9000, -61.559
1590.9200, -61.571
1590.9400, -61.624
1590.9600, -61.608
1590.9800, -61.597
1591.0000, -61.583
1591.0200, -61.600
1591.0400, -61.644
1591.0600, -61.573
1591.0800, -61.622
1591.1000, -61.600
1591.1200, -61.589
1591.1400, -61.636
1591.1600, -61.620
1591.1800, -61.592
1591.2000, -61.628
1591.2200, -61.638
1591.2400, -61.650
1591.2600, -61.631
1591.2800, -61.639
1591.3000, -61.655
1591.3200, -61.614
1591.3400, -61.647
1591.3600, -61.670
1591.3800, -61.691
1591.4000, -61.681
1591.4200, -61.667
1591.4400, -61.726
1591.4600, -61.663
1591.4800, -61.683
1591.5000, -61.688
1591.5200, -61.700
1591.5400, -61.700
1591.5600, -61.743
1591.5800, -61.690
1591.6000, -61.732
1591.6200, -61.727
1591.6400, -61.723
1591.6600, -61.733
1591.6800, -61.763
1591.7000, -61.755
1591.7200, -61.742
1591.7400, -61.782
1591.7600, -61.729
1591.7800, -61.764
1591.8000, -61.768
1591.8200, -61.752
1591.8400, -61.751
1591.8600, -61.763
1591.8800, -61.755
1591.9000, -61.817
1591.9200, -61.752
1591.9400, -61.811
1591.9600, -61.805
1591.9800, -61.786
1592.0000, -61.844
1592.0200, -61.780
1592.0400, -61.783
1592.0600, -61.886
1592.0800, -61.794
1592.1000, -61.874
1592.1200, -61.795
1592.1400, -61.831
1592.1600, -61.823
1592.1800, -61.826
1592.2000, -61.839
1592.2200, -61.832
1592.2400, -61.876
1592.2600, -61.861
1592.2800, -61.873
1592.3000, -61.847
1592.3200, -61.883
1592.3400, -61.854
1592.3600, -61.896
1592.3800, -61.894
1592.4000, -61.844
1592.4200, -61.919
1592.4400, -61.919
1592.4600, -61.893
1592.4800, -61.922
1592.5000, -61.905
1592.5200, -61.913
1592.5400, -61.904
1592.5600, -61.929
1592.5800, -61.941
1592.6000, -61.906
1592.6200, -61.957
1592.6400, -61.934
1592.6600, -61.951
1592.6800, -61.923
1592.7000, -61.964
1592.7200, -61.947
1592.7400, -61.974
1592.7600, -61.927
1592.7800, -62.003
1592.8000, -61.987
1592.8200, -61.945
1592.8400, -62.005
1592.8600, -61.961
1592.8800, -62.004
1592.9000, -61.959
1592.9200, -61.973
1592.9400, -62.058
1592.9600, -61.990
1592.9800, -62.007
1593.0000, -62.029
1593.0200, -61.977
1593.0400, -61.998
1593.0600, -61.989
1593.0800, -62.062
1593.1000, -61.988
1593.1200, -62.034
1593.1400, -62.042
1593.1600, -62.038
1593.1800, -62.077
1593.2000, -62.031
1593.2200, -62.039
1593.2400, -62.028
1593.2600, -62.030
1593.2800, -62.031
1593.3000, -62.110
1593.3200, -62.087
1593.3400, -62.057
1593.3600, -62.051
1593.3800, -62.094
1593.4000, -62.077
1593.4200, -62.075
1593.4400, -62.121
1593.4600, -62.108
1593.4800, -62.086
1593.5000, -62.108
1593.5200, -62.084
1593.5400, -62.119
1593.5600, -62.102
1593.5800, -62.178
1593.6000, -62.085
1593.6200, -62.188
1593.6400, -62.141
1593.6600, -62.110
1593.6800, -62.147
1593.7000, -62.146
1593.7200, -62.120
1593.7400, -62.160
1593.7600, -62.128
1593.7800, -62.168
1593.8000, -62.178
1593.8200, -62.168
1593.8400, -62.131
1593.8600, -62.204
1593.8800, -62.184
1593.9000, -62.189
1593.9200, -62.222
1593.9400, -62.198
1593.9600, -62.158
1593.9800, -62.260
1594.0000, -62.149
1594.0200, -62.255
1594.0400, -62.201
1594.0600, -62.228
1594.0800, -62.190
1594.1000, -62.182
1594.1200, -62.296
1594.1400, -62.195
1594.1600, -62.261
1594.1800, -62.243
1594.2000, -62.245
1594.2200, -62.278
1594.2400, -62.238
1594.2600, -62.247
1594.2800, -62.229
1594.3000, -62.282
1594.3200, -62.230
1594.3400, -62.314
1594.3600, -62.286
1594.3800, -62.308
1594.4000, -62.300
1594.4200, -62.286
1594.4400, -62.344
1594.4600, -62.304
1594.4800, -62.326
1594.5000, -62.323
1594.5200, -62.324
1594.5400, -62.309
1594.5600, -62.361
1594.5800, -62.347
1594.6000, -62.352
1594.6200, -62.319
1594.6400, -62.370
1594.6600, -62.344
1594.6800, -62.367
1594.7000, -62.336
1594.7200, -62.374
1594.7400, -62.364
1594.7600, -62.347
1594.7800, -62.353
1594.8000, -62.373
1594.8200, -62.388
1594.8400, -62.433
1594.8600, -62.371
1594.8800, -62.389
1594.9000, -62.396
1594.9200, -62.418
1594.9400, -62.406
1594.9600, -62.363
1594.9800, -62.423
1595.0000, -62.396
1595.0200, -62.409
1595.0400, -62.382
1595.0600, -62.438
1595.0800, -62.433
1595.1000, -62.434
1595.1200, -62.489
1595.1400, -62.375
1595.1600, -62.464
1595.1800, -62.462
1595.2000, -62.509
1595.2200, -62.400
1595.2400, -62.453
1595.2600, -62.510
1595.2800, -62.470
1595.3000, -62.465
1595.3200, -62.477
1595.3400, -62.488
1595.3600, -62.498
1595.3800, -62.501
1595.4000, -62.464
1595.4200, -62.507
1595.4400, -62.499
1595.4600, -62.514
1595.4800, -62.510
1595.5000, -62.515
1595.5200, -62.480
1595.5400, -62.529
1595.5600, -62.556
1595.5800, -62.506
1595.6000, -62.588
1595.6200, -62.503
1595.6400, -62.607
1595.6600, -62.571
1595.6800, -62.521
1595.7000, -62.523
1595.7200, -62.577
1595.7400, -62.543
1595.7600, -62.605
1595.7800, -62.514
1595.8000, -62.612
1595.8200, -62.513
1595.8400, -62.638
1595.8600, -62.558
1595.8800, -62.642
1595.9000, -62.630
1595.9200, -62.599
1595.9400, -62.613
1595.9600, -62.621
1595.9800, -62.643
1596.0000, -62.646
1596.0200, -62.619
1596.0400, -62.651
1596.0600, -62.640
1596.0800, -62.624
1596.1000, -62.646
1596.1200, -62.668
1596.1400, -62.617
1596.1600, -62.658
1596.1800, -62.670
1596.2000, -62.671
1596.2200, -62.642
1596.2400, -62.643
1596.2600, -62.682
1596.2800, -62.697
1596.3000, -62.650
1596.3200, -62.709
1596.3400, -62.674
1596.3600, -62.688
1596.3800, -62.705
1596.4000, -62.671
1596.4200, -62.689
1596.4400, -62.709
1596.4600, -62.770
1596.4800, -62.747
1596.5000, -62.683
1596.5200, -62.715
1596.5400, -62.720
1596.5600, -62.720
1596.5800, -62.735
1596.6000, -62.731
1596.6200, -62.738
1596.6400, -62.755
1596.6600, -62.752
1596.6800, -62.750
1596.7000, -62.767
1596.7200, -62.745
1596.7400, -62.740
1596.7600, -62.821
1596.7800, -62.784
1596.8000, -62.797
1596.8200, -62.802
1596.8400, -62.769
1596.8600, -62.746
1596.8800, -62.832
1596.9000, -62.751
1596.9200, -62.810
1596.9400, -62.815
1596.9600, -62.739
1596.9800, -62.883
1597.0000, -62.842
1597.0200, -62.774
1597.0400, -62.804
1597.0600, -62.823
1597.0800, -62.841
1597.1000, -62.794
1597.1200, -62.802
1597.1400, -62.841
1597.1600, -62.877
1597.1800, -62.845
1597.2000, -62.845
1597.2200, -62.910
1597.2400, -62.872
1597.2600, -62.851
1597.2800, -62.855
1597.3000, -62.820
1597.3200, -62.841
1597.3400, -62.858
1597.3600, -62.921
1597.3800, -62.886
1597.4000, -62.926
1597.4200, -62.920
1597.4400, -62.897
1597.4600, -62.924
1597.4800, -62.869
1597.5000, -62.952
1597.5200, -62.905
1597.5400, -62.917
1597.5600, -62.913
1597.5800, -62.912
1597.6000, -62.944
1597.6200, -62.966
1597.6400, -62.935
1597.6600, -62.928
1597.6800, -62.990
1597.7000, -62.967
1597.7200, -62.972
1597.7400, -62.970
1597.7600, -62.965
1597.7800, -62.940
1597.8000, -63.016
1597.8200, -62.932
1597.8400, -62.976
1597.8600, -63.021
1597.8800, -62.953
1597.9000, -63.024
1597.9200, -62.984
1597.9400, -63.049
1597.9600, -62.992
1597.9800, -63.003
1598.0000, -63.045
1598.0200, -63.029
1598.0400, -63.015
1598.0600, -63.024
1598.0800, -62.993
1598.1000, -63.036
1598.1200, -63.043
1598.1400, -63.009
1598.1600, -63.061
1598.1800, -63.020
1598.2000, -63.063
1598.2200, -63.066
1598.2400, -63.054
1598.2600, -63.050
1598.2800, -63.100
1598.3000, -63.028
1598.3200, -63.086
1598.3400, -63.088
1598.3600, -63.073
1598.3800, -63.141
1598.4000, -63.115
1598.4200, -63.112
1598.4400, -63.120
1598.4600, -63.144
1598.4800, -63.107
1598.5000, -63.090
1598.5200, -63.080
1598.5400, -63.125
1598.5600, -63.161
1598.5800, -63.102
1598.6000, -63.210
1598.6200, -63.131
1598.6400, -63.186
1598.6600, -63.136
1598.6800, -63.121
1598.7000, -63.148
1598.7200, -63.149
1598.7400, -63.183
1598.7600, -63.197
1598.7800, -63.187
1598.8000, -63.211
1598.8200, -63.150
1598.8400, -63.220
1598.8600, -63.156
1598.8800, -63.217
1598.9000, -63.144
1598.9200, -63.238
1598.9400, -63.192
1598.9600, -63.207
1598.9800, -63.175
1599.0000, -63.248
1599.0200, -63.242
1599.0400, -63.203
1599.0600, -63.207
1599.0800, -63.248
1599.1000, -63.227
1599.1200, -63.249
1599.1400, -63.252
1599.1600, -63.248
1599.1800, -63.262
1599.2000, -63.293
1599.2200, -63.243
1599.2400, -63.235
1599.2600, -63.347
1599.2800, -63.257
1599.3000, -63.216
1599.3200, -63.310
1599.3400, -63.227
1599.3600, -63.350
1599.3800, -63.278
1599.4000, -63.264
1599.4200, -63.358
1599.4400, -63.270
1599.4600, -63.345
1599.4800, -63.373
1599.5000, -63.284
1599.5200, -63.322
1599.5400, -63.342
1599.5600, -63.344
1599.5800, -63.317
1599.6000, -63.390
1599.6200, -63.291
1599.6400, -63.394
1599.6600, -63.340
1599.6800, -63.351
1599.7000, -63.407
1599.7200, -63.352
1599.7400, -63.354
1599.7600, -63.370
1599.7800, -63.426
1599.8000, -63.416
1599.8200, -63.350
1599.8400, -63.429
1599.8600, -63.377
1599.8800, -63.439
1599.9000, -63.415
1599.9200, -63.379
1599.9400, -63.397
1599.9600, -63.422
1599.9800, -63.379
1600.0000, -63.443
