70BCSV 	
// AQ6370B OPTICAL SPECTRUM ANALYZER //                 
25
"CTRWL",1550.000000
"SPAN", 100.000000
"START WL",1500.000000
"STOP WL",1600.000000
"WLFREQ", 0
"REFL",-28.8
"LSCL", 5.0
"RESLN",0.100
"AVG",   1
"SMPLAUTO",      0
"SMPL",       5001
"SMPLINTVL",0.0200
"HIGH1"
"MEAS"
"LSUNT",0
"NMSKH","OFF"
"RESCOR",0
"RESPARM", 9050
"FREQPARM", 9050






"[TRACE DATA]"
1500.0000, -61.740
1500.0200, -61.713
1500.0400, -61.724
1500.0600, -61.741
1500.0800, -61.689
1500.1000, -61.758
1500.1200, -61.673
1500.1400, -61.698
1500.1600, -61.673
1500.1800, -61.680
1500.2000, -61.714
1500.2200, -61.646
1500.2400, -61.652
1500.2600, -61.659
1500.2800, -61.642
1500.3000, -61.627
1500.3200, -61.638
1500.3400, -61.653
1500.3600, -61.632
1500.3800, -61.621
1500.4000, -61.620
1500.4200, -61.611
1500.4400, -61.617
1500.4600, -61.617
1500.4800, -61.578
1500.5000, -61.599
1500.5200, -61.598
1500.5400, -61.591
1500.5600, -61.599
1500.5800, -61.578
1500.6000, -61.559
1500.6200, -61.536
1500.6400, -61.528
1500.6600, -61.545
1500.6800, -61.549
1500.7000, -61.526
1500.7200, -61.540
1500.7400, -61.530
1500.7600, -61.506
1500.7800, -61.515
1500.8000, -61.509
1500.8200, -61.514
1500.8400, -61.493
1500.8600, -61.488
1500.8800, -61.482
1500.9000, -61.474
1500.9200, -61.460
1500.9400, -61.456
1500.9600, -61.470
1500.9800, -61.459
1501.0000, -61.429
1501.0200, -61.455
1501.0400, -61.437
1501.0600, -61.434
1501.0800, -61.436
1501.1000, -61.426
1501.1200, -61.418
1501.1400, -61.403
1501.1600, -61.416
1501.1800, -61.391
1501.2000, -61.375
1501.2200, -61.422
1501.2400, -61.362
1501.2600, -61.350
1501.2800, -61.369
1501.3000, -61.355
1501.3200, -61.368
1501.3400, -61.375
1501.3600, -61.349
1501.3800, -61.336
1501.4000, -61.329
1501.4200, -61.326
1501.4400, -61.325
1501.4600, -61.303
1501.4800, -61.301
1501.5000, -61.283
1501.5200, -61.270
1501.5400, -61.286
1501.5600, -61.292
1501.5800, -61.289
1501.6000, -61.293
1501.6200, -61.274
1501.6400, -61.247
1501.6600, -61.314
1501.6800, -61.248
1501.7000, -61.268
1501.7200, -61.231
1501.7400, -61.256
1501.7600, -61.239
1501.7800, -61.221
1501.8000, -61.256
1501.8200, -61.163
1501.8400, -61.220
1501.8600, -61.227
1501.8800, -61.214
1501.9000, -61.225
1501.9200, -61.188
1501.9400, -61.197
1501.9600, -61.167
1501.9800, -61.185
1502.0000, -61.189
1502.0200, -61.156
1502.0400, -61.149
1502.0600, -61.189
1502.0800, -61.119
1502.1000, -61.102
1502.1200, -61.127
1502.1400, -61.096
1502.1600, -61.130
1502.1800, -61.115
1502.2000, -61.078
1502.2200, -61.088
1502.2400, -61.060
1502.2600, -61.094
1502.2800, -61.054
1502.3000, -61.068
1502.3200, -61.070
1502.3400, -61.043
1502.3600, -61.036
1502.3800, -61.064
1502.4000, -61.014
1502.4200, -61.025
1502.4400, -61.026
1502.4600, -61.010
1502.4800, -60.987
1502.5000, -61.029
1502.5200, -60.974
1502.5400, -60.980
1502.5600, -60.984
1502.5800, -60.966
1502.6000, -60.954
1502.6200, -60.987
1502.6400, -60.957
1502.6600, -60.946
1502.6800, -60.934
1502.7000, -60.945
1502.7200, -60.904
1502.7400, -60.929
1502.7600, -60.923
1502.7800, -60.916
1502.8000, -60.912
1502.8200, -60.902
1502.8400, -60.871
1502.8600, -60.874
1502.8800, -60.874
1502.9000, -60.893
1502.9200, -60.835
1502.9400, -60.882
1502.9600, -60.849
1502.9800, -60.872
1503.0000, -60.793
1503.0200, -60.843
1503.0400, -60.837
1503.0600, -60.822
1503.0800, -60.777
1503.1000, -60.827
1503.1200, -60.803
1503.1400, -60.768
1503.1600, -60.792
1503.1800, -60.748
1503.2000, -60.779
1503.2200, -60.810
1503.2400, -60.763
1503.2600, -60.741
1503.2800, -60.728
1503.3000, -60.755
1503.3200, -60.732
1503.3400, -60.704
1503.3600, -60.685
1503.3800, -60.713
1503.4000, -60.699
1503.4200, -60.673
1503.4400, -60.711
1503.4600, -60.658
1503.4800, -60.668
1503.5000, -60.652
1503.5200, -60.670
1503.5400, -60.681
1503.5600, -60.632
1503.5800, -60.626
1503.6000, -60.632
1503.6200, -60.602
1503.6400, -60.629
1503.6600, -60.620
1503.6800, -60.623
1503.7000, -60.580
1503.7200, -60.594
1503.7400, -60.601
1503.7600, -60.593
1503.7800, -60.552
1503.8000, -60.564
1503.8200, -60.562
1503.8400, -60.571
1503.8600, -60.549
1503.8800, -60.529
1503.9000, -60.561
1503.9200, -60.539
1503.9400, -60.527
1503.9600, -60.529
1503.9800, -60.513
1504.0000, -60.485
1504.0200, -60.481
1504.0400, -60.519
1504.0600, -60.481
1504.0800, -60.479
1504.1000, -60.463
1504.1200, -60.464
1504.1400, -60.447
1504.1600, -60.435
1504.1800, -60.416
1504.2000, -60.441
1504.2200, -60.448
1504.2400, -60.401
1504.2600, -60.392
1504.2800, -60.399
1504.3000, -60.406
1504.3200, -60.358
1504.3400, -60.360
1504.3600, -60.376
1504.3800, -60.380
1504.4000, -60.340
1504.4200, -60.340
1504.4400, -60.341
1504.4600, -60.334
1504.4800, -60.307
1504.5000, -60.322
1504.5200, -60.313
1504.5400, -60.288
1504.5600, -60.293
1504.5800, -60.281
1504.6000, -60.272
1504.6200, -60.263
1504.6400, -60.266
1504.6600, -60.247
1504.6800, -60.245
1504.7000, -60.233
1504.7200, -60.278
1504.7400, -60.235
1504.7600, -60.203
1504.7800, -60.211
1504.8000, -60.217
1504.8200, -60.218
1504.8400, -60.209
1504.8600, -60.206
1504.8800, -60.177
1504.9000, -60.168
1504.9200, -60.137
1504.9400, -60.143
1504.9600, -60.137
1504.9800, -60.152
1505.0000, -60.126
1505.0200, -60.122
1505.0400, -60.104
1505.0600, -60.108
1505.0800, -60.087
1505.1000, -60.085
1505.1200, -60.091
1505.1400, -60.072
1505.1600, -60.068
1505.1800, -60.065
1505.2000, -60.057
1505.2200, -60.073
1505.2400, -60.017
1505.2600, -60.042
1505.2800, -60.017
1505.3000, -59.991
1505.3200, -60.021
1505.3400, -59.979
1505.3600, -59.984
1505.3800, -60.002
1505.4000, -59.946
1505.4200, -59.976
1505.4400, -59.953
1505.4600, -59.961
1505.4800, -59.930
1505.5000, -59.946
1505.5200, -59.896
1505.5400, -59.928
1505.5600, -59.892
1505.5800, -59.909
1505.6000, -59.900
1505.6200, -59.890
1505.6400, -59.881
1505.6600, -59.879
1505.6800, -59.847
1505.7000, -59.874
1505.7200, -59.832
1505.7400, -59.861
1505.7600, -59.866
1505.7800, -59.843
1505.8000, -59.806
1505.8200, -59.797
1505.8400, -59.808
1505.8600, -59.819
1505.8800, -59.813
1505.9000, -59.761
1505.9200, -59.774
1505.9400, -59.783
1505.9600, -59.774
1505.9800, -59.748
1506.0000, -59.711
1506.0200, -59.738
1506.0400, -59.724
1506.0600, -59.707
1506.0800, -59.714
1506.1000, -59.705
1506.1200, -59.697
1506.1400, -59.683
1506.1600, -59.682
1506.1800, -59.689
1506.2000, -59.646
1506.2200, -59.637
1506.2400, -59.644
1506.2600, -59.637
1506.2800, -59.617
1506.3000, -59.626
1506.3200, -59.629
1506.3400, -59.601
1506.3600, -59.596
1506.3800, -59.590
1506.4000, -59.587
1506.4200, -59.567
1506.4400, -59.604
1506.4600, -59.548
1506.4800, -59.564
1506.5000, -59.509
1506.5200, -59.524
1506.5400, -59.521
1506.5600, -59.511
1506.5800, -59.515
1506.6000, -59.509
1506.6200, -59.498
1506.6400, -59.485
1506.6600, -59.479
1506.6800, -59.467
1506.7000, -59.455
1506.7200, -59.466
1506.7400, -59.468
1506.7600, -59.427
1506.7800, -59.431
1506.8000, -59.428
1506.8200, -59.422
1506.8400, -59.421
1506.8600, -59.402
1506.8800, -59.381
1506.9000, -59.384
1506.9200, -59.365
1506.9400, -59.363
1506.9600, -59.353
1506.9800, -59.351
1507.0000, -59.339
1507.0200, -59.338
1507.0400, -59.357
1507.0600, -59.300
1507.0800, -59.329
1507.1000, -59.279
1507.1200, -59.317
1507.1400, -59.263
1507.1600, -59.279
1507.1800, -59.273
1507.2000, -59.240
1507.2200, -59.253
1507.2400, -59.249
1507.2600, -59.255
1507.2800, -59.263
1507.3000, -59.235
1507.3200, -59.221
1507.3400, -59.198
1507.3600, -59.220
1507.3800, -59.161
1507.4000, -59.202
1507.4200, -59.165
1507.4400, -59.161
1507.4600, -59.171
1507.4800, -59.121
1507.5000, -59.159
1507.5200, -59.121
1507.5400, -59.117
1507.5600, -59.091
1507.5800, -59.129
1507.6000, -59.097
1507.6200, -59.071
1507.6400, -59.081
1507.6600, -59.061
1507.6800, -59.062
1507.7000, -59.056
1507.7200, -59.051
1507.7400, -59.034
1507.7600, -59.045
1507.7800, -59.028
1507.8000, -59.020
1507.8200, -59.009
1507.8400, -59.005
1507.8600, -59.000
1507.8800, -58.967
1507.9000, -58.964
1507.9200, -58.963
1507.9400, -58.950
1507.9600, -58.945
1507.9800, -58.943
1508.0000, -58.928
1508.0200, -58.938
1508.0400, -58.918
1508.0600, -58.932
1508.0800, -58.887
1508.1000, -58.885
1508.1200, -58.859
1508.1400, -58.858
1508.1600, -58.866
1508.1800, -58.862
1508.2000, -58.839
1508.2200, -58.823
1508.2400, -58.845
1508.2600, -58.838
1508.2800, -58.815
1508.3000, -58.794
1508.3200, -58.803
1508.3400, -58.796
1508.3600, -58.794
1508.3800, -58.792
1508.4000, -58.738
1508.4200, -58.773
1508.4400, -58.744
1508.4600, -58.742
1508.4800, -58.731
1508.5000, -58.726
1508.5200, -58.717
1508.5400, -58.707
1508.5600, -58.683
1508.5800, -58.692
1508.6000, -58.683
1508.6200, -58.687
1508.6400, -58.642
1508.6600, -58.657
1508.6800, -58.663
1508.7000, -58.639
1508.7200, -58.639
1508.7400, -58.636
1508.7600, -58.617
1508.7800, -58.591
1508.8000, -58.600
1508.8200, -58.593
1508.8400, -58.587
1508.8600, -58.567
1508.8800, -58.562
1508.9000, -58.532
1508.9200, -58.545
1508.9400, -58.519
1508.9600, -58.530
1508.9800, -58.504
1509.0000, -58.512
1509.0200, -58.487
1509.0400, -58.491
1509.0600, -58.484
1509.0800, -58.470
1509.1000, -58.465
1509.1200, -58.461
1509.1400, -58.463
1509.1600, -58.448
1509.1800, -58.404
1509.2000, -58.403
1509.2200, -58.402
1509.2400, -58.400
1509.2600, -58.407
1509.2800, -58.368
1509.3000, -58.378
1509.3200, -58.374
1509.3400, -58.346
1509.3600, -58.344
1509.3800, -58.338
1509.4000, -58.311
1509.4200, -58.316
1509.4400, -58.295
1509.4600, -58.287
1509.4800, -58.286
1509.5000, -58.283
1509.5200, -58.282
1509.5400, -58.266
1509.5600, -58.263
1509.5800, -58.244
1509.6000, -58.237
1509.6200, -58.238
1509.6400, -58.216
1509.6600, -58.208
1509.6800, -58.223
1509.7000, -58.179
1509.7200, -58.183
1509.7400, -58.177
1509.7600, -58.155
1509.7800, -58.143
1509.8000, -58.158
1509.8200, -58.137
1509.8400, -58.119
1509.8600, -58.115
1509.8800, -58.085
1509.9000, -58.101
1509.9200, -58.085
1509.9400, -58.079
1509.9600, -58.064
1509.9800, -58.071
1510.0000, -58.053
1510.0200, -58.049
1510.0400, -58.042
1510.0600, -57.992
1510.0800, -58.001
1510.1000, -58.002
1510.1200, -57.981
1510.1400, -57.996
1510.1600, -57.978
1510.1800, -57.965
1510.2000, -57.969
1510.2200, -57.953
1510.2400, -57.941
1510.2600, -57.916
1510.2800, -57.920
1510.3000, -57.907
1510.3200, -57.892
1510.3400, -57.887
1510.3600, -57.866
1510.3800, -57.848
1510.4000, -57.840
1510.4200, -57.838
1510.4400, -57.827
1510.4600, -57.822
1510.4800, -57.811
1510.5000, -57.790
1510.5200, -57.792
1510.5400, -57.759
1510.5600, -57.776
1510.5800, -57.755
1510.6000, -57.747
1510.6200, -57.734
1510.6400, -57.716
1510.6600, -57.717
1510.6800, -57.690
1510.7000, -57.686
1510.7200, -57.685
1510.7400, -57.672
1510.7600, -57.652
1510.7800, -57.652
1510.8000, -57.629
1510.8200, -57.626
1510.8400, -57.600
1510.8600, -57.605
1510.8800, -57.580
1510.9000, -57.569
1510.9200, -57.566
1510.9400, -57.571
1510.9600, -57.555
1510.9800, -57.527
1511.0000, -57.535
1511.0200, -57.498
1511.0400, -57.516
1511.0600, -57.491
1511.0800, -57.475
1511.1000, -57.469
1511.1200, -57.463
1511.1400, -57.454
1511.1600, -57.430
1511.1800, -57.418
1511.2000, -57.414
1511.2200, -57.415
1511.2400, -57.410
1511.2600, -57.383
1511.2800, -57.372
1511.3000, -57.365
1511.3200, -57.344
1511.3400, -57.323
1511.3600, -57.331
1511.3800, -57.309
1511.4000, -57.297
1511.4200, -57.285
1511.4400, -57.285
1511.4600, -57.262
1511.4800, -57.257
1511.5000, -57.245
1511.5200, -57.252
1511.5400, -57.221
1511.5600, -57.223
1511.5800, -57.180
1511.6000, -57.207
1511.6200, -57.180
1511.6400, -57.157
1511.6600, -57.171
1511.6800, -57.132
1511.7000, -57.139
1511.7200, -57.117
1511.7400, -57.101
1511.7600, -57.094
1511.7800, -57.091
1511.8000, -57.078
1511.8200, -57.063
1511.8400, -57.055
1511.8600, -57.039
1511.8800, -57.024
1511.9000, -57.013
1511.9200, -57.000
1511.9400, -56.997
1511.9600, -56.999
1511.9800, -56.967
1512.0000, -56.953
1512.0200, -56.935
1512.0400, -56.934
1512.0600, -56.925
1512.0800, -56.906
1512.1000, -56.897
1512.1200, -56.888
1512.1400, -56.893
1512.1600, -56.868
1512.1800, -56.860
1512.2000, -56.861
1512.2200, -56.824
1512.2400, -56.834
1512.2600, -56.808
1512.2800, -56.796
1512.3000, -56.804
1512.3200, -56.770
1512.3400, -56.759
1512.3600, -56.760
1512.3800, -56.730
1512.4000, -56.743
1512.4200, -56.722
1512.4400, -56.716
1512.4600, -56.701
1512.4800, -56.701
1512.5000, -56.677
1512.5200, -56.672
1512.5400, -56.659
1512.5600, -56.651
1512.5800, -56.635
1512.6000, -56.612
1512.6200, -56.613
1512.6400, -56.594
1512.6600, -56.585
1512.6800, -56.574
1512.7000, -56.544
1512.7200, -56.558
1512.7400, -56.519
1512.7600, -56.513
1512.7800, -56.515
1512.8000, -56.490
1512.8200, -56.489
1512.8400, -56.481
1512.8600, -56.464
1512.8800, -56.450
1512.9000, -56.437
1512.9200, -56.435
1512.9400, -56.427
1512.9600, -56.409
1512.9800, -56.379
1513.0000, -56.389
1513.0200, -56.364
1513.0400, -56.361
1513.0600, -56.341
1513.0800, -56.330
1513.1000, -56.331
1513.1200, -56.325
1513.1400, -56.301
1513.1600, -56.287
1513.1800, -56.281
1513.2000, -56.268
1513.2200, -56.251
1513.2400, -56.243
1513.2600, -56.229
1513.2800, -56.224
1513.3000, -56.195
1513.3200, -56.202
1513.3400, -56.180
1513.3600, -56.158
1513.3800, -56.170
1513.4000, -56.149
1513.4200, -56.136
1513.4400, -56.120
1513.4600, -56.100
1513.4800, -56.096
1513.5000, -56.093
1513.5200, -56.067
1513.5400, -56.058
1513.5600, -56.050
1513.5800, -56.025
1513.6000, -56.025
1513.6200, -55.995
1513.6400, -55.999
1513.6600, -55.992
1513.6800, -55.961
1513.7000, -55.953
1513.7200, -55.936
1513.7400, -55.931
1513.7600, -55.913
1513.7800, -55.914
1513.8000, -55.892
1513.8200, -55.884
1513.8400, -55.851
1513.8600, -55.852
1513.8800, -55.827
1513.9000, -55.819
1513.9200, -55.821
1513.9400, -55.794
1513.9600, -55.798
1513.9800, -55.773
1514.0000, -55.757
1514.0200, -55.746
1514.0400, -55.738
1514.0600, -55.733
1514.0800, -55.710
1514.1000, -55.703
1514.1200, -55.685
1514.1400, -55.681
1514.1600, -55.661
1514.1800, -55.651
1514.2000, -55.632
1514.2200, -55.626
1514.2400, -55.612
1514.2600, -55.597
1514.2800, -55.591
1514.3000, -55.565
1514.3200, -55.562
1514.3400, -55.541
1514.3600, -55.529
1514.3800, -55.520
1514.4000, -55.503
1514.4200, -55.497
1514.4400, -55.485
1514.4600, -55.469
1514.4800, -55.451
1514.5000, -55.438
1514.5200, -55.422
1514.5400, -55.408
1514.5600, -55.396
1514.5800, -55.388
1514.6000, -55.379
1514.6200, -55.351
1514.6400, -55.339
1514.6600, -55.338
1514.6800, -55.317
1514.7000, -55.299
1514.7200, -55.293
1514.7400, -55.286
1514.7600, -55.251
1514.7800, -55.241
1514.8000, -55.239
1514.8200, -55.216
1514.8400, -55.222
1514.8600, -55.202
1514.8800, -55.171
1514.9000, -55.166
1514.9200, -55.148
1514.9400, -55.136
1514.9600, -55.121
1514.9800, -55.115
1515.0000, -55.103
1515.0200, -55.082
1515.0400, -55.081
1515.0600, -55.051
1515.0800, -55.035
1515.1000, -55.014
1515.1200, -55.011
1515.1400, -54.999
1515.1600, -54.982
1515.1800, -54.967
1515.2000, -54.946
1515.2200, -54.941
1515.2400, -54.926
1515.2600, -54.904
1515.2800, -54.899
1515.3000, -54.885
1515.3200, -54.858
1515.3400, -54.852
1515.3600, -54.849
1515.3800, -54.827
1515.4000, -54.816
1515.4200, -54.795
1515.4400, -54.784
1515.4600, -54.766
1515.4800, -54.742
1515.5000, -54.740
1515.5200, -54.713
1515.5400, -54.704
1515.5600, -54.678
1515.5800, -54.666
1515.6000, -54.665
1515.6200, -54.651
1515.6400, -54.620
1515.6600, -54.624
1515.6800, -54.608
1515.7000, -54.589
1515.7200, -54.571
1515.7400, -54.555
1515.7600, -54.543
1515.7800, -54.538
1515.8000, -54.502
1515.8200, -54.491
1515.8400, -54.482
1515.8600, -54.477
1515.8800, -54.454
1515.9000, -54.441
1515.9200, -54.421
1515.9400, -54.410
1515.9600, -54.395
1515.9800, -54.373
1516.0000, -54.360
1516.0200, -54.346
1516.0400, -54.327
1516.0600, -54.313
1516.0800, -54.300
1516.1000, -54.279
1516.1200, -54.259
1516.1400, -54.244
1516.1600, -54.223
1516.1800, -54.212
1516.2000, -54.210
1516.2200, -54.178
1516.2400, -54.166
1516.2600, -54.148
1516.2800, -54.145
1516.3000, -54.129
1516.3200, -54.118
1516.3400, -54.101
1516.3600, -54.072
1516.3800, -54.061
1516.4000, -54.039
1516.4200, -54.017
1516.4400, -54.001
1516.4600, -53.987
1516.4800, -53.980
1516.5000, -53.937
1516.5200, -53.925
1516.5400, -53.919
1516.5600, -53.903
1516.5800, -53.886
1516.6000, -53.870
1516.6200, -53.861
1516.6400, -53.851
1516.6600, -53.812
1516.6800, -53.799
1516.7000, -53.781
1516.7200, -53.759
1516.7400, -53.737
1516.7600, -53.721
1516.7800, -53.709
1516.8000, -53.701
1516.8200, -53.680
1516.8400, -53.678
1516.8600, -53.649
1516.8800, -53.629
1516.9000, -53.617
1516.9200, -53.592
1516.9400, -53.585
1516.9600, -53.559
1516.9800, -53.540
1517.0000, -53.523
1517.0200, -53.499
1517.0400, -53.477
1517.0600, -53.456
1517.0800, -53.448
1517.1000, -53.433
1517.1200, -53.408
1517.1400, -53.395
1517.1600, -53.374
1517.1800, -53.355
1517.2000, -53.340
1517.2200, -53.318
1517.2400, -53.305
1517.2600, -53.289
1517.2800, -53.274
1517.3000, -53.259
1517.3200, -53.232
1517.3400, -53.212
1517.3600, -53.196
1517.3800, -53.174
1517.4000, -53.147
1517.4200, -53.132
1517.4400, -53.107
1517.4600, -53.097
1517.4800, -53.067
1517.5000, -53.049
1517.5200, -53.040
1517.5400, -53.020
1517.5600, -53.005
1517.5800, -52.987
1517.6000, -52.962
1517.6200, -52.939
1517.6400, -52.918
1517.6600, -52.892
1517.6800, -52.880
1517.7000, -52.852
1517.7200, -52.822
1517.7400, -52.818
1517.7600, -52.792
1517.7800, -52.784
1517.8000, -52.764
1517.8200, -52.736
1517.8400, -52.726
1517.8600, -52.704
1517.8800, -52.682
1517.9000, -52.659
1517.9200, -52.637
1517.9400, -52.615
1517.9600, -52.587
1517.9800, -52.563
1518.0000, -52.554
1518.0200, -52.528
1518.0400, -52.515
1518.0600, -52.494
1518.0800, -52.471
1518.1000, -52.438
1518.1200, -52.428
1518.1400, -52.400
1518.1600, -52.388
1518.1800, -52.371
1518.2000, -52.350
1518.2200, -52.331
1518.2400, -52.309
1518.2600, -52.283
1518.2800, -52.258
1518.3000, -52.233
1518.3200, -52.213
1518.3400, -52.195
1518.3600, -52.166
1518.3800, -52.148
1518.4000, -52.135
1518.4200, -52.086
1518.4400, -52.083
1518.4600, -52.064
1518.4800, -52.047
1518.5000, -52.018
1518.5200, -51.998
1518.5400, -51.964
1518.5600, -51.941
1518.5800, -51.912
1518.6000, -51.891
1518.6200, -51.876
1518.6400, -51.852
1518.6600, -51.814
1518.6800, -51.806
1518.7000, -51.786
1518.7200, -51.766
1518.7400, -51.741
1518.7600, -51.716
1518.7800, -51.699
1518.8000, -51.675
1518.8200, -51.652
1518.8400, -51.628
1518.8600, -51.602
1518.8800, -51.579
1518.9000, -51.552
1518.9200, -51.524
1518.9400, -51.493
1518.9600, -51.477
1518.9800, -51.454
1519.0000, -51.437
1519.0200, -51.408
1519.0400, -51.381
1519.0600, -51.362
1519.0800, -51.334
1519.1000, -51.305
1519.1200, -51.287
1519.1400, -51.264
1519.1600, -51.241
1519.1800, -51.220
1519.2000, -51.181
1519.2200, -51.156
1519.2400, -51.132
1519.2600, -51.099
1519.2800, -51.084
1519.3000, -51.046
1519.3200, -51.027
1519.3400, -50.999
1519.3600, -50.953
1519.3800, -50.937
1519.4000, -50.919
1519.4200, -50.889
1519.4400, -50.864
1519.4600, -50.844
1519.4800, -50.813
1519.5000, -50.786
1519.5200, -50.748
1519.5400, -50.724
1519.5600, -50.702
1519.5800, -50.663
1519.6000, -50.620
1519.6200, -50.616
1519.6400, -50.594
1519.6600, -50.568
1519.6800, -50.536
1519.7000, -50.513
1519.7200, -50.483
1519.7400, -50.462
1519.7600, -50.429
1519.7800, -50.403
1519.8000, -50.375
1519.8200, -50.350
1519.8400, -50.317
1519.8600, -50.275
1519.8800, -50.253
1519.9000, -50.223
1519.9200, -50.199
1519.9400, -50.166
1519.9600, -50.138
1519.9800, -50.102
1520.0000, -50.078
1520.0200, -50.051
1520.0400, -50.020
1520.0600, -49.996
1520.0800, -49.968
1520.1000, -49.937
1520.1200, -49.908
1520.1400, -49.870
1520.1600, -49.837
1520.1800, -49.812
1520.2000, -49.772
1520.2200, -49.746
1520.2400, -49.706
1520.2600, -49.692
1520.2800, -49.646
1520.3000, -49.607
1520.3200, -49.584
1520.3400, -49.555
1520.3600, -49.528
1520.3800, -49.497
1520.4000, -49.469
1520.4200, -49.432
1520.4400, -49.402
1520.4600, -49.370
1520.4800, -49.330
1520.5000, -49.296
1520.5200, -49.258
1520.5400, -49.210
1520.5600, -49.196
1520.5800, -49.175
1520.6000, -49.139
1520.6200, -49.110
1520.6400, -49.075
1520.6600, -49.039
1520.6800, -49.012
1520.7000, -48.977
1520.7200, -48.941
1520.7400, -48.899
1520.7600, -48.866
1520.7800, -48.841
1520.8000, -48.793
1520.8200, -48.755
1520.8400, -48.731
1520.8600, -48.696
1520.8800, -48.663
1520.9000, -48.626
1520.9200, -48.583
1520.9400, -48.551
1520.9600, -48.522
1520.9800, -48.487
1521.0000, -48.452
1521.0200, -48.417
1521.0400, -48.382
1521.0600, -48.350
1521.0800, -48.312
1521.1000, -48.269
1521.1200, -48.237
1521.1400, -48.195
1521.1600, -48.156
1521.1800, -48.118
1521.2000, -48.092
1521.2200, -48.039
1521.2400, -48.013
1521.2600, -47.989
1521.2800, -47.930
1521.3000, -47.905
1521.3200, -47.868
1521.3400, -47.829
1521.3600, -47.791
1521.3800, -47.751
1521.4000, -47.715
1521.4200, -47.665
1521.4400, -47.635
1521.4600, -47.588
1521.4800, -47.557
1521.5000, -47.526
1521.5200, -47.488
1521.5400, -47.428
1521.5600, -47.412
1521.5800, -47.373
1521.6000, -47.339
1521.6200, -47.301
1521.6400, -47.259
1521.6600, -47.219
1521.6800, -47.178
1521.7000, -47.128
1521.7200, -47.101
1521.7400, -47.055
1521.7600, -47.012
1521.7800, -46.977
1521.8000, -46.942
1521.8200, -46.902
1521.8400, -46.866
1521.8600, -46.819
1521.8800, -46.771
1521.9000, -46.747
1521.9200, -46.705
1521.9400, -46.666
1521.9600, -46.629
1521.9800, -46.592
1522.0000, -46.551
1522.0200, -46.502
1522.0400, -46.462
1522.0600, -46.424
1522.0800, -46.383
1522.1000, -46.344
1522.1200, -46.296
1522.1400, -46.258
1522.1600, -46.204
1522.1800, -46.180
1522.2000, -46.149
1522.2200, -46.100
1522.2400, -46.062
1522.2600, -46.017
1522.2800, -45.973
1522.3000, -45.933
1522.3200, -45.887
1522.3400, -45.843
1522.3600, -45.800
1522.3800, -45.762
1522.4000, -45.706
1522.4200, -45.690
1522.4400, -45.644
1522.4600, -45.597
1522.4800, -45.551
1522.5000, -45.514
1522.5200, -45.473
1522.5400, -45.433
1522.5600, -45.391
1522.5800, -45.350
1522.6000, -45.308
1522.6200, -45.260
1522.6400, -45.213
1522.6600, -45.179
1522.6800, -45.134
1522.7000, -45.092
1522.7200, -45.052
1522.7400, -45.008
1522.7600, -44.964
1522.7800, -44.924
1522.8000, -44.879
1522.8200, -44.838
1522.8400, -44.802
1522.8600, -44.759
1522.8800, -44.716
1522.9000, -44.679
1522.9200, -44.639
1522.9400, -44.591
1522.9600, -44.547
1522.9800, -44.507
1523.0000, -44.464
1523.0200, -44.424
1523.0400, -44.385
1523.0600, -44.327
1523.0800, -44.295
1523.1000, -44.244
1523.1200, -44.216
1523.1400, -44.172
1523.1600, -44.126
1523.1800, -44.071
1523.2000, -44.042
1523.2200, -43.999
1523.2400, -43.955
1523.2600, -43.911
1523.2800, -43.869
1523.3000, -43.819
1523.3200, -43.778
1523.3400, -43.734
1523.3600, -43.692
1523.3800, -43.651
1523.4000, -43.605
1523.4200, -43.567
1523.4400, -43.522
1523.4600, -43.480
1523.4800, -43.438
1523.5000, -43.396
1523.5200, -43.354
1523.5400, -43.311
1523.5600, -43.263
1523.5800, -43.223
1523.6000, -43.187
1523.6200, -43.139
1523.6400, -43.094
1523.6600, -43.058
1523.6800, -43.016
1523.7000, -42.976
1523.7200, -42.935
1523.7400, -42.887
1523.7600, -42.847
1523.7800, -42.805
1523.8000, -42.765
1523.8200, -42.723
1523.8400, -42.683
1523.8600, -42.642
1523.8800, -42.599
1523.9000, -42.553
1523.9200, -42.513
1523.9400, -42.473
1523.9600, -42.426
1523.9800, -42.388
1524.0000, -42.342
1524.0200, -42.307
1524.0400, -42.261
1524.0600, -42.225
1524.0800, -42.180
1524.1000, -42.135
1524.1200, -42.094
1524.1400, -42.054
1524.1600, -42.011
1524.1800, -41.971
1524.2000, -41.931
1524.2200, -41.888
1524.2400, -41.845
1524.2600, -41.805
1524.2800, -41.760
1524.3000, -41.725
1524.3200, -41.679
1524.3400, -41.641
1524.3600, -41.599
1524.3800, -41.560
1524.4000, -41.518
1524.4200, -41.480
1524.4400, -41.439
1524.4600, -41.397
1524.4800, -41.358
1524.5000, -41.315
1524.5200, -41.273
1524.5400, -41.232
1524.5600, -41.193
1524.5800, -41.157
1524.6000, -41.116
1524.6200, -41.078
1524.6400, -41.037
1524.6600, -40.993
1524.6800, -40.952
1524.7000, -40.914
1524.7200, -40.873
1524.7400, -40.836
1524.7600, -40.793
1524.7800, -40.756
1524.8000, -40.712
1524.8200, -40.672
1524.8400, -40.633
1524.8600, -40.593
1524.8800, -40.553
1524.9000, -40.512
1524.9200, -40.471
1524.9400, -40.428
1524.9600, -40.386
1524.9800, -40.350
1525.0000, -40.312
1525.0200, -40.270
1525.0400, -40.229
1525.0600, -40.186
1525.0800, -40.142
1525.1000, -40.100
1525.1200, -40.062
1525.1400, -40.024
1525.1600, -39.984
1525.1800, -39.945
1525.2000, -39.900
1525.2200, -39.863
1525.2400, -39.824
1525.2600, -39.786
1525.2800, -39.743
1525.3000, -39.706
1525.3200, -39.669
1525.3400, -39.632
1525.3600, -39.590
1525.3800, -39.554
1525.4000, -39.515
1525.4200, -39.475
1525.4400, -39.433
1525.4600, -39.393
1525.4800, -39.354
1525.5000, -39.315
1525.5200, -39.275
1525.5400, -39.234
1525.5600, -39.193
1525.5800, -39.149
1525.6000, -39.112
1525.6200, -39.077
1525.6400, -39.039
1525.6600, -39.001
1525.6800, -38.960
1525.7000, -38.917
1525.7200, -38.875
1525.7400, -38.833
1525.7600, -38.793
1525.7800, -38.751
1525.8000, -38.711
1525.8200, -38.670
1525.8400, -38.631
1525.8600, -38.591
1525.8800, -38.551
1525.9000, -38.504
1525.9200, -38.472
1525.9400, -38.434
1525.9600, -38.397
1525.9800, -38.361
1526.0000, -38.322
1526.0200, -38.289
1526.0400, -38.249
1526.0600, -38.205
1526.0800, -38.168
1526.1000, -38.131
1526.1200, -38.097
1526.1400, -38.047
1526.1600, -38.014
1526.1800, -37.969
1526.2000, -37.930
1526.2200, -37.883
1526.2400, -37.843
1526.2600, -37.803
1526.2800, -37.768
1526.3000, -37.733
1526.3200, -37.695
1526.3400, -37.661
1526.3600, -37.618
1526.3800, -37.589
1526.4000, -37.548
1526.4200, -37.509
1526.4400, -37.475
1526.4600, -37.440
1526.4800, -37.404
1526.5000, -37.360
1526.5200, -37.323
1526.5400, -37.283
1526.5600, -37.247
1526.5800, -37.208
1526.6000, -37.168
1526.6200, -37.128
1526.6400, -37.090
1526.6600, -37.052
1526.6800, -37.014
1526.7000, -36.972
1526.7200, -36.935
1526.7400, -36.898
1526.7600, -36.860
1526.7800, -36.818
1526.8000, -36.779
1526.8200, -36.742
1526.8400, -36.695
1526.8600, -36.668
1526.8800, -36.631
1526.9000, -36.587
1526.9200, -36.546
1526.9400, -36.500
1526.9600, -36.463
1526.9800, -36.418
1527.0000, -36.380
1527.0200, -36.347
1527.0400, -36.300
1527.0600, -36.251
1527.0800, -36.215
1527.1000, -36.190
1527.1200, -36.149
1527.1400, -36.108
1527.1600, -36.068
1527.1800, -36.038
1527.2000, -36.001
1527.2200, -35.968
1527.2400, -35.929
1527.2600, -35.891
1527.2800, -35.851
1527.3000, -35.803
1527.3200, -35.766
1527.3400, -35.715
1527.3600, -35.690
1527.3800, -35.655
1527.4000, -35.616
1527.4200, -35.578
1527.4400, -35.535
1527.4600, -35.488
1527.4800, -35.447
1527.5000, -35.411
1527.5200, -35.359
1527.5400, -35.315
1527.5600, -35.268
1527.5800, -35.225
1527.6000, -35.184
1527.6200, -35.140
1527.6400, -35.094
1527.6600, -35.054
1527.6800, -35.006
1527.7000, -34.970
1527.7200, -34.916
1527.7400, -34.886
1527.7600, -34.842
1527.7800, -34.780
1527.8000, -34.753
1527.8200, -34.709
1527.8400, -34.659
1527.8600, -34.616
1527.8800, -34.575
1527.9000, -34.528
1527.9200, -34.467
1527.9400, -34.437
1527.9600, -34.386
1527.9800, -34.360
1528.0000, -34.295
1528.0200, -34.247
1528.0400, -34.203
1528.0600, -34.160
1528.0800, -34.102
1528.1000, -34.079
1528.1200, -34.033
1528.1400, -33.984
1528.1600, -33.939
1528.1800, -33.898
1528.2000, -33.847
1528.2200, -33.802
1528.2400, -33.746
1528.2600, -33.705
1528.2800, -33.663
1528.3000, -33.630
1528.3200, -33.589
1528.3400, -33.554
1528.3600, -33.499
1528.3800, -33.469
1528.4000, -33.411
1528.4200, -33.366
1528.4400, -33.346
1528.4600, -33.306
1528.4800, -33.263
1528.5000, -33.216
1528.5200, -33.177
1528.5400, -33.134
1528.5600, -33.087
1528.5800, -33.044
1528.6000, -32.999
1528.6200, -32.958
1528.6400, -32.922
1528.6600, -32.862
1528.6800, -32.832
1528.7000, -32.782
1528.7200, -32.763
1528.7400, -32.716
1528.7600, -32.662
1528.7800, -32.593
1528.8000, -32.572
1528.8200, -32.517
1528.8400, -32.460
1528.8600, -32.414
1528.8800, -32.365
1528.9000, -32.325
1528.9200, -32.272
1528.9400, -32.205
1528.9600, -32.170
1528.9800, -32.130
1529.0000, -32.067
1529.0200, -32.030
1529.0400, -31.983
1529.0600, -31.934
1529.0800, -31.890
1529.1000, -31.838
1529.1200, -31.797
1529.1400, -31.748
1529.1600, -31.699
1529.1800, -31.670
1529.2000, -31.596
1529.2200, -31.552
1529.2400, -31.519
1529.2600, -31.453
1529.2800, -31.401
1529.3000, -31.387
1529.3200, -31.333
1529.3400, -31.291
1529.3600, -31.303
1529.3800, -31.168
1529.4000, -31.199
1529.4200, -31.223
1529.4400, -31.066
1529.4600, -31.160
1529.4800, -31.047
1529.5000, -30.939
1529.5200, -31.006
1529.5400, -30.952
1529.5600, -30.882
1529.5800, -30.883
1529.6000, -30.771
1529.6200, -30.743
1529.6400, -30.662
1529.6600, -30.694
1529.6800, -30.579
1529.7000, -30.489
1529.7200, -30.539
1529.7400, -30.485
1529.7600, -30.438
1529.7800, -30.419
1529.8000, -30.272
1529.8200, -30.281
1529.8400, -30.369
1529.8600, -30.175
1529.8800, -30.106
1529.9000, -30.134
1529.9200, -30.054
1529.9400, -30.012
1529.9600, -30.050
1529.9800, -29.935
1530.0000, -29.982
1530.0200, -29.867
1530.0400, -29.841
1530.0600, -29.795
1530.0800, -29.812
1530.1000, -29.822
1530.1200, -29.786
1530.1400, -29.630
1530.1600, -29.585
1530.1800, -29.626
1530.2000, -29.506
1530.2200, -29.490
1530.2400, -29.406
1530.2600, -29.552
1530.2800, -29.542
1530.3000, -29.359
1530.3200, -29.419
1530.3400, -29.438
1530.3600, -29.310
1530.3800, -29.412
1530.4000, -29.268
1530.4200, -29.112
1530.4400, -28.993
1530.4600, -28.968
1530.4800, -28.957
1530.5000, -28.808
1530.5200, -28.810
1530.5400, -28.695
1530.5600, -28.711
1530.5800, -28.763
1530.6000, -28.611
1530.6200, -28.514
1530.6400, -28.550
1530.6600, -28.420
1530.6800, -28.469
1530.7000, -28.400
1530.7200, -28.334
1530.7400, -28.361
1530.7600, -28.365
1530.7800, -28.327
1530.8000, -28.247
1530.8200, -28.348
1530.8400, -28.202
1530.8600, -28.210
1530.8800, -28.315
1530.9000, -27.939
1530.9200, -28.063
1530.9400, -28.182
1530.9600, -28.128
1530.9800, -28.283
1531.0000, -28.269
1531.0200, -28.349
1531.0400, -28.340
1531.0600, -28.169
1531.0800, -27.995
1531.1000, -27.670
1531.1200, -28.329
1531.1400, -28.174
1531.1600, -28.128
1531.1800, -28.207
1531.2000, -28.232
1531.2200, -28.186
1531.2400, -28.191
1531.2600, -27.657
1531.2800, -28.036
1531.3000, -27.980
1531.3200, -27.810
1531.3400, -27.324
1531.3600, -27.232
1531.3800, -26.895
1531.4000, -27.534
1531.4200, -27.660
1531.4400, -27.732
1531.4600, -27.548
1531.4800, -27.421
1531.5000, -26.874
1531.5200, -26.277
1531.5400, -27.623
1531.5600, -27.930
1531.5800, -26.994
1531.6000, -27.199
1531.6200, -27.513
1531.6400, -27.384
1531.6600, -27.082
1531.6800, -27.539
1531.7000, -27.365
1531.7200, -27.712
1531.7400, -27.780
1531.7600, -28.261
1531.7800, -27.698
1531.8000, -27.787
1531.8200, -27.082
1531.8400, -27.583
1531.8600, -26.943
1531.8800, -26.667
1531.9000, -27.274
1531.9200, -26.754
1531.9400, -27.120
1531.9600, -26.944
1531.9800, -25.119
1532.0000, -25.594
1532.0200, -27.114
1532.0400, -26.569
1532.0600, -27.449
1532.0800, -26.849
1532.1000, -27.588
1532.1200, -25.985
1532.1400, -26.862
1532.1600, -27.384
1532.1800, -26.824
1532.2000, -26.730
1532.2200, -27.119
1532.2400, -27.093
1532.2600, -26.946
1532.2800, -27.315
1532.3000, -27.409
1532.3200, -26.130
1532.3400, -25.409
1532.3600, -24.986
1532.3800, -26.828
1532.4000, -26.758
1532.4200, -26.171
1532.4400, -24.955
1532.4600, -25.959
1532.4800, -27.541
1532.5000, -26.779
1532.5200, -27.663
1532.5400, -26.779
1532.5600, -27.545
1532.5800, -25.202
1532.6000, -25.872
1532.6200, -27.629
1532.6400, -26.619
1532.6600, -27.815
1532.6800, -27.759
1532.7000, -27.481
1532.7200, -27.048
1532.7400, -27.243
1532.7600, -26.937
1532.7800, -27.582
1532.8000, -27.685
1532.8200, -26.453
1532.8400, -28.110
1532.8600, -25.973
1532.8800, -28.180
1532.9000, -27.902
1532.9200, -28.475
1532.9400, -27.567
1532.9600, -28.095
1532.9800, -28.551
1533.0000, -28.478
1533.0200, -28.482
1533.0400, -28.616
1533.0600, -28.375
1533.0800, -28.143
1533.1000, -28.207
1533.1200, -28.251
1533.1400, -28.496
1533.1600, -28.719
1533.1800, -28.661
1533.2000, -27.596
1533.2200, -28.584
1533.2400, -28.375
1533.2600, -28.084
1533.2800, -28.669
1533.3000, -28.283
1533.3200, -28.554
1533.3400, -28.781
1533.3600, -28.177
1533.3800, -28.931
1533.4000, -29.049
1533.4200, -29.047
1533.4400, -29.000
1533.4600, -29.176
1533.4800, -29.143
1533.5000, -29.192
1533.5200, -29.147
1533.5400, -29.360
1533.5600, -29.422
1533.5800, -29.387
1533.6000, -29.456
1533.6200, -29.720
1533.6400, -29.785
1533.6600, -29.788
1533.6800, -29.836
1533.7000, -29.831
1533.7200, -29.932
1533.7400, -30.033
1533.7600, -30.183
1533.7800, -30.409
1533.8000, -30.314
1533.8200, -30.404
1533.8400, -30.513
1533.8600, -30.607
1533.8800, -30.740
1533.9000, -30.758
1533.9200, -30.854
1533.9400, -30.978
1533.9600, -30.954
1533.9800, -31.110
1534.0000, -31.149
1534.0200, -31.202
1534.0400, -31.228
1534.0600, -31.323
1534.0800, -31.396
1534.1000, -31.448
1534.1200, -31.559
1534.1400, -31.559
1534.1600, -31.618
1534.1800, -31.700
1534.2000, -31.762
1534.2200, -31.852
1534.2400, -31.820
1534.2600, -31.907
1534.2800, -31.896
1534.3000, -32.008
1534.3200, -32.047
1534.3400, -32.148
1534.3600, -32.376
1534.3800, -32.327
1534.4000, -32.408
1534.4200, -32.492
1534.4400, -32.549
1534.4600, -32.720
1534.4800, -32.675
1534.5000, -32.702
1534.5200, -32.819
1534.5400, -32.856
1534.5600, -32.946
1534.5800, -32.998
1534.6000, -33.062
1534.6200, -33.063
1534.6400, -33.119
1534.6600, -33.180
1534.6800, -33.180
1534.7000, -33.258
1534.7200, -33.331
1534.7400, -33.353
1534.7600, -33.377
1534.7800, -33.505
1534.8000, -33.549
1534.8200, -33.636
1534.8400, -33.744
1534.8600, -33.766
1534.8800, -33.872
1534.9000, -33.944
1534.9200, -33.929
1534.9400, -34.027
1534.9600, -34.067
1534.9800, -34.110
1535.0000, -34.222
1535.0200, -34.272
1535.0400, -34.309
1535.0600, -34.386
1535.0800, -34.433
1535.1000, -34.535
1535.1200, -34.539
1535.1400, -34.579
1535.1600, -34.622
1535.1800, -34.681
1535.2000, -34.734
1535.2200, -34.817
1535.2400, -34.821
1535.2600, -34.890
1535.2800, -34.959
1535.3000, -35.022
1535.3200, -35.080
1535.3400, -35.142
1535.3600, -35.213
1535.3800, -35.270
1535.4000, -35.308
1535.4200, -35.361
1535.4400, -35.388
1535.4600, -35.450
1535.4800, -35.517
1535.5000, -35.579
1535.5200, -35.632
1535.5400, -35.682
1535.5600, -35.736
1535.5800, -35.793
1535.6000, -35.849
1535.6200, -35.892
1535.6400, -35.962
1535.6600, -36.016
1535.6800, -36.075
1535.7000, -36.149
1535.7200, -36.203
1535.7400, -36.260
1535.7600, -36.316
1535.7800, -36.367
1535.8000, -36.429
1535.8200, -36.486
1535.8400, -36.535
1535.8600, -36.579
1535.8800, -36.639
1535.9000, -36.688
1535.9200, -36.734
1535.9400, -36.781
1535.9600, -36.815
1535.9800, -36.878
1536.0000, -36.926
1536.0200, -36.981
1536.0400, -37.032
1536.0600, -37.070
1536.0800, -37.114
1536.1000, -37.163
1536.1200, -37.201
1536.1400, -37.249
1536.1600, -37.295
1536.1800, -37.346
1536.2000, -37.389
1536.2200, -37.421
1536.2400, -37.454
1536.2600, -37.507
1536.2800, -37.551
1536.3000, -37.584
1536.3200, -37.629
1536.3400, -37.674
1536.3600, -37.710
1536.3800, -37.747
1536.4000, -37.781
1536.4200, -37.830
1536.4400, -37.868
1536.4600, -37.897
1536.4800, -37.934
1536.5000, -37.976
1536.5200, -38.025
1536.5400, -38.062
1536.5600, -38.110
1536.5800, -38.142
1536.6000, -38.176
1536.6200, -38.214
1536.6400, -38.247
1536.6600, -38.286
1536.6800, -38.323
1536.7000, -38.348
1536.7200, -38.385
1536.7400, -38.426
1536.7600, -38.458
1536.7800, -38.491
1536.8000, -38.533
1536.8200, -38.569
1536.8400, -38.605
1536.8600, -38.638
1536.8800, -38.659
1536.9000, -38.693
1536.9200, -38.729
1536.9400, -38.763
1536.9600, -38.794
1536.9800, -38.828
1537.0000, -38.854
1537.0200, -38.893
1537.0400, -38.920
1537.0600, -38.948
1537.0800, -38.984
1537.1000, -39.014
1537.1200, -39.046
1537.1400, -39.074
1537.1600, -39.099
1537.1800, -39.125
1537.2000, -39.149
1537.2200, -39.179
1537.2400, -39.193
1537.2600, -39.224
1537.2800, -39.262
1537.3000, -39.277
1537.3200, -39.299
1537.3400, -39.330
1537.3600, -39.357
1537.3800, -39.385
1537.4000, -39.412
1537.4200, -39.442
1537.4400, -39.465
1537.4600, -39.485
1537.4800, -39.513
1537.5000, -39.532
1537.5200, -39.554
1537.5400, -39.581
1537.5600, -39.603
1537.5800, -39.630
1537.6000, -39.655
1537.6200, -39.678
1537.6400, -39.702
1537.6600, -39.730
1537.6800, -39.750
1537.7000, -39.762
1537.7200, -39.795
1537.7400, -39.817
1537.7600, -39.840
1537.7800, -39.856
1537.8000, -39.878
1537.8200, -39.897
1537.8400, -39.918
1537.8600, -39.938
1537.8800, -39.957
1537.9000, -39.978
1537.9200, -39.989
1537.9400, -40.023
1537.9600, -40.041
1537.9800, -40.057
1538.0000, -40.075
1538.0200, -40.091
1538.0400, -40.107
1538.0600, -40.122
1538.0800, -40.142
1538.1000, -40.161
1538.1200, -40.177
1538.1400, -40.201
1538.1600, -40.213
1538.1800, -40.230
1538.2000, -40.242
1538.2200, -40.266
1538.2400, -40.285
1538.2600, -40.298
1538.2800, -40.314
1538.3000, -40.328
1538.3200, -40.340
1538.3400, -40.352
1538.3600, -40.363
1538.3800, -40.370
1538.4000, -40.392
1538.4200, -40.406
1538.4400, -40.414
1538.4600, -40.430
1538.4800, -40.440
1538.5000, -40.455
1538.5200, -40.473
1538.5400, -40.482
1538.5600, -40.496
1538.5800, -40.512
1538.6000, -40.524
1538.6200, -40.538
1538.6400, -40.549
1538.6600, -40.559
1538.6800, -40.571
1538.7000, -40.576
1538.7200, -40.588
1538.7400, -40.592
1538.7600, -40.602
1538.7800, -40.614
1538.8000, -40.627
1538.8200, -40.630
1538.8400, -40.636
1538.8600, -40.655
1538.8800, -40.663
1538.9000, -40.668
1538.9200, -40.674
1538.9400, -40.682
1538.9600, -40.691
1538.9800, -40.697
1539.0000, -40.701
1539.0200, -40.709
1539.0400, -40.718
1539.0600, -40.720
1539.0800, -40.736
1539.1000, -40.743
1539.1200, -40.742
1539.1400, -40.751
1539.1600, -40.751
1539.1800, -40.766
1539.2000, -40.769
1539.2200, -40.776
1539.2400, -40.780
1539.2600, -40.784
1539.2800, -40.793
1539.3000, -40.800
1539.3200, -40.805
1539.3400, -40.807
1539.3600, -40.814
1539.3800, -40.819
1539.4000, -40.822
1539.4200, -40.831
1539.4400, -40.837
1539.4600, -40.837
1539.4800, -40.846
1539.5000, -40.851
1539.5200, -40.859
1539.5400, -40.867
1539.5600, -40.864
1539.5800, -40.866
1539.6000, -40.878
1539.6200, -40.889
1539.6400, -40.894
1539.6600, -40.894
1539.6800, -40.897
1539.7000, -40.899
1539.7200, -40.900
1539.7400, -40.903
1539.7600, -40.902
1539.7800, -40.903
1539.8000, -40.911
1539.8200, -40.910
1539.8400, -40.915
1539.8600, -40.920
1539.8800, -40.924
1539.9000, -40.923
1539.9200, -40.926
1539.9400, -40.931
1539.9600, -40.933
1539.9800, -40.930
1540.0000, -40.929
1540.0200, -40.939
1540.0400, -40.943
1540.0600, -40.941
1540.0800, -40.946
1540.1000, -40.946
1540.1200, -40.951
1540.1400, -40.957
1540.1600, -40.960
1540.1800, -40.959
1540.2000, -40.960
1540.2200, -40.964
1540.2400, -40.959
1540.2600, -40.957
1540.2800, -40.955
1540.3000, -40.954
1540.3200, -40.955
1540.3400, -40.954
1540.3600, -40.950
1540.3800, -40.943
1540.4000, -40.946
1540.4200, -40.943
1540.4400, -40.945
1540.4600, -40.944
1540.4800, -40.943
1540.5000, -40.943
1540.5200, -40.939
1540.5400, -40.938
1540.5600, -40.929
1540.5800, -40.934
1540.6000, -40.931
1540.6200, -40.930
1540.6400, -40.931
1540.6600, -40.933
1540.6800, -40.921
1540.7000, -40.922
1540.7200, -40.921
1540.7400, -40.920
1540.7600, -40.920
1540.7800, -40.916
1540.8000, -40.910
1540.8200, -40.908
1540.8400, -40.904
1540.8600, -40.901
1540.8800, -40.905
1540.9000, -40.899
1540.9200, -40.896
1540.9400, -40.886
1540.9600, -40.893
1540.9800, -40.891
1541.0000, -40.896
1541.0200, -40.894
1541.0400, -40.895
1541.0600, -40.892
1541.0800, -40.887
1541.1000, -40.883
1541.1200, -40.882
1541.1400, -40.879
1541.1600, -40.870
1541.1800, -40.868
1541.2000, -40.869
1541.2200, -40.867
1541.2400, -40.862
1541.2600, -40.864
1541.2800, -40.859
1541.3000, -40.858
1541.3200, -40.856
1541.3400, -40.855
1541.3600, -40.853
1541.3800, -40.853
1541.4000, -40.849
1541.4200, -40.846
1541.4400, -40.841
1541.4600, -40.837
1541.4800, -40.833
1541.5000, -40.828
1541.5200, -40.824
1541.5400, -40.824
1541.5600, -40.815
1541.5800, -40.814
1541.6000, -40.809
1541.6200, -40.811
1541.6400, -40.802
1541.6600, -40.803
1541.6800, -40.795
1541.7000, -40.793
1541.7200, -40.788
1541.7400, -40.785
1541.7600, -40.781
1541.7800, -40.776
1541.8000, -40.781
1541.8200, -40.765
1541.8400, -40.761
1541.8600, -40.762
1541.8800, -40.762
1541.9000, -40.760
1541.9200, -40.758
1541.9400, -40.754
1541.9600, -40.751
1541.9800, -40.746
1542.0000, -40.742
1542.0200, -40.738
1542.0400, -40.732
1542.0600, -40.721
1542.0800, -40.719
1542.1000, -40.713
1542.1200, -40.710
1542.1400, -40.711
1542.1600, -40.708
1542.1800, -40.711
1542.2000, -40.701
1542.2200, -40.697
1542.2400, -40.693
1542.2600, -40.690
1542.2800, -40.683
1542.3000, -40.672
1542.3200, -40.669
1542.3400, -40.668
1542.3600, -40.666
1542.3800, -40.660
1542.4000, -40.656
1542.4200, -40.654
1542.4400, -40.654
1542.4600, -40.641
1542.4800, -40.640
1542.5000, -40.629
1542.5200, -40.632
1542.5400, -40.626
1542.5600, -40.624
1542.5800, -40.620
1542.6000, -40.616
1542.6200, -40.611
1542.6400, -40.603
1542.6600, -40.601
1542.6800, -40.598
1542.7000, -40.594
1542.7200, -40.594
1542.7400, -40.582
1542.7600, -40.583
1542.7800, -40.584
1542.8000, -40.566
1542.8200, -40.573
1542.8400, -40.570
1542.8600, -40.566
1542.8800, -40.562
1542.9000, -40.557
1542.9200, -40.549
1542.9400, -40.544
1542.9600, -40.542
1542.9800, -40.529
1543.0000, -40.524
1543.0200, -40.519
1543.0400, -40.514
1543.0600, -40.511
1543.0800, -40.508
1543.1000, -40.500
1543.1200, -40.495
1543.1400, -40.494
1543.1600, -40.490
1543.1800, -40.490
1543.2000, -40.482
1543.2200, -40.470
1543.2400, -40.469
1543.2600, -40.476
1543.2800, -40.473
1543.3000, -40.471
1543.3200, -40.468
1543.3400, -40.464
1543.3600, -40.464
1543.3800, -40.461
1543.4000, -40.464
1543.4200, -40.458
1543.4400, -40.451
1543.4600, -40.447
1543.4800, -40.452
1543.5000, -40.444
1543.5200, -40.441
1543.5400, -40.435
1543.5600, -40.432
1543.5800, -40.430
1543.6000, -40.429
1543.6200, -40.420
1543.6400, -40.423
1543.6600, -40.428
1543.6800, -40.422
1543.7000, -40.415
1543.7200, -40.406
1543.7400, -40.409
1543.7600, -40.407
1543.7800, -40.400
1543.8000, -40.397
1543.8200, -40.393
1543.8400, -40.395
1543.8600, -40.395
1543.8800, -40.392
1543.9000, -40.387
1543.9200, -40.386
1543.9400, -40.385
1543.9600, -40.386
1543.9800, -40.387
1544.0000, -40.380
1544.0200, -40.379
1544.0400, -40.383
1544.0600, -40.379
1544.0800, -40.376
1544.1000, -40.377
1544.1200, -40.362
1544.1400, -40.358
1544.1600, -40.362
1544.1800, -40.357
1544.2000, -40.357
1544.2200, -40.357
1544.2400, -40.356
1544.2600, -40.363
1544.2800, -40.351
1544.3000, -40.355
1544.3200, -40.349
1544.3400, -40.344
1544.3600, -40.331
1544.3800, -40.339
1544.4000, -40.328
1544.4200, -40.331
1544.4400, -40.326
1544.4600, -40.326
1544.4800, -40.321
1544.5000, -40.319
1544.5200, -40.315
1544.5400, -40.310
1544.5600, -40.311
1544.5800, -40.306
1544.6000, -40.308
1544.6200, -40.296
1544.6400, -40.302
1544.6600, -40.302
1544.6800, -40.302
1544.7000, -40.301
1544.7200, -40.299
1544.7400, -40.298
1544.7600, -40.299
1544.7800, -40.298
1544.8000, -40.300
1544.8200, -40.298
1544.8400, -40.297
1544.8600, -40.296
1544.8800, -40.297
1544.9000, -40.298
1544.9200, -40.293
1544.9400, -40.293
1544.9600, -40.293
1544.9800, -40.296
1545.0000, -40.297
1545.0200, -40.294
1545.0400, -40.294
1545.0600, -40.295
1545.0800, -40.291
1545.1000, -40.291
1545.1200, -40.292
1545.1400, -40.291
1545.1600, -40.289
1545.1800, -40.293
1545.2000, -40.288
1545.2200, -40.290
1545.2400, -40.293
1545.2600, -40.299
1545.2800, -40.302
1545.3000, -40.296
1545.3200, -40.297
1545.3400, -40.300
1545.3600, -40.297
1545.3800, -40.296
1545.4000, -40.297
1545.4200, -40.296
1545.4400, -40.294
1545.4600, -40.290
1545.4800, -40.284
1545.5000, -40.282
1545.5200, -40.279
1545.5400, -40.278
1545.5600, -40.273
1545.5800, -40.272
1545.6000, -40.276
1545.6200, -40.278
1545.6400, -40.281
1545.6600, -40.284
1545.6800, -40.283
1545.7000, -40.282
1545.7200, -40.277
1545.7400, -40.281
1545.7600, -40.281
1545.7800, -40.278
1545.8000, -40.275
1545.8200, -40.272
1545.8400, -40.271
1545.8600, -40.272
1545.8800, -40.275
1545.9000, -40.281
1545.9200, -40.276
1545.9400, -40.269
1545.9600, -40.268
1545.9800, -40.273
1546.0000, -40.271
1546.0200, -40.274
1546.0400, -40.267
1546.0600, -40.266
1546.0800, -40.263
1546.1000, -40.257
1546.1200, -40.254
1546.1400, -40.253
1546.1600, -40.260
1546.1800, -40.256
1546.2000, -40.265
1546.2200, -40.267
1546.2400, -40.263
1546.2600, -40.264
1546.2800, -40.257
1546.3000, -40.259
1546.3200, -40.256
1546.3400, -40.250
1546.3600, -40.248
1546.3800, -40.252
1546.4000, -40.250
1546.4200, -40.256
1546.4400, -40.252
1546.4600, -40.257
1546.4800, -40.260
1546.5000, -40.265
1546.5200, -40.267
1546.5400, -40.266
1546.5600, -40.269
1546.5800, -40.268
1546.6000, -40.268
1546.6200, -40.266
1546.6400, -40.269
1546.6600, -40.271
1546.6800, -40.272
1546.7000, -40.275
1546.7200, -40.273
1546.7400, -40.268
1546.7600, -40.270
1546.7800, -40.267
1546.8000, -40.268
1546.8200, -40.265
1546.8400, -40.256
1546.8600, -40.258
1546.8800, -40.264
1546.9000, -40.267
1546.9200, -40.255
1546.9400, -40.263
1546.9600, -40.266
1546.9800, -40.272
1547.0000, -40.268
1547.0200, -40.267
1547.0400, -40.266
1547.0600, -40.261
1547.0800, -40.266
1547.1000, -40.269
1547.1200, -40.262
1547.1400, -40.272
1547.1600, -40.276
1547.1800, -40.273
1547.2000, -40.281
1547.2200, -40.284
1547.2400, -40.287
1547.2600, -40.284
1547.2800, -40.294
1547.3000, -40.290
1547.3200, -40.286
1547.3400, -40.285
1547.3600, -40.295
1547.3800, -40.295
1547.4000, -40.297
1547.4200, -40.296
1547.4400, -40.295
1547.4600, -40.293
1547.4800, -40.293
1547.5000, -40.290
1547.5200, -40.295
1547.5400, -40.291
1547.5600, -40.292
1547.5800, -40.290
1547.6000, -40.289
1547.6200, -40.290
1547.6400, -40.290
1547.6600, -40.298
1547.6800, -40.301
1547.7000, -40.303
1547.7200, -40.310
1547.7400, -40.314
1547.7600, -40.313
1547.7800, -40.311
1547.8000, -40.299
1547.8200, -40.301
1547.8400, -40.306
1547.8600, -40.308
1547.8800, -40.310
1547.9000, -40.306
1547.9200, -40.313
1547.9400, -40.315
1547.9600, -40.314
1547.9800, -40.309
1548.0000, -40.321
1548.0200, -40.319
1548.0400, -40.325
1548.0600, -40.321
1548.0800, -40.313
1548.1000, -40.320
1548.1200, -40.319
1548.1400, -40.314
1548.1600, -40.313
1548.1800, -40.320
1548.2000, -40.312
1548.2200, -40.322
1548.2400, -40.325
1548.2600, -40.331
1548.2800, -40.334
1548.3000, -40.339
1548.3200, -40.340
1548.3400, -40.340
1548.3600, -40.340
1548.3800, -40.330
1548.4000, -40.343
1548.4200, -40.339
1548.4400, -40.342
1548.4600, -40.350
1548.4800, -40.350
1548.5000, -40.354
1548.5200, -40.353
1548.5400, -40.344
1548.5600, -40.347
1548.5800, -40.352
1548.6000, -40.356
1548.6200, -40.362
1548.6400, -40.363
1548.6600, -40.368
1548.6800, -40.366
1548.7000, -40.363
1548.7200, -40.362
1548.7400, -40.369
1548.7600, -40.375
1548.7800, -40.384
1548.8000, -40.384
1548.8200, -40.385
1548.8400, -40.381
1548.8600, -40.382
1548.8800, -40.381
1548.9000, -40.387
1548.9200, -40.384
1548.9400, -40.391
1548.9600, -40.389
1548.9800, -40.378
1549.0000, -40.388
1549.0200, -40.397
1549.0400, -40.395
1549.0600, -40.394
1549.0800, -40.391
1549.1000, -40.393
1549.1200, -40.394
1549.1400, -40.391
1549.1600, -40.404
1549.1800, -40.406
1549.2000, -40.410
1549.2200, -40.413
1549.2400, -40.420
1549.2600, -40.423
1549.2800, -40.421
1549.3000, -40.420
1549.3200, -40.415
1549.3400, -40.412
1549.3600, -40.416
1549.3800, -40.417
1549.4000, -40.422
1549.4200, -40.422
1549.4400, -40.428
1549.4600, -40.433
1549.4800, -40.442
1549.5000, -40.445
1549.5200, -40.449
1549.5400, -40.456
1549.5600, -40.458
1549.5800, -40.459
1549.6000, -40.457
1549.6200, -40.445
1549.6400, -40.460
1549.6600, -40.463
1549.6800, -40.471
1549.7000, -40.471
1549.7200, -40.472
1549.7400, -40.469
1549.7600, -40.470
1549.7800, -40.471
1549.8000, -40.480
1549.8200, -40.482
1549.8400, -40.496
1549.8600, -40.501
1549.8800, -40.497
1549.9000, -40.504
1549.9200, -40.506
1549.9400, -40.501
1549.9600, -40.500
1549.9800, -40.499
1550.0000, -40.503
1550.0200, -40.510
1550.0400, -40.506
1550.0600, -40.509
1550.0800, -40.512
1550.1000, -40.516
1550.1200, -40.519
1550.1400, -40.519
1550.1600, -40.518
1550.1800, -40.514
1550.2000, -40.514
1550.2200, -40.514
1550.2400, -40.516
1550.2600, -40.525
1550.2800, -40.531
1550.3000, -40.537
1550.3200, -40.542
1550.3400, -40.539
1550.3600, -40.541
1550.3800, -40.549
1550.4000, -40.552
1550.4200, -40.557
1550.4400, -40.560
1550.4600, -40.561
1550.4800, -40.565
1550.5000, -40.564
1550.5200, -40.562
1550.5400, -40.567
1550.5600, -40.569
1550.5800, -40.566
1550.6000, -40.569
1550.6200, -40.574
1550.6400, -40.576
1550.6600, -40.583
1550.6800, -40.583
1550.7000, -40.592
1550.7200, -40.597
1550.7400, -40.601
1550.7600, -40.605
1550.7800, -40.607
1550.8000, -40.616
1550.8200, -40.616
1550.8400, -40.620
1550.8600, -40.621
1550.8800, -40.622
1550.9000, -40.633
1550.9200, -40.633
1550.9400, -40.636
1550.9600, -40.634
1550.9800, -40.638
1551.0000, -40.639
1551.0200, -40.643
1551.0400, -40.648
1551.0600, -40.650
1551.0800, -40.654
1551.1000, -40.651
1551.1200, -40.658
1551.1400, -40.657
1551.1600, -40.660
1551.1800, -40.668
1551.2000, -40.667
1551.2200, -40.671
1551.2400, -40.678
1551.2600, -40.683
1551.2800, -40.692
1551.3000, -40.696
1551.3200, -40.697
1551.3400, -40.705
1551.3600, -40.706
1551.3800, -40.709
1551.4000, -40.709
1551.4200, -40.709
1551.4400, -40.707
1551.4600, -40.709
1551.4800, -40.709
1551.5000, -40.714
1551.5200, -40.714
1551.5400, -40.711
1551.5600, -40.715
1551.5800, -40.721
1551.6000, -40.722
1551.6200, -40.725
1551.6400, -40.734
1551.6600, -40.738
1551.6800, -40.738
1551.7000, -40.745
1551.7200, -40.748
1551.7400, -40.756
1551.7600, -40.751
1551.7800, -40.749
1551.8000, -40.756
1551.8200, -40.767
1551.8400, -40.773
1551.8600, -40.778
1551.8800, -40.778
1551.9000, -40.782
1551.9200, -40.784
1551.9400, -40.785
1551.9600, -40.785
1551.9800, -40.783
1552.0000, -40.785
1552.0200, -40.784
1552.0400, -40.790
1552.0600, -40.795
1552.0800, -40.799
1552.1000, -40.805
1552.1200, -40.803
1552.1400, -40.809
1552.1600, -40.818
1552.1800, -40.825
1552.2000, -40.829
1552.2200, -40.830
1552.2400, -40.835
1552.2600, -40.837
1552.2800, -40.840
1552.3000, -40.841
1552.3200, -40.841
1552.3400, -40.845
1552.3600, -40.843
1552.3800, -40.843
1552.4000, -40.849
1552.4200, -40.848
1552.4400, -40.851
1552.4600, -40.849
1552.4800, -40.852
1552.5000, -40.860
1552.5200, -40.862
1552.5400, -40.861
1552.5600, -40.864
1552.5800, -40.863
1552.6000, -40.870
1552.6200, -40.872
1552.6400, -40.876
1552.6600, -40.880
1552.6800, -40.887
1552.7000, -40.883
1552.7200, -40.896
1552.7400, -40.901
1552.7600, -40.904
1552.7800, -40.907
1552.8000, -40.912
1552.8200, -40.915
1552.8400, -40.917
1552.8600, -40.917
1552.8800, -40.916
1552.9000, -40.912
1552.9200, -40.918
1552.9400, -40.923
1552.9600, -40.924
1552.9800, -40.927
1553.0000, -40.929
1553.0200, -40.927
1553.0400, -40.928
1553.0600, -40.936
1553.0800, -40.940
1553.1000, -40.942
1553.1200, -40.945
1553.1400, -40.950
1553.1600, -40.952
1553.1800, -40.957
1553.2000, -40.959
1553.2200, -40.960
1553.2400, -40.964
1553.2600, -40.973
1553.2800, -40.976
1553.3000, -40.978
1553.3200, -40.983
1553.3400, -40.987
1553.3600, -40.985
1553.3800, -40.979
1553.4000, -40.988
1553.4200, -40.985
1553.4400, -40.989
1553.4600, -40.991
1553.4800, -40.989
1553.5000, -40.991
1553.5200, -40.994
1553.5400, -40.993
1553.5600, -40.997
1553.5800, -41.000
1553.6000, -41.011
1553.6200, -41.014
1553.6400, -41.019
1553.6600, -41.023
1553.6800, -41.028
1553.7000, -41.030
1553.7200, -41.032
1553.7400, -41.032
1553.7600, -41.035
1553.7800, -41.038
1553.8000, -41.039
1553.8200, -41.040
1553.8400, -41.043
1553.8600, -41.044
1553.8800, -41.051
1553.9000, -41.054
1553.9200, -41.057
1553.9400, -41.060
1553.9600, -41.056
1553.9800, -41.058
1554.0000, -41.061
1554.0200, -41.067
1554.0400, -41.073
1554.0600, -41.078
1554.0800, -41.083
1554.1000, -41.084
1554.1200, -41.080
1554.1400, -41.089
1554.1600, -41.098
1554.1800, -41.097
1554.2000, -41.100
1554.2200, -41.104
1554.2400, -41.102
1554.2600, -41.104
1554.2800, -41.105
1554.3000, -41.101
1554.3200, -41.097
1554.3400, -41.107
1554.3600, -41.105
1554.3800, -41.102
1554.4000, -41.103
1554.4200, -41.101
1554.4400, -41.105
1554.4600, -41.106
1554.4800, -41.106
1554.5000, -41.108
1554.5200, -41.108
1554.5400, -41.107
1554.5600, -41.115
1554.5800, -41.115
1554.6000, -41.118
1554.6200, -41.123
1554.6400, -41.122
1554.6600, -41.121
1554.6800, -41.129
1554.7000, -41.134
1554.7200, -41.140
1554.7400, -41.138
1554.7600, -41.134
1554.7800, -41.136
1554.8000, -41.137
1554.8200, -41.143
1554.8400, -41.145
1554.8600, -41.148
1554.8800, -41.152
1554.9000, -41.149
1554.9200, -41.161
1554.9400, -41.163
1554.9600, -41.162
1554.9800, -41.165
1555.0000, -41.161
1555.0200, -41.166
1555.0400, -41.163
1555.0600, -41.167
1555.0800, -41.166
1555.1000, -41.168
1555.1200, -41.170
1555.1400, -41.168
1555.1600, -41.174
1555.1800, -41.177
1555.2000, -41.178
1555.2200, -41.184
1555.2400, -41.185
1555.2600, -41.184
1555.2800, -41.193
1555.3000, -41.204
1555.3200, -41.202
1555.3400, -41.205
1555.3600, -41.198
1555.3800, -41.202
1555.4000, -41.203
1555.4200, -41.208
1555.4400, -41.213
1555.4600, -41.214
1555.4800, -41.217
1555.5000, -41.221
1555.5200, -41.225
1555.5400, -41.230
1555.5600, -41.229
1555.5800, -41.236
1555.6000, -41.235
1555.6200, -41.246
1555.6400, -41.245
1555.6600, -41.245
1555.6800, -41.253
1555.7000, -41.250
1555.7200, -41.254
1555.7400, -41.254
1555.7600, -41.254
1555.7800, -41.253
1555.8000, -41.260
1555.8200, -41.264
1555.8400, -41.266
1555.8600, -41.269
1555.8800, -41.273
1555.9000, -41.269
1555.9200, -41.274
1555.9400, -41.277
1555.9600, -41.285
1555.9800, -41.289
1556.0000, -41.293
1556.0200, -41.291
1556.0400, -41.302
1556.0600, -41.301
1556.0800, -41.305
1556.1000, -41.304
1556.1200, -41.311
1556.1400, -41.314
1556.1600, -41.315
1556.1800, -41.318
1556.2000, -41.321
1556.2200, -41.328
1556.2400, -41.326
1556.2600, -41.326
1556.2800, -41.322
1556.3000, -41.327
1556.3200, -41.330
1556.3400, -41.333
1556.3600, -41.335
1556.3800, -41.338
1556.4000, -41.342
1556.4200, -41.343
1556.4400, -41.343
1556.4600, -41.343
1556.4800, -41.347
1556.5000, -41.352
1556.5200, -41.352
1556.5400, -41.353
1556.5600, -41.358
1556.5800, -41.356
1556.6000, -41.360
1556.6200, -41.364
1556.6400, -41.371
1556.6600, -41.372
1556.6800, -41.378
1556.7000, -41.385
1556.7200, -41.386
1556.7400, -41.391
1556.7600, -41.393
1556.7800, -41.396
1556.8000, -41.398
1556.8200, -41.403
1556.8400, -41.406
1556.8600, -41.408
1556.8800, -41.415
1556.9000, -41.415
1556.9200, -41.414
1556.9400, -41.423
1556.9600, -41.420
1556.9800, -41.425
1557.0000, -41.432
1557.0200, -41.434
1557.0400, -41.430
1557.0600, -41.433
1557.0800, -41.434
1557.1000, -41.439
1557.1200, -41.439
1557.1400, -41.440
1557.1600, -41.449
1557.1800, -41.444
1557.2000, -41.454
1557.2200, -41.464
1557.2400, -41.469
1557.2600, -41.475
1557.2800, -41.481
1557.3000, -41.487
1557.3200, -41.490
1557.3400, -41.491
1557.3600, -41.497
1557.3800, -41.501
1557.4000, -41.511
1557.4200, -41.517
1557.4400, -41.518
1557.4600, -41.529
1557.4800, -41.531
1557.5000, -41.540
1557.5200, -41.544
1557.5400, -41.550
1557.5600, -41.553
1557.5800, -41.557
1557.6000, -41.563
1557.6200, -41.566
1557.6400, -41.571
1557.6600, -41.577
1557.6800, -41.576
1557.7000, -41.585
1557.7200, -41.590
1557.7400, -41.597
1557.7600, -41.605
1557.7800, -41.607
1557.8000, -41.608
1557.8200, -41.614
1557.8400, -41.606
1557.8600, -41.615
1557.8800, -41.613
1557.9000, -41.619
1557.9200, -41.620
1557.9400, -41.619
1557.9600, -41.629
1557.9800, -41.634
1558.0000, -41.645
1558.0200, -41.647
1558.0400, -41.652
1558.0600, -41.656
1558.0800, -41.666
1558.1000, -41.673
1558.1200, -41.683
1558.1400, -41.689
1558.1600, -41.695
1558.1800, -41.700
1558.2000, -41.704
1558.2200, -41.707
1558.2400, -41.707
1558.2600, -41.710
1558.2800, -41.717
1558.3000, -41.722
1558.3200, -41.729
1558.3400, -41.738
1558.3600, -41.743
1558.3800, -41.752
1558.4000, -41.757
1558.4200, -41.763
1558.4400, -41.764
1558.4600, -41.770
1558.4800, -41.775
1558.5000, -41.782
1558.5200, -41.787
1558.5400, -41.790
1558.5600, -41.796
1558.5800, -41.799
1558.6000, -41.808
1558.6200, -41.813
1558.6400, -41.820
1558.6600, -41.831
1558.6800, -41.835
1558.7000, -41.843
1558.7200, -41.848
1558.7400, -41.853
1558.7600, -41.856
1558.7800, -41.866
1558.8000, -41.873
1558.8200, -41.874
1558.8400, -41.887
1558.8600, -41.891
1558.8800, -41.902
1558.9000, -41.902
1558.9200, -41.910
1558.9400, -41.919
1558.9600, -41.927
1558.9800, -41.940
1559.0000, -41.949
1559.0200, -41.959
1559.0400, -41.968
1559.0600, -41.978
1559.0800, -41.983
1559.1000, -41.989
1559.1200, -41.991
1559.1400, -42.006
1559.1600, -42.016
1559.1800, -42.030
1559.2000, -42.035
1559.2200, -42.043
1559.2400, -42.050
1559.2600, -42.056
1559.2800, -42.064
1559.3000, -42.071
1559.3200, -42.076
1559.3400, -42.087
1559.3600, -42.097
1559.3800, -42.106
1559.4000, -42.112
1559.4200, -42.120
1559.4400, -42.125
1559.4600, -42.129
1559.4800, -42.140
1559.5000, -42.151
1559.5200, -42.164
1559.5400, -42.180
1559.5600, -42.189
1559.5800, -42.190
1559.6000, -42.206
1559.6200, -42.205
1559.6400, -42.214
1559.6600, -42.224
1559.6800, -42.235
1559.7000, -42.240
1559.7200, -42.246
1559.7400, -42.260
1559.7600, -42.269
1559.7800, -42.281
1559.8000, -42.283
1559.8200, -42.298
1559.8400, -42.297
1559.8600, -42.308
1559.8800, -42.318
1559.9000, -42.328
1559.9200, -42.338
1559.9400, -42.348
1559.9600, -42.355
1559.9800, -42.367
1560.0000, -42.375
1560.0200, -42.385
1560.0400, -42.400
1560.0600, -42.405
1560.0800, -42.417
1560.1000, -42.426
1560.1200, -42.438
1560.1400, -42.441
1560.1600, -42.452
1560.1800, -42.467
1560.2000, -42.477
1560.2200, -42.486
1560.2400, -42.502
1560.2600, -42.515
1560.2800, -42.530
1560.3000, -42.539
1560.3200, -42.550
1560.3400, -42.552
1560.3600, -42.566
1560.3800, -42.574
1560.4000, -42.585
1560.4200, -42.600
1560.4400, -42.608
1560.4600, -42.615
1560.4800, -42.632
1560.5000, -42.639
1560.5200, -42.655
1560.5400, -42.667
1560.5600, -42.681
1560.5800, -42.690
1560.6000, -42.702
1560.6200, -42.715
1560.6400, -42.729
1560.6600, -42.749
1560.6800, -42.760
1560.7000, -42.776
1560.7200, -42.781
1560.7400, -42.789
1560.7600, -42.806
1560.7800, -42.815
1560.8000, -42.825
1560.8200, -42.836
1560.8400, -42.848
1560.8600, -42.858
1560.8800, -42.869
1560.9000, -42.881
1560.9200, -42.891
1560.9400, -42.903
1560.9600, -42.921
1560.9800, -42.927
1561.0000, -42.940
1561.0200, -42.952
1561.0400, -42.964
1561.0600, -42.977
1561.0800, -42.993
1561.1000, -43.002
1561.1200, -43.018
1561.1400, -43.032
1561.1600, -43.047
1561.1800, -43.056
1561.2000, -43.069
1561.2200, -43.076
1561.2400, -43.085
1561.2600, -43.107
1561.2800, -43.121
1561.3000, -43.136
1561.3200, -43.148
1561.3400, -43.162
1561.3600, -43.178
1561.3800, -43.191
1561.4000, -43.206
1561.4200, -43.215
1561.4400, -43.238
1561.4600, -43.252
1561.4800, -43.264
1561.5000, -43.277
1561.5200, -43.292
1561.5400, -43.311
1561.5600, -43.323
1561.5800, -43.335
1561.6000, -43.345
1561.6200, -43.363
1561.6400, -43.371
1561.6600, -43.394
1561.6800, -43.408
1561.7000, -43.425
1561.7200, -43.440
1561.7400, -43.457
1561.7600, -43.469
1561.7800, -43.479
1561.8000, -43.499
1561.8200, -43.509
1561.8400, -43.523
1561.8600, -43.533
1561.8800, -43.550
1561.9000, -43.561
1561.9200, -43.580
1561.9400, -43.596
1561.9600, -43.607
1561.9800, -43.618
1562.0000, -43.633
1562.0200, -43.652
1562.0400, -43.666
1562.0600, -43.683
1562.0800, -43.700
1562.1000, -43.715
1562.1200, -43.728
1562.1400, -43.744
1562.1600, -43.761
1562.1800, -43.778
1562.2000, -43.793
1562.2200, -43.809
1562.2400, -43.828
1562.2600, -43.845
1562.2800, -43.857
1562.3000, -43.874
1562.3200, -43.891
1562.3400, -43.910
1562.3600, -43.922
1562.3800, -43.935
1562.4000, -43.952
1562.4200, -43.972
1562.4400, -43.987
1562.4600, -43.999
1562.4800, -44.021
1562.5000, -44.038
1562.5200, -44.047
1562.5400, -44.069
1562.5600, -44.085
1562.5800, -44.104
1562.6000, -44.120
1562.6200, -44.137
1562.6400, -44.153
1562.6600, -44.168
1562.6800, -44.184
1562.7000, -44.200
1562.7200, -44.219
1562.7400, -44.232
1562.7600, -44.248
1562.7800, -44.267
1562.8000, -44.282
1562.8200, -44.299
1562.8400, -44.318
1562.8600, -44.333
1562.8800, -44.348
1562.9000, -44.367
1562.9200, -44.387
1562.9400, -44.403
1562.9600, -44.419
1562.9800, -44.435
1563.0000, -44.452
1563.0200, -44.471
1563.0400, -44.487
1563.0600, -44.508
1563.0800, -44.526
1563.1000, -44.544
1563.1200, -44.559
1563.1400, -44.581
1563.1600, -44.600
1563.1800, -44.614
1563.2000, -44.631
1563.2200, -44.650
1563.2400, -44.662
1563.2600, -44.677
1563.2800, -44.692
1563.3000, -44.712
1563.3200, -44.731
1563.3400, -44.741
1563.3600, -44.757
1563.3800, -44.777
1563.4000, -44.791
1563.4200, -44.817
1563.4400, -44.839
1563.4600, -44.853
1563.4800, -44.873
1563.5000, -44.889
1563.5200, -44.908
1563.5400, -44.924
1563.5600, -44.940
1563.5800, -44.956
1563.6000, -44.976
1563.6200, -44.992
1563.6400, -45.008
1563.6600, -45.026
1563.6800, -45.051
1563.7000, -45.072
1563.7200, -45.091
1563.7400, -45.103
1563.7600, -45.125
1563.7800, -45.146
1563.8000, -45.163
1563.8200, -45.182
1563.8400, -45.199
1563.8600, -45.217
1563.8800, -45.229
1563.9000, -45.252
1563.9200, -45.274
1563.9400, -45.292
1563.9600, -45.313
1563.9800, -45.331
1564.0000, -45.349
1564.0200, -45.368
1564.0400, -45.379
1564.0600, -45.398
1564.0800, -45.417
1564.1000, -45.436
1564.1200, -45.451
1564.1400, -45.466
1564.1600, -45.490
1564.1800, -45.505
1564.2000, -45.528
1564.2200, -45.540
1564.2400, -45.560
1564.2600, -45.579
1564.2800, -45.597
1564.3000, -45.619
1564.3200, -45.638
1564.3400, -45.656
1564.3600, -45.679
1564.3800, -45.698
1564.4000, -45.715
1564.4200, -45.736
1564.4400, -45.753
1564.4600, -45.775
1564.4800, -45.791
1564.5000, -45.813
1564.5200, -45.835
1564.5400, -45.852
1564.5600, -45.876
1564.5800, -45.896
1564.6000, -45.916
1564.6200, -45.934
1564.6400, -45.956
1564.6600, -45.974
1564.6800, -45.996
1564.7000, -46.012
1564.7200, -46.028
1564.7400, -46.050
1564.7600, -46.068
1564.7800, -46.089
1564.8000, -46.106
1564.8200, -46.130
1564.8400, -46.147
1564.8600, -46.169
1564.8800, -46.183
1564.9000, -46.205
1564.9200, -46.218
1564.9400, -46.239
1564.9600, -46.262
1564.9800, -46.284
1565.0000, -46.300
1565.0200, -46.320
1565.0400, -46.337
1565.0600, -46.364
1565.0800, -46.383
1565.1000, -46.397
1565.1200, -46.418
1565.1400, -46.432
1565.1600, -46.453
1565.1800, -46.482
1565.2000, -46.501
1565.2200, -46.522
1565.2400, -46.542
1565.2600, -46.561
1565.2800, -46.578
1565.3000, -46.596
1565.3200, -46.620
1565.3400, -46.641
1565.3600, -46.661
1565.3800, -46.679
1565.4000, -46.700
1565.4200, -46.718
1565.4400, -46.741
1565.4600, -46.765
1565.4800, -46.782
1565.5000, -46.799
1565.5200, -46.821
1565.5400, -46.841
1565.5600, -46.863
1565.5800, -46.882
1565.6000, -46.898
1565.6200, -46.917
1565.6400, -46.932
1565.6600, -46.952
1565.6800, -46.973
1565.7000, -46.994
1565.7200, -47.016
1565.7400, -47.033
1565.7600, -47.053
1565.7800, -47.079
1565.8000, -47.100
1565.8200, -47.115
1565.8400, -47.131
1565.8600, -47.155
1565.8800, -47.168
1565.9000, -47.189
1565.9200, -47.210
1565.9400, -47.233
1565.9600, -47.252
1565.9800, -47.270
1566.0000, -47.289
1566.0200, -47.318
1566.0400, -47.330
1566.0600, -47.352
1566.0800, -47.377
1566.1000, -47.399
1566.1200, -47.420
1566.1400, -47.437
1566.1600, -47.452
1566.1800, -47.468
1566.2000, -47.494
1566.2200, -47.515
1566.2400, -47.536
1566.2600, -47.557
1566.2800, -47.574
1566.3000, -47.597
1566.3200, -47.615
1566.3400, -47.635
1566.3600, -47.655
1566.3800, -47.669
1566.4000, -47.694
1566.4200, -47.716
1566.4400, -47.738
1566.4600, -47.756
1566.4800, -47.771
1566.5000, -47.797
1566.5200, -47.811
1566.5400, -47.835
1566.5600, -47.856
1566.5800, -47.875
1566.6000, -47.901
1566.6200, -47.913
1566.6400, -47.932
1566.6600, -47.952
1566.6800, -47.974
1566.7000, -47.994
1566.7200, -48.015
1566.7400, -48.038
1566.7600, -48.051
1566.7800, -48.070
1566.8000, -48.094
1566.8200, -48.114
1566.8400, -48.133
1566.8600, -48.149
1566.8800, -48.172
1566.9000, -48.189
1566.9200, -48.211
1566.9400, -48.231
1566.9600, -48.249
1566.9800, -48.272
1567.0000, -48.295
1567.0200, -48.318
1567.0400, -48.335
1567.0600, -48.351
1567.0800, -48.375
1567.1000, -48.390
1567.1200, -48.410
1567.1400, -48.431
1567.1600, -48.452
1567.1800, -48.470
1567.2000, -48.494
1567.2200, -48.510
1567.2400, -48.532
1567.2600, -48.551
1567.2800, -48.570
1567.3000, -48.592
1567.3200, -48.615
1567.3400, -48.635
1567.3600, -48.652
1567.3800, -48.666
1567.4000, -48.692
1567.4200, -48.716
1567.4400, -48.732
1567.4600, -48.748
1567.4800, -48.772
1567.5000, -48.787
1567.5200, -48.810
1567.5400, -48.830
1567.5600, -48.853
1567.5800, -48.869
1567.6000, -48.895
1567.6200, -48.914
1567.6400, -48.929
1567.6600, -48.954
1567.6800, -48.964
1567.7000, -48.994
1567.7200, -49.010
1567.7400, -49.028
1567.7600, -49.051
1567.7800, -49.075
1567.8000, -49.093
1567.8200, -49.110
1567.8400, -49.131
1567.8600, -49.151
1567.8800, -49.172
1567.9000, -49.191
1567.9200, -49.212
1567.9400, -49.227
1567.9600, -49.251
1567.9800, -49.266
1568.0000, -49.283
1568.0200, -49.310
1568.0400, -49.324
1568.0600, -49.343
1568.0800, -49.369
1568.1000, -49.386
1568.1200, -49.408
1568.1400, -49.425
1568.1600, -49.444
1568.1800, -49.468
1568.2000, -49.489
1568.2200, -49.505
1568.2400, -49.521
1568.2600, -49.541
1568.2800, -49.566
1568.3000, -49.587
1568.3200, -49.604
1568.3400, -49.619
1568.3600, -49.643
1568.3800, -49.660
1568.4000, -49.683
1568.4200, -49.704
1568.4400, -49.725
1568.4600, -49.742
1568.4800, -49.763
1568.5000, -49.783
1568.5200, -49.798
1568.5400, -49.821
1568.5600, -49.837
1568.5800, -49.861
1568.6000, -49.875
1568.6200, -49.900
1568.6400, -49.918
1568.6600, -49.936
1568.6800, -49.961
1568.7000, -49.980
1568.7200, -50.001
1568.7400, -50.019
1568.7600, -50.036
1568.7800, -50.055
1568.8000, -50.080
1568.8200, -50.089
1568.8400, -50.115
1568.8600, -50.134
1568.8800, -50.153
1568.9000, -50.173
1568.9200, -50.195
1568.9400, -50.208
1568.9600, -50.233
1568.9800, -50.250
1569.0000, -50.275
1569.0200, -50.293
1569.0400, -50.310
1569.0600, -50.331
1569.0800, -50.351
1569.1000, -50.372
1569.1200, -50.390
1569.1400, -50.411
1569.1600, -50.432
1569.1800, -50.452
1569.2000, -50.468
1569.2200, -50.490
1569.2400, -50.505
1569.2600, -50.524
1569.2800, -50.546
1569.3000, -50.561
1569.3200, -50.580
1569.3400, -50.600
1569.3600, -50.614
1569.3800, -50.638
1569.4000, -50.657
1569.4200, -50.678
1569.4400, -50.691
1569.4600, -50.716
1569.4800, -50.734
1569.5000, -50.749
1569.5200, -50.771
1569.5400, -50.786
1569.5600, -50.809
1569.5800, -50.832
1569.6000, -50.850
1569.6200, -50.870
1569.6400, -50.886
1569.6600, -50.909
1569.6800, -50.928
1569.7000, -50.944
1569.7200, -50.964
1569.7400, -50.978
1569.7600, -51.003
1569.7800, -51.022
1569.8000, -51.039
1569.8200, -51.058
1569.8400, -51.078
1569.8600, -51.093
1569.8800, -51.112
1569.9000, -51.134
1569.9200, -51.153
1569.9400, -51.173
1569.9600, -51.192
1569.9800, -51.207
1570.0000, -51.221
1570.0200, -51.243
1570.0400, -51.261
1570.0600, -51.283
1570.0800, -51.303
1570.1000, -51.320
1570.1200, -51.337
1570.1400, -51.358
1570.1600, -51.373
1570.1800, -51.393
1570.2000, -51.418
1570.2200, -51.439
1570.2400, -51.449
1570.2600, -51.468
1570.2800, -51.486
1570.3000, -51.499
1570.3200, -51.523
1570.3400, -51.537
1570.3600, -51.562
1570.3800, -51.580
1570.4000, -51.599
1570.4200, -51.616
1570.4400, -51.637
1570.4600, -51.652
1570.4800, -51.676
1570.5000, -51.692
1570.5200, -51.716
1570.5400, -51.727
1570.5600, -51.741
1570.5800, -51.765
1570.6000, -51.783
1570.6200, -51.798
1570.6400, -51.821
1570.6600, -51.843
1570.6800, -51.858
1570.7000, -51.875
1570.7200, -51.894
1570.7400, -51.914
1570.7600, -51.935
1570.7800, -51.958
1570.8000, -51.976
1570.8200, -51.995
1570.8400, -52.009
1570.8600, -52.022
1570.8800, -52.046
1570.9000, -52.063
1570.9200, -52.081
1570.9400, -52.097
1570.9600, -52.120
1570.9800, -52.138
1571.0000, -52.146
1571.0200, -52.171
1571.0400, -52.186
1571.0600, -52.209
1571.0800, -52.218
1571.1000, -52.244
1571.1200, -52.256
1571.1400, -52.274
1571.1600, -52.290
1571.1800, -52.306
1571.2000, -52.329
1571.2200, -52.345
1571.2400, -52.362
1571.2600, -52.385
1571.2800, -52.398
1571.3000, -52.419
1571.3200, -52.443
1571.3400, -52.459
1571.3600, -52.479
1571.3800, -52.497
1571.4000, -52.514
1571.4200, -52.527
1571.4400, -52.547
1571.4600, -52.566
1571.4800, -52.582
1571.5000, -52.599
1571.5200, -52.626
1571.5400, -52.635
1571.5600, -52.661
1571.5800, -52.672
1571.6000, -52.694
1571.6200, -52.707
1571.6400, -52.725
1571.6600, -52.745
1571.6800, -52.764
1571.7000, -52.779
1571.7200, -52.797
1571.7400, -52.816
1571.7600, -52.833
1571.7800, -52.845
1571.8000, -52.865
1571.8200, -52.887
1571.8400, -52.897
1571.8600, -52.924
1571.8800, -52.933
1571.9000, -52.957
1571.9200, -52.970
1571.9400, -52.985
1571.9600, -53.005
1571.9800, -53.025
1572.0000, -53.046
1572.0200, -53.057
1572.0400, -53.074
1572.0600, -53.099
1572.0800, -53.103
1572.1000, -53.124
1572.1200, -53.146
1572.1400, -53.161
1572.1600, -53.181
1572.1800, -53.193
1572.2000, -53.214
1572.2200, -53.234
1572.2400, -53.250
1572.2600, -53.269
1572.2800, -53.279
1572.3000, -53.302
1572.3200, -53.314
1572.3400, -53.324
1572.3600, -53.356
1572.3800, -53.353
1572.4000, -53.382
1572.4200, -53.397
1572.4400, -53.408
1572.4600, -53.428
1572.4800, -53.450
1572.5000, -53.466
1572.5200, -53.483
1572.5400, -53.503
1572.5600, -53.519
1572.5800, -53.531
1572.6000, -53.548
1572.6200, -53.568
1572.6400, -53.577
1572.6600, -53.597
1572.6800, -53.607
1572.7000, -53.626
1572.7200, -53.640
1572.7400, -53.650
1572.7600, -53.680
1572.7800, -53.686
1572.8000, -53.705
1572.8200, -53.732
1572.8400, -53.740
1572.8600, -53.753
1572.8800, -53.773
1572.9000, -53.794
1572.9200, -53.812
1572.9400, -53.828
1572.9600, -53.838
1572.9800, -53.849
1573.0000, -53.875
1573.0200, -53.893
1573.0400, -53.908
1573.0600, -53.925
1573.0800, -53.942
1573.1000, -53.957
1573.1200, -53.973
1573.1400, -53.992
1573.1600, -54.000
1573.1800, -54.020
1573.2000, -54.037
1573.2200, -54.051
1573.2400, -54.067
1573.2600, -54.084
1573.2800, -54.097
1573.3000, -54.115
1573.3200, -54.125
1573.3400, -54.149
1573.3600, -54.159
1573.3800, -54.173
1573.4000, -54.199
1573.4200, -54.209
1573.4400, -54.228
1573.4600, -54.233
1573.4800, -54.263
1573.5000, -54.259
1573.5200, -54.286
1573.5400, -54.305
1573.5600, -54.311
1573.5800, -54.341
1573.6000, -54.338
1573.6200, -54.362
1573.6400, -54.377
1573.6600, -54.404
1573.6800, -54.418
1573.7000, -54.420
1573.7200, -54.445
1573.7400, -54.449
1573.7600, -54.475
1573.7800, -54.490
1573.8000, -54.501
1573.8200, -54.506
1573.8400, -54.524
1573.8600, -54.546
1573.8800, -54.558
1573.9000, -54.582
1573.9200, -54.593
1573.9400, -54.612
1573.9600, -54.614
1573.9800, -54.636
1574.0000, -54.652
1574.0200, -54.668
1574.0400, -54.676
1574.0600, -54.690
1574.0800, -54.706
1574.1000, -54.728
1574.1200, -54.740
1574.1400, -54.754
1574.1600, -54.781
1574.1800, -54.777
1574.2000, -54.803
1574.2200, -54.817
1574.2400, -54.833
1574.2600, -54.842
1574.2800, -54.858
1574.3000, -54.873
1574.3200, -54.887
1574.3400, -54.901
1574.3600, -54.919
1574.3800, -54.934
1574.4000, -54.945
1574.4200, -54.951
1574.4400, -54.978
1574.4600, -54.988
1574.4800, -55.003
1574.5000, -55.022
1574.5200, -55.034
1574.5400, -55.051
1574.5600, -55.061
1574.5800, -55.081
1574.6000, -55.094
1574.6200, -55.111
1574.6400, -55.118
1574.6600, -55.140
1574.6800, -55.142
1574.7000, -55.167
1574.7200, -55.175
1574.7400, -55.193
1574.7600, -55.209
1574.7800, -55.214
1574.8000, -55.243
1574.8200, -55.252
1574.8400, -55.265
1574.8600, -55.280
1574.8800, -55.300
1574.9000, -55.300
1574.9200, -55.322
1574.9400, -55.341
1574.9600, -55.356
1574.9800, -55.361
1575.0000, -55.383
1575.0200, -55.397
1575.0400, -55.399
1575.0600, -55.413
1575.0800, -55.444
1575.1000, -55.451
1575.1200, -55.462
1575.1400, -55.470
1575.1600, -55.492
1575.1800, -55.501
1575.2000, -55.523
1575.2200, -55.532
1575.2400, -55.558
1575.2600, -55.565
1575.2800, -55.566
1575.3000, -55.591
1575.3200, -55.607
1575.3400, -55.625
1575.3600, -55.628
1575.3800, -55.652
1575.4000, -55.650
1575.4200, -55.661
1575.4400, -55.684
1575.4600, -55.698
1575.4800, -55.705
1575.5000, -55.725
1575.5200, -55.724
1575.5400, -55.745
1575.5600, -55.772
1575.5800, -55.771
1575.6000, -55.785
1575.6200, -55.802
1575.6400, -55.816
1575.6600, -55.826
1575.6800, -55.840
1575.7000, -55.853
1575.7200, -55.869
1575.7400, -55.878
1575.7600, -55.898
1575.7800, -55.906
1575.8000, -55.924
1575.8200, -55.924
1575.8400, -55.949
1575.8600, -55.958
1575.8800, -55.980
1575.9000, -55.989
1575.9200, -55.999
1575.9400, -56.012
1575.9600, -56.023
1575.9800, -56.038
1576.0000, -56.057
1576.0200, -56.053
1576.0400, -56.073
1576.0600, -56.100
1576.0800, -56.103
1576.1000, -56.114
1576.1200, -56.122
1576.1400, -56.132
1576.1600, -56.151
1576.1800, -56.159
1576.2000, -56.182
1576.2200, -56.198
1576.2400, -56.200
1576.2600, -56.214
1576.2800, -56.231
1576.3000, -56.239
1576.3200, -56.246
1576.3400, -56.261
1576.3600, -56.258
1576.3800, -56.283
1576.4000, -56.293
1576.4200, -56.307
1576.4400, -56.332
1576.4600, -56.327
1576.4800, -56.345
1576.5000, -56.364
1576.5200, -56.355
1576.5400, -56.377
1576.5600, -56.387
1576.5800, -56.405
1576.6000, -56.408
1576.6200, -56.417
1576.6400, -56.447
1576.6600, -56.444
1576.6800, -56.459
1576.7000, -56.471
1576.7200, -56.485
1576.7400, -56.499
1576.7600, -56.503
1576.7800, -56.525
1576.8000, -56.540
1576.8200, -56.550
1576.8400, -56.556
1576.8600, -56.565
1576.8800, -56.588
1576.9000, -56.596
1576.9200, -56.609
1576.9400, -56.623
1576.9600, -56.611
1576.9800, -56.646
1577.0000, -56.659
1577.0200, -56.665
1577.0400, -56.663
1577.0600, -56.682
1577.0800, -56.695
1577.1000, -56.699
1577.1200, -56.730
1577.1400, -56.735
1577.1600, -56.735
1577.1800, -56.744
1577.2000, -56.764
1577.2200, -56.765
1577.2400, -56.777
1577.2600, -56.814
1577.2800, -56.799
1577.3000, -56.816
1577.3200, -56.827
1577.3400, -56.850
1577.3600, -56.857
1577.3800, -56.854
1577.4000, -56.876
1577.4200, -56.883
1577.4400, -56.887
1577.4600, -56.925
1577.4800, -56.921
1577.5000, -56.922
1577.5200, -56.937
1577.5400, -56.954
1577.5600, -56.990
1577.5800, -56.982
1577.6000, -56.985
1577.6200, -56.983
1577.6400, -57.023
1577.6600, -57.018
1577.6800, -57.042
1577.7000, -57.030
1577.7200, -57.059
1577.7400, -57.053
1577.7600, -57.068
1577.7800, -57.079
1577.8000, -57.102
1577.8200, -57.104
1577.8400, -57.131
1577.8600, -57.128
1577.8800, -57.121
1577.9000, -57.148
1577.9200, -57.154
1577.9400, -57.188
1577.9600, -57.175
1577.9800, -57.176
1578.0000, -57.211
1578.0200, -57.210
1578.0400, -57.216
1578.0600, -57.241
1578.0800, -57.226
1578.1000, -57.256
1578.1200, -57.270
1578.1400, -57.269
1578.1600, -57.283
1578.1800, -57.299
1578.2000, -57.306
1578.2200, -57.315
1578.2400, -57.326
1578.2600, -57.340
1578.2800, -57.355
1578.3000, -57.356
1578.3200, -57.373
1578.3400, -57.387
1578.3600, -57.387
1578.3800, -57.399
1578.4000, -57.402
1578.4200, -57.427
1578.4400, -57.415
1578.4600, -57.443
1578.4800, -57.457
1578.5000, -57.451
1578.5200, -57.469
1578.5400, -57.484
1578.5600, -57.494
1578.5800, -57.500
1578.6000, -57.511
1578.6200, -57.520
1578.6400, -57.535
1578.6600, -57.554
1578.6800, -57.542
1578.7000, -57.557
1578.7200, -57.572
1578.7400, -57.552
1578.7600, -57.583
1578.7800, -57.608
1578.8000, -57.602
1578.8200, -57.619
1578.8400, -57.615
1578.8600, -57.651
1578.8800, -57.643
1578.9000, -57.668
1578.9200, -57.654
1578.9400, -57.676
1578.9600, -57.693
1578.9800, -57.692
1579.0000, -57.721
1579.0200, -57.716
1579.0400, -57.737
1579.0600, -57.736
1579.0800, -57.752
1579.1000, -57.755
1579.1200, -57.769
1579.1400, -57.787
1579.1600, -57.783
1579.1800, -57.782
1579.2000, -57.806
1579.2200, -57.815
1579.2400, -57.823
1579.2600, -57.841
1579.2800, -57.843
1579.3000, -57.875
1579.3200, -57.851
1579.3400, -57.874
1579.3600, -57.887
1579.3800, -57.877
1579.4000, -57.906
1579.4200, -57.899
1579.4400, -57.916
1579.4600, -57.938
1579.4800, -57.932
1579.5000, -57.953
1579.5200, -57.956
1579.5400, -57.971
1579.5600, -57.974
1579.5800, -57.980
1579.6000, -57.996
1579.6200, -57.997
1579.6400, -58.010
1579.6600, -58.011
1579.6800, -58.052
1579.7000, -58.044
1579.7200, -58.047
1579.7400, -58.056
1579.7600, -58.060
1579.7800, -58.076
1579.8000, -58.088
1579.8200, -58.096
1579.8400, -58.093
1579.8600, -58.108
1579.8800, -58.102
1579.9000, -58.122
1579.9200, -58.140
1579.9400, -58.146
1579.9600, -58.170
1579.9800, -58.160
1580.0000, -58.176
1580.0200, -58.172
1580.0400, -58.161
1580.0600, -58.192
1580.0800, -58.213
1580.1000, -58.193
1580.1200, -58.237
1580.1400, -58.236
1580.1600, -58.230
1580.1800, -58.247
1580.2000, -58.253
1580.2200, -58.265
1580.2400, -58.270
1580.2600, -58.299
1580.2800, -58.271
1580.3000, -58.305
1580.3200, -58.309
1580.3400, -58.300
1580.3600, -58.322
1580.3800, -58.302
1580.4000, -58.360
1580.4200, -58.336
1580.4400, -58.352
1580.4600, -58.349
1580.4800, -58.371
1580.5000, -58.370
1580.5200, -58.402
1580.5400, -58.393
1580.5600, -58.404
1580.5800, -58.426
1580.6000, -58.409
1580.6200, -58.442
1580.6400, -58.432
1580.6600, -58.443
1580.6800, -58.461
1580.7000, -58.452
1580.7200, -58.468
1580.7400, -58.466
1580.7600, -58.483
1580.7800, -58.501
1580.8000, -58.509
1580.8200, -58.504
1580.8400, -58.516
1580.8600, -58.530
1580.8800, -58.546
1580.9000, -58.537
1580.9200, -58.549
1580.9400, -58.559
1580.9600, -58.550
1580.9800, -58.592
1581.0000, -58.572
1581.0200, -58.583
1581.0400, -58.609
1581.0600, -58.599
1581.0800, -58.615
1581.1000, -58.636
1581.1200, -58.621
1581.1400, -58.638
1581.1600, -58.645
1581.1800, -58.659
1581.2000, -58.652
1581.2200, -58.672
1581.2400, -58.668
1581.2600, -58.692
1581.2800, -58.708
1581.3000, -58.716
1581.3200, -58.705
1581.3400, -58.713
1581.3600, -58.700
1581.3800, -58.745
1581.4000, -58.745
1581.4200, -58.723
1581.4400, -58.771
1581.4600, -58.738
1581.4800, -58.763
1581.5000, -58.777
1581.5200, -58.775
1581.5400, -58.776
1581.5600, -58.799
1581.5800, -58.797
1581.6000, -58.820
1581.6200, -58.801
1581.6400, -58.841
1581.6600, -58.849
1581.6800, -58.848
1581.7000, -58.840
1581.7200, -58.860
1581.7400, -58.849
1581.7600, -58.863
1581.7800, -58.875
1581.8000, -58.878
1581.8200, -58.890
1581.8400, -58.901
1581.8600, -58.906
1581.8800, -58.948
1581.9000, -58.911
1581.9200, -58.934
1581.9400, -58.932
1581.9600, -58.946
1581.9800, -58.944
1582.0000, -58.962
1582.0200, -58.967
1582.0400, -58.968
1582.0600, -58.970
1582.0800, -59.009
1582.1000, -58.991
1582.1200, -58.993
1582.1400, -59.014
1582.1600, -59.014
1582.1800, -59.006
1582.2000, -59.047
1582.2200, -59.032
1582.2400, -59.035
1582.2600, -59.068
1582.2800, -59.057
1582.3000, -59.050
1582.3200, -59.078
1582.3400, -59.077
1582.3600, -59.070
1582.3800, -59.104
1582.4000, -59.082
1582.4200, -59.119
1582.4400, -59.134
1582.4600, -59.105
1582.4800, -59.137
1582.5000, -59.096
1582.5200, -59.144
1582.5400, -59.134
1582.5600, -59.160
1582.5800, -59.186
1582.6000, -59.154
1582.6200, -59.173
1582.6400, -59.197
1582.6600, -59.171
1582.6800, -59.195
1582.7000, -59.214
1582.7200, -59.207
1582.7400, -59.228
1582.7600, -59.218
1582.7800, -59.246
1582.8000, -59.236
1582.8200, -59.241
1582.8400, -59.258
1582.8600, -59.248
1582.8800, -59.274
1582.9000, -59.264
1582.9200, -59.283
1582.9400, -59.302
1582.9600, -59.272
1582.9800, -59.292
1583.0000, -59.303
1583.0200, -59.320
1583.0400, -59.353
1583.0600, -59.285
1583.0800, -59.338
1583.1000, -59.360
1583.1200, -59.329
1583.1400, -59.359
1583.1600, -59.360
1583.1800, -59.386
1583.2000, -59.354
1583.2200, -59.380
1583.2400, -59.387
1583.2600, -59.381
1583.2800, -59.412
1583.3000, -59.409
1583.3200, -59.392
1583.3400, -59.406
1583.3600, -59.425
1583.3800, -59.430
1583.4000, -59.438
1583.4200, -59.456
1583.4400, -59.447
1583.4600, -59.467
1583.4800, -59.468
1583.5000, -59.474
1583.5200, -59.459
1583.5400, -59.477
1583.5600, -59.491
1583.5800, -59.509
1583.6000, -59.499
1583.6200, -59.520
1583.6400, -59.510
1583.6600, -59.523
1583.6800, -59.525
1583.7000, -59.543
1583.7200, -59.540
1583.7400, -59.540
1583.7600, -59.544
1583.7800, -59.568
1583.8000, -59.580
1583.8200, -59.567
1583.8400, -59.582
1583.8600, -59.596
1583.8800, -59.601
1583.9000, -59.593
1583.9200, -59.594
1583.9400, -59.612
1583.9600, -59.594
1583.9800, -59.629
1584.0000, -59.627
1584.0200, -59.616
1584.0400, -59.639
1584.0600, -59.641
1584.0800, -59.667
1584.1000, -59.645
1584.1200, -59.662
1584.1400, -59.645
1584.1600, -59.678
1584.1800, -59.688
1584.2000, -59.660
1584.2200, -59.689
1584.2400, -59.696
1584.2600, -59.705
1584.2800, -59.730
1584.3000, -59.696
1584.3200, -59.733
1584.3400, -59.721
1584.3600, -59.737
1584.3800, -59.735
1584.4000, -59.748
1584.4200, -59.760
1584.4400, -59.743
1584.4600, -59.765
1584.4800, -59.739
1584.5000, -59.785
1584.5200, -59.761
1584.5400, -59.794
1584.5600, -59.782
1584.5800, -59.814
1584.6000, -59.788
1584.6200, -59.805
1584.6400, -59.827
1584.6600, -59.842
1584.6800, -59.796
1584.7000, -59.852
1584.7200, -59.857
1584.7400, -59.821
1584.7600, -59.843
1584.7800, -59.850
1584.8000, -59.865
1584.8200, -59.851
1584.8400, -59.873
1584.8600, -59.895
1584.8800, -59.878
1584.9000, -59.878
1584.9200, -59.907
1584.9400, -59.891
1584.9600, -59.921
1584.9800, -59.896
1585.0000, -59.913
1585.0200, -59.900
1585.0400, -59.915
1585.0600, -59.958
1585.0800, -59.934
1585.1000, -59.947
1585.1200, -59.919
1585.1400, -59.960
1585.1600, -59.942
1585.1800, -59.974
1585.2000, -59.942
1585.2200, -59.966
1585.2400, -59.999
1585.2600, -59.980
1585.2800, -59.983
1585.3000, -60.006
1585.3200, -60.012
1585.3400, -60.004
1585.3600, -59.982
1585.3800, -60.003
1585.4000, -60.053
1585.4200, -60.028
1585.4400, -60.034
1585.4600, -60.028
1585.4800, -60.057
1585.5000, -60.052
1585.5200, -60.043
1585.5400, -60.065
1585.5600, -60.067
1585.5800, -60.094
1585.6000, -60.072
1585.6200, -60.064
1585.6400, -60.051
1585.6600, -60.105
1585.6800, -60.096
1585.7000, -60.107
1585.7200, -60.092
1585.7400, -60.115
1585.7600, -60.106
1585.7800, -60.125
1585.8000, -60.123
1585.8200, -60.146
1585.8400, -60.119
1585.8600, -60.150
1585.8800, -60.144
1585.9000, -60.169
1585.9200, -60.159
1585.9400, -60.163
1585.9600, -60.191
1585.9800, -60.175
1586.0000, -60.172
1586.0200, -60.151
1586.0400, -60.194
1586.0600, -60.182
1586.0800, -60.194
1586.1000, -60.218
1586.1200, -60.202
1586.1400, -60.211
1586.1600, -60.219
1586.1800, -60.255
1586.2000, -60.248
1586.2200, -60.244
1586.2400, -60.193
1586.2600, -60.278
1586.2800, -60.248
1586.3000, -60.257
1586.3200, -60.236
1586.3400, -60.275
1586.3600, -60.262
1586.3800, -60.267
1586.4000, -60.256
1586.4200, -60.286
1586.4400, -60.257
1586.4600, -60.311
1586.4800, -60.298
1586.5000, -60.348
1586.5200, -60.307
1586.5400, -60.300
1586.5600, -60.301
1586.5800, -60.351
1586.6000, -60.326
1586.6200, -60.327
1586.6400, -60.353
1586.6600, -60.331
1586.6800, -60.357
1586.7000, -60.362
1586.7200, -60.338
1586.7400, -60.369
1586.7600, -60.354
1586.7800, -60.406
1586.8000, -60.395
1586.8200, -60.360
1586.8400, -60.417
1586.8600, -60.407
1586.8800, -60.408
1586.9000, -60.406
1586.9200, -60.393
1586.9400, -60.396
1586.9600, -60.456
1586.9800, -60.418
1587.0000, -60.447
1587.0200, -60.447
1587.0400, -60.429
1587.0600, -60.446
1587.0800, -60.453
1587.1000, -60.474
1587.1200, -60.450
1587.1400, -60.448
1587.1600, -60.473
1587.1800, -60.472
1587.2000, -60.519
1587.2200, -60.476
1587.2400, -60.495
1587.2600, -60.476
1587.2800, -60.500
1587.3000, -60.519
1587.3200, -60.527
1587.3400, -60.488
1587.3600, -60.525
1587.3800, -60.531
1587.4000, -60.515
1587.4200, -60.525
1587.4400, -60.527
1587.4600, -60.545
1587.4800, -60.563
1587.5000, -60.533
1587.5200, -60.560
1587.5400, -60.553
1587.5600, -60.562
1587.5800, -60.571
1587.6000, -60.590
1587.6200, -60.574
1587.6400, -60.574
1587.6600, -60.585
1587.6800, -60.613
1587.7000, -60.588
1587.7200, -60.601
1587.7400, -60.614
1587.7600, -60.627
1587.7800, -60.652
1587.8000, -60.624
1587.8200, -60.630
1587.8400, -60.654
1587.8600, -60.675
1587.8800, -60.658
1587.9000, -60.659
1587.9200, -60.648
1587.9400, -60.670
1587.9600, -60.739
1587.9800, -60.678
1588.0000, -60.640
1588.0200, -60.682
1588.0400, -60.675
1588.0600, -60.710
1588.0800, -60.707
1588.1000, -60.697
1588.1200, -60.697
1588.1400, -60.717
1588.1600, -60.730
1588.1800, -60.730
1588.2000, -60.737
1588.2200, -60.688
1588.2400, -60.723
1588.2600, -60.731
1588.2800, -60.751
1588.3000, -60.730
1588.3200, -60.741
1588.3400, -60.749
1588.3600, -60.747
1588.3800, -60.769
1588.4000, -60.774
1588.4200, -60.751
1588.4400, -60.790
1588.4600, -60.781
1588.4800, -60.815
1588.5000, -60.801
1588.5200, -60.793
1588.5400, -60.762
1588.5600, -60.793
1588.5800, -60.805
1588.6000, -60.820
1588.6200, -60.805
1588.6400, -60.842
1588.6600, -60.810
1588.6800, -60.834
1588.7000, -60.875
1588.7200, -60.831
1588.7400, -60.873
1588.7600, -60.870
1588.7800, -60.842
1588.8000, -60.847
1588.8200, -60.846
1588.8400, -60.874
1588.8600, -60.883
1588.8800, -60.868
1588.9000, -60.889
1588.9200, -60.869
1588.9400, -60.886
1588.9600, -60.881
1588.9800, -60.945
1589.0000, -60.911
1589.0200, -60.928
1589.0400, -60.883
1589.0600, -60.937
1589.0800, -60.924
1589.1000, -60.911
1589.1200, -60.924
1589.1400, -60.942
1589.1600, -60.957
1589.1800, -60.928
1589.2000, -60.953
1589.2200, -60.935
1589.2400, -60.951
1589.2600, -60.950
1589.2800, -60.988
1589.3000, -60.953
1589.3200, -60.992
1589.3400, -60.944
1589.3600, -61.004
1589.3800, -60.977
1589.4000, -60.999
1589.4200, -60.986
1589.4400, -61.012
1589.4600, -60.993
1589.4800, -61.037
1589.5000, -60.993
1589.5200, -61.048
1589.5400, -60.991
1589.5600, -61.074
1589.5800, -61.039
1589.6000, -61.042
1589.6200, -61.024
1589.6400, -61.039
1589.6600, -61.082
1589.6800, -61.068
1589.7000, -61.028
1589.7200, -61.027
1589.7400, -61.070
1589.7600, -61.107
1589.7800, -61.061
1589.8000, -61.073
1589.8200, -61.094
1589.8400, -61.105
1589.8600, -61.040
1589.8800, -61.076
1589.9000, -61.133
1589.9200, -61.101
1589.9400, -61.090
1589.9600, -61.094
1589.9800, -61.112
1590.0000, -61.105
1590.0200, -61.131
1590.0400, -61.175
1590.0600, -61.159
1590.0800, -61.098
1590.1000, -61.129
1590.1200, -61.175
1590.1400, -61.145
1590.1600, -61.187
1590.1800, -61.114
1590.2000, -61.157
1590.2200, -61.163
1590.2400, -61.201
1590.2600, -61.153
1590.2800, -61.174
1590.3000, -61.216
1590.3200, -61.165
1590.3400, -61.191
1590.3600, -61.198
1590.3800, -61.198
1590.4000, -61.263
1590.4200, -61.202
1590.4400, -61.230
1590.4600, -61.196
1590.4800, -61.212
1590.5000, -61.225
1590.5200, -61.254
1590.5400, -61.266
1590.5600, -61.232
1590.5800, -61.253
1590.6000, -61.227
1590.6200, -61.220
1590.6400, -61.316
1590.6600, -61.233
1590.6800, -61.258
1590.7000, -61.288
1590.7200, -61.285
1590.7400, -61.335
1590.7600, -61.280
1590.7800, -61.263
1590.8000, -61.306
1590.8200, -61.285
1590.8400, -61.306
1590.8600, -61.301
1590.8800, -61.348
1590.9000, -61.280
1590.9200, -61.367
1590.9400, -61.282
1590.9600, -61.371
1590.9800, -61.300
1591.0000, -61.371
1591.0200, -61.366
1591.0400, -61.380
1591.0600, -61.339
1591.0800, -61.366
1591.1000, -61.380
1591.1200, -61.367
1591.1400, -61.367
1591.1600, -61.408
1591.1800, -61.419
1591.2000, -61.384
1591.2200, -61.384
1591.2400, -61.375
1591.2600, -61.419
1591.2800, -61.405
1591.3000, -61.406
1591.3200, -61.424
1591.3400, -61.439
1591.3600, -61.409
1591.3800, -61.436
1591.4000, -61.468
1591.4200, -61.415
1591.4400, -61.477
1591.4600, -61.444
1591.4800, -61.429
1591.5000, -61.469
1591.5200, -61.450
1591.5400, -61.428
1591.5600, -61.453
1591.5800, -61.482
1591.6000, -61.487
1591.6200, -61.482
1591.6400, -61.469
1591.6600, -61.482
1591.6800, -61.496
1591.7000, -61.523
1591.7200, -61.504
1591.7400, -61.500
1591.7600, -61.514
1591.7800, -61.526
1591.8000, -61.528
1591.8200, -61.517
1591.8400, -61.524
1591.8600, -61.558
1591.8800, -61.526
1591.9000, -61.559
1591.9200, -61.523
1591.9400, -61.557
1591.9600, -61.571
1591.9800, -61.556
1592.0000, -61.544
1592.0200, -61.563
1592.0400, -61.579
1592.0600, -61.587
1592.0800, -61.620
1592.1000, -61.602
1592.1200, -61.563
1592.1400, -61.572
1592.1600, -61.572
1592.1800, -61.614
1592.2000, -61.623
1592.2200, -61.630
1592.2400, -61.613
1592.2600, -61.635
1592.2800, -61.654
1592.3000, -61.631
1592.3200, -61.636
1592.3400, -61.694
1592.3600, -61.620
1592.3800, -61.651
1592.4000, -61.628
1592.4200, -61.657
1592.4400, -61.638
1592.4600, -61.660
1592.4800, -61.715
1592.5000, -61.663
1592.5200, -61.662
1592.5400, -61.687
1592.5600, -61.691
1592.5800, -61.716
1592.6000, -61.695
1592.6200, -61.710
1592.6400, -61.688
1592.6600, -61.691
1592.6800, -61.751
1592.7000, -61.717
1592.7200, -61.730
1592.7400, -61.729
1592.7600, -61.728
1592.7800, -61.778
1592.8000, -61.718
1592.8200, -61.740
1592.8400, -61.754
1592.8600, -61.721
1592.8800, -61.694
1592.9000, -61.787
1592.9200, -61.757
1592.9400, -61.745
1592.9600, -61.748
1592.9800, -61.781
1593.0000, -61.776
1593.0200, -61.784
1593.0400, -61.776
1593.0600, -61.798
1593.0800, -61.758
1593.1000, -61.775
1593.1200, -61.784
1593.1400, -61.807
1593.1600, -61.834
1593.1800, -61.814
1593.2000, -61.806
1593.2200, -61.841
1593.2400, -61.820
1593.2600, -61.825
1593.2800, -61.859
1593.3000, -61.854
1593.3200, -61.845
1593.3400, -61.821
1593.3600, -61.814
1593.3800, -61.831
1593.4000, -61.857
1593.4200, -61.895
1593.4400, -61.848
1593.4600, -61.850
1593.4800, -61.844
1593.5000, -61.887
1593.5200, -61.863
1593.5400, -61.913
1593.5600, -61.863
1593.5800, -61.878
1593.6000, -61.925
1593.6200, -61.901
1593.6400, -61.891
1593.6600, -61.926
1593.6800, -61.895
1593.7000, -61.898
1593.7200, -61.937
1593.7400, -61.943
1593.7600, -61.931
1593.7800, -61.907
1593.8000, -61.999
1593.8200, -61.870
1593.8400, -61.979
1593.8600, -61.935
1593.8800, -61.950
1593.9000, -61.955
1593.9200, -62.014
1593.9400, -61.967
1593.9600, -61.941
1593.9800, -61.959
1594.0000, -61.956
1594.0200, -62.019
1594.0400, -61.975
1594.0600, -62.046
1594.0800, -61.978
1594.1000, -61.994
1594.1200, -61.970
1594.1400, -62.006
1594.1600, -62.007
1594.1800, -62.023
1594.2000, -62.001
1594.2200, -62.073
1594.2400, -62.020
1594.2600, -61.998
1594.2800, -62.031
1594.3000, -62.044
1594.3200, -62.042
1594.3400, -62.095
1594.3600, -62.043
1594.3800, -62.057
1594.4000, -62.075
1594.4200, -62.049
1594.4400, -62.079
1594.4600, -62.082
1594.4800, -62.089
1594.5000, -62.056
1594.5200, -62.099
1594.5400, -62.129
1594.5600, -62.103
1594.5800, -62.148
1594.6000, -62.099
1594.6200, -62.090
1594.6400, -62.061
1594.6600, -62.138
1594.6800, -62.172
1594.7000, -62.131
1594.7200, -62.132
1594.7400, -62.157
1594.7600, -62.075
1594.7800, -62.133
1594.8000, -62.122
1594.8200, -62.152
1594.8400, -62.161
1594.8600, -62.121
1594.8800, -62.142
1594.9000, -62.187
1594.9200, -62.165
1594.9400, -62.184
1594.9600, -62.203
1594.9800, -62.201
1595.0000, -62.193
1595.0200, -62.190
1595.0400, -62.238
1595.0600, -62.192
1595.0800, -62.232
1595.1000, -62.207
1595.1200, -62.217
1595.1400, -62.188
1595.1600, -62.250
1595.1800, -62.217
1595.2000, -62.260
1595.2200, -62.285
1595.2400, -62.174
1595.2600, -62.298
1595.2800, -62.215
1595.3000, -62.297
1595.3200, -62.196
1595.3400, -62.279
1595.3600, -62.247
1595.3800, -62.301
1595.4000, -62.240
1595.4200, -62.275
1595.4400, -62.280
1595.4600, -62.252
1595.4800, -62.290
1595.5000, -62.260
1595.5200, -62.286
1595.5400, -62.308
1595.5600, -62.295
1595.5800, -62.305
1595.6000, -62.315
1595.6200, -62.333
1595.6400, -62.330
1595.6600, -62.344
1595.6800, -62.304
1595.7000, -62.313
1595.7200, -62.333
1595.7400, -62.372
1595.7600, -62.347
1595.7800, -62.325
1595.8000, -62.363
1595.8200, -62.371
1595.8400, -62.399
1595.8600, -62.353
1595.8800, -62.357
1595.9000, -62.384
1595.9200, -62.379
1595.9400, -62.396
1595.9600, -62.381
1595.9800, -62.417
1596.0000, -62.386
1596.0200, -62.469
1596.0400, -62.387
1596.0600, -62.446
1596.0800, -62.401
1596.1000, -62.422
1596.1200, -62.452
1596.1400, -62.380
1596.1600, -62.438
1596.1800, -62.532
1596.2000, -62.357
1596.2200, -62.449
1596.2400, -62.463
1596.2600, -62.501
1596.2800, -62.420
1596.3000, -62.468
1596.3200, -62.525
1596.3400, -62.466
1596.3600, -62.477
1596.3800, -62.442
1596.4000, -62.504
1596.4200, -62.444
1596.4400, -62.492
1596.4600, -62.490
1596.4800, -62.495
1596.5000, -62.521
1596.5200, -62.577
1596.5400, -62.519
1596.5600, -62.434
1596.5800, -62.564
1596.6000, -62.474
1596.6200, -62.507
1596.6400, -62.590
1596.6600, -62.507
1596.6800, -62.611
1596.7000, -62.530
1596.7200, -62.504
1596.7400, -62.561
1596.7600, -62.525
1596.7800, -62.536
1596.8000, -62.569
1596.8200, -62.587
1596.8400, -62.589
1596.8600, -62.580
1596.8800, -62.551
1596.9000, -62.570
1596.9200, -62.612
1596.9400, -62.549
1596.9600, -62.556
1596.9800, -62.596
1597.0000, -62.578
1597.0200, -62.589
1597.0400, -62.622
1597.0600, -62.623
1597.0800, -62.623
1597.1000, -62.613
1597.1200, -62.658
1597.1400, -62.595
1597.1600, -62.673
1597.1800, -62.662
1597.2000, -62.587
1597.2200, -62.643
1597.2400, -62.671
1597.2600, -62.620
1597.2800, -62.685
1597.3000, -62.678
1597.3200, -62.598
1597.3400, -62.690
1597.3600, -62.698
1597.3800, -62.687
1597.4000, -62.685
1597.4200, -62.675
1597.4400, -62.659
1597.4600, -62.690
1597.4800, -62.707
1597.5000, -62.721
1597.5200, -62.675
1597.5400, -62.671
1597.5600, -62.728
1597.5800, -62.701
1597.6000, -62.671
1597.6200, -62.717
1597.6400, -62.728
1597.6600, -62.741
1597.6800, -62.642
1597.7000, -62.775
1597.7200, -62.759
1597.7400, -62.731
1597.7600, -62.781
1597.7800, -62.736
1597.8000, -62.772
1597.8200, -62.760
1597.8400, -62.791
1597.8600, -62.730
1597.8800, -62.798
1597.9000, -62.772
1597.9200, -62.805
1597.9400, -62.790
1597.9600, -62.796
1597.9800, -62.819
1598.0000, -62.784
1598.0200, -62.749
1598.0400, -62.858
1598.0600, -62.748
1598.0800, -62.859
1598.1000, -62.827
1598.1200, -62.792
1598.1400, -62.813
1598.1600, -62.841
1598.1800, -62.841
1598.2000, -62.829
1598.2200, -62.875
1598.2400, -62.880
1598.2600, -62.843
1598.2800, -62.874
1598.3000, -62.870
1598.3200, -62.862
1598.3400, -62.878
1598.3600, -62.882
1598.3800, -62.853
1598.4000, -62.907
1598.4200, -62.948
1598.4400, -62.898
1598.4600, -62.831
1598.4800, -62.942
1598.5000, -62.926
1598.5200, -62.894
1598.5400, -62.896
1598.5600, -62.930
1598.5800, -62.883
1598.6000, -62.991
1598.6200, -62.924
1598.6400, -62.959
1598.6600, -62.904
1598.6800, -62.918
1598.7000, -63.026
1598.7200, -62.950
1598.7400, -62.998
1598.7600, -62.987
1598.7800, -62.997
1598.8000, -62.974
1598.8200, -62.979
1598.8400, -62.918
1598.8600, -62.946
1598.8800, -63.035
1598.9000, -62.975
1598.9200, -62.994
1598.9400, -63.008
1598.9600, -63.010
1598.9800, -63.024
1599.0000, -62.986
1599.0200, -63.021
1599.0400, -62.996
1599.0600, -63.080
1599.0800, -62.954
1599.1000, -63.050
1599.1200, -63.084
1599.1400, -62.974
1599.1600, -63.028
1599.1800, -63.101
1599.2000, -63.023
1599.2200, -63.126
1599.2400, -63.046
1599.2600, -63.036
1599.2800, -63.026
1599.3000, -63.141
1599.3200, -63.083
1599.3400, -63.097
1599.3600, -62.989
1599.3800, -63.079
1599.4000, -63.123
1599.4200, -63.095
1599.4400, -63.124
1599.4600, -63.109
1599.4800, -63.097
1599.5000, -63.106
1599.5200, -63.163
1599.5400, -63.113
1599.5600, -63.101
1599.5800, -63.123
1599.6000, -63.163
1599.6200, -63.197
1599.6400, -63.126
1599.6600, -63.157
1599.6800, -63.137
1599.7000, -63.176
1599.7200, -63.128
1599.7400, -63.163
1599.7600, -63.132
1599.7800, -63.280
1599.8000, -63.116
1599.8200, -63.197
1599.8400, -63.201
1599.8600, -63.196
1599.8800, -63.133
1599.9000, -63.236
1599.9200, -63.126
1599.9400, -63.214
1599.9600, -63.247
1599.9800, -63.174
1600.0000, -63.198
