70BCSV 	
// AQ6370B OPTICAL SPECTRUM ANALYZER //                 
25
"CTRWL",1550.000000
"SPAN", 100.000000
"START WL",1500.000000
"STOP WL",1600.000000
"WLFREQ", 0
"REFL",-28.8
"LSCL", 5.0
"RESLN",0.100
"AVG",   1
"SMPLAUTO",      0
"SMPL",       5001
"SMPLINTVL",0.0200
"HIGH1"
"MEAS"
"LSUNT",0
"NMSKH","OFF"
"RESCOR",0
"RESPARM", 9050
"FREQPARM", 9050






"[TRACE DATA]"
1500.0000, -61.813
1500.0200, -61.806
1500.0400, -61.789
1500.0600, -61.799
1500.0800, -61.772
1500.1000, -61.782
1500.1200, -61.758
1500.1400, -61.752
1500.1600, -61.789
1500.1800, -61.765
1500.2000, -61.812
1500.2200, -61.698
1500.2400, -61.746
1500.2600, -61.725
1500.2800, -61.756
1500.3000, -61.708
1500.3200, -61.724
1500.3400, -61.732
1500.3600, -61.711
1500.3800, -61.723
1500.4000, -61.731
1500.4200, -61.674
1500.4400, -61.734
1500.4600, -61.682
1500.4800, -61.652
1500.5000, -61.673
1500.5200, -61.659
1500.5400, -61.649
1500.5600, -61.665
1500.5800, -61.665
1500.6000, -61.620
1500.6200, -61.617
1500.6400, -61.650
1500.6600, -61.626
1500.6800, -61.630
1500.7000, -61.600
1500.7200, -61.607
1500.7400, -61.626
1500.7600, -61.601
1500.7800, -61.594
1500.8000, -61.582
1500.8200, -61.593
1500.8400, -61.589
1500.8600, -61.620
1500.8800, -61.587
1500.9000, -61.542
1500.9200, -61.525
1500.9400, -61.548
1500.9600, -61.574
1500.9800, -61.512
1501.0000, -61.512
1501.0200, -61.518
1501.0400, -61.555
1501.0600, -61.470
1501.0800, -61.508
1501.1000, -61.482
1501.1200, -61.535
1501.1400, -61.493
1501.1600, -61.471
1501.1800, -61.518
1501.2000, -61.479
1501.2200, -61.478
1501.2400, -61.421
1501.2600, -61.455
1501.2800, -61.435
1501.3000, -61.450
1501.3200, -61.454
1501.3400, -61.427
1501.3600, -61.421
1501.3800, -61.419
1501.4000, -61.410
1501.4200, -61.430
1501.4400, -61.387
1501.4600, -61.378
1501.4800, -61.376
1501.5000, -61.415
1501.5200, -61.374
1501.5400, -61.351
1501.5600, -61.422
1501.5800, -61.302
1501.6000, -61.345
1501.6200, -61.374
1501.6400, -61.327
1501.6600, -61.337
1501.6800, -61.357
1501.7000, -61.295
1501.7200, -61.322
1501.7400, -61.358
1501.7600, -61.290
1501.7800, -61.307
1501.8000, -61.290
1501.8200, -61.335
1501.8400, -61.267
1501.8600, -61.284
1501.8800, -61.291
1501.9000, -61.339
1501.9200, -61.314
1501.9400, -61.239
1501.9600, -61.291
1501.9800, -61.222
1502.0000, -61.219
1502.0200, -61.283
1502.0400, -61.220
1502.0600, -61.259
1502.0800, -61.238
1502.1000, -61.233
1502.1200, -61.219
1502.1400, -61.217
1502.1600, -61.210
1502.1800, -61.183
1502.2000, -61.193
1502.2200, -61.172
1502.2400, -61.179
1502.2600, -61.145
1502.2800, -61.139
1502.3000, -61.199
1502.3200, -61.135
1502.3400, -61.134
1502.3600, -61.140
1502.3800, -61.113
1502.4000, -61.112
1502.4200, -61.106
1502.4400, -61.103
1502.4600, -61.110
1502.4800, -61.086
1502.5000, -61.080
1502.5200, -61.080
1502.5400, -61.062
1502.5600, -61.051
1502.5800, -61.049
1502.6000, -61.032
1502.6200, -61.035
1502.6400, -61.049
1502.6600, -61.009
1502.6800, -61.018
1502.7000, -61.030
1502.7200, -61.014
1502.7400, -61.012
1502.7600, -61.013
1502.7800, -61.014
1502.8000, -60.990
1502.8200, -60.979
1502.8400, -60.957
1502.8600, -60.991
1502.8800, -60.943
1502.9000, -60.950
1502.9200, -60.955
1502.9400, -60.930
1502.9600, -60.941
1502.9800, -60.922
1503.0000, -60.913
1503.0200, -60.910
1503.0400, -60.905
1503.0600, -60.895
1503.0800, -60.909
1503.1000, -60.899
1503.1200, -60.863
1503.1400, -60.866
1503.1600, -60.885
1503.1800, -60.860
1503.2000, -60.854
1503.2200, -60.854
1503.2400, -60.833
1503.2600, -60.828
1503.2800, -60.840
1503.3000, -60.799
1503.3200, -60.815
1503.3400, -60.794
1503.3600, -60.821
1503.3800, -60.783
1503.4000, -60.803
1503.4200, -60.765
1503.4400, -60.794
1503.4600, -60.748
1503.4800, -60.767
1503.5000, -60.763
1503.5200, -60.735
1503.5400, -60.734
1503.5600, -60.718
1503.5800, -60.708
1503.6000, -60.713
1503.6200, -60.731
1503.6400, -60.686
1503.6600, -60.701
1503.6800, -60.708
1503.7000, -60.683
1503.7200, -60.681
1503.7400, -60.688
1503.7600, -60.645
1503.7800, -60.638
1503.8000, -60.669
1503.8200, -60.646
1503.8400, -60.644
1503.8600, -60.636
1503.8800, -60.677
1503.9000, -60.605
1503.9200, -60.623
1503.9400, -60.588
1503.9600, -60.596
1503.9800, -60.572
1504.0000, -60.599
1504.0200, -60.607
1504.0400, -60.572
1504.0600, -60.589
1504.0800, -60.563
1504.1000, -60.566
1504.1200, -60.535
1504.1400, -60.501
1504.1600, -60.517
1504.1800, -60.517
1504.2000, -60.543
1504.2200, -60.486
1504.2400, -60.474
1504.2600, -60.482
1504.2800, -60.455
1504.3000, -60.470
1504.3200, -60.471
1504.3400, -60.459
1504.3600, -60.435
1504.3800, -60.455
1504.4000, -60.430
1504.4200, -60.418
1504.4400, -60.405
1504.4600, -60.401
1504.4800, -60.399
1504.5000, -60.382
1504.5200, -60.384
1504.5400, -60.371
1504.5600, -60.361
1504.5800, -60.353
1504.6000, -60.358
1504.6200, -60.343
1504.6400, -60.331
1504.6600, -60.334
1504.6800, -60.331
1504.7000, -60.325
1504.7200, -60.316
1504.7400, -60.302
1504.7600, -60.318
1504.7800, -60.303
1504.8000, -60.311
1504.8200, -60.273
1504.8400, -60.289
1504.8600, -60.268
1504.8800, -60.251
1504.9000, -60.226
1504.9200, -60.233
1504.9400, -60.248
1504.9600, -60.206
1504.9800, -60.231
1505.0000, -60.205
1505.0200, -60.210
1505.0400, -60.198
1505.0600, -60.195
1505.0800, -60.185
1505.1000, -60.186
1505.1200, -60.160
1505.1400, -60.153
1505.1600, -60.147
1505.1800, -60.141
1505.2000, -60.128
1505.2200, -60.145
1505.2400, -60.134
1505.2600, -60.131
1505.2800, -60.090
1505.3000, -60.081
1505.3200, -60.071
1505.3400, -60.081
1505.3600, -60.052
1505.3800, -60.098
1505.4000, -60.034
1505.4200, -60.041
1505.4400, -60.047
1505.4600, -60.011
1505.4800, -60.049
1505.5000, -60.006
1505.5200, -59.985
1505.5400, -60.026
1505.5600, -59.966
1505.5800, -59.971
1505.6000, -60.013
1505.6200, -59.972
1505.6400, -59.978
1505.6600, -59.956
1505.6800, -59.933
1505.7000, -59.965
1505.7200, -59.937
1505.7400, -59.923
1505.7600, -59.916
1505.7800, -59.887
1505.8000, -59.907
1505.8200, -59.909
1505.8400, -59.883
1505.8600, -59.870
1505.8800, -59.855
1505.9000, -59.869
1505.9200, -59.875
1505.9400, -59.853
1505.9600, -59.822
1505.9800, -59.857
1506.0000, -59.837
1506.0200, -59.805
1506.0400, -59.825
1506.0600, -59.802
1506.0800, -59.797
1506.1000, -59.808
1506.1200, -59.767
1506.1400, -59.771
1506.1600, -59.778
1506.1800, -59.756
1506.2000, -59.750
1506.2200, -59.734
1506.2400, -59.737
1506.2600, -59.724
1506.2800, -59.717
1506.3000, -59.716
1506.3200, -59.691
1506.3400, -59.725
1506.3600, -59.662
1506.3800, -59.702
1506.4000, -59.685
1506.4200, -59.648
1506.4400, -59.645
1506.4600, -59.619
1506.4800, -59.667
1506.5000, -59.621
1506.5200, -59.585
1506.5400, -59.610
1506.5600, -59.610
1506.5800, -59.613
1506.6000, -59.578
1506.6200, -59.585
1506.6400, -59.580
1506.6600, -59.565
1506.6800, -59.558
1506.7000, -59.581
1506.7200, -59.532
1506.7400, -59.556
1506.7600, -59.554
1506.7800, -59.498
1506.8000, -59.507
1506.8200, -59.503
1506.8400, -59.493
1506.8600, -59.471
1506.8800, -59.485
1506.9000, -59.466
1506.9200, -59.458
1506.9400, -59.445
1506.9600, -59.443
1506.9800, -59.442
1507.0000, -59.426
1507.0200, -59.427
1507.0400, -59.412
1507.0600, -59.424
1507.0800, -59.411
1507.1000, -59.388
1507.1200, -59.371
1507.1400, -59.386
1507.1600, -59.379
1507.1800, -59.372
1507.2000, -59.324
1507.2200, -59.355
1507.2400, -59.357
1507.2600, -59.347
1507.2800, -59.329
1507.3000, -59.328
1507.3200, -59.282
1507.3400, -59.300
1507.3600, -59.283
1507.3800, -59.261
1507.4000, -59.259
1507.4200, -59.244
1507.4400, -59.260
1507.4600, -59.247
1507.4800, -59.238
1507.5000, -59.230
1507.5200, -59.207
1507.5400, -59.216
1507.5600, -59.203
1507.5800, -59.189
1507.6000, -59.192
1507.6200, -59.180
1507.6400, -59.160
1507.6600, -59.166
1507.6800, -59.153
1507.7000, -59.167
1507.7200, -59.134
1507.7400, -59.117
1507.7600, -59.129
1507.7800, -59.122
1507.8000, -59.103
1507.8200, -59.087
1507.8400, -59.095
1507.8600, -59.077
1507.8800, -59.072
1507.9000, -59.063
1507.9200, -59.054
1507.9400, -59.044
1507.9600, -59.036
1507.9800, -59.019
1508.0000, -59.020
1508.0200, -59.022
1508.0400, -59.000
1508.0600, -58.994
1508.0800, -58.992
1508.1000, -58.982
1508.1200, -58.978
1508.1400, -58.956
1508.1600, -58.935
1508.1800, -58.949
1508.2000, -58.960
1508.2200, -58.917
1508.2400, -58.928
1508.2600, -58.901
1508.2800, -58.925
1508.3000, -58.913
1508.3200, -58.889
1508.3400, -58.879
1508.3600, -58.876
1508.3800, -58.843
1508.4000, -58.840
1508.4200, -58.846
1508.4400, -58.839
1508.4600, -58.840
1508.4800, -58.815
1508.5000, -58.806
1508.5200, -58.810
1508.5400, -58.805
1508.5600, -58.796
1508.5800, -58.785
1508.6000, -58.788
1508.6200, -58.776
1508.6400, -58.742
1508.6600, -58.750
1508.6800, -58.748
1508.7000, -58.739
1508.7200, -58.722
1508.7400, -58.695
1508.7600, -58.711
1508.7800, -58.693
1508.8000, -58.698
1508.8200, -58.683
1508.8400, -58.696
1508.8600, -58.673
1508.8800, -58.654
1508.9000, -58.647
1508.9200, -58.627
1508.9400, -58.620
1508.9600, -58.611
1508.9800, -58.623
1509.0000, -58.611
1509.0200, -58.585
1509.0400, -58.584
1509.0600, -58.569
1509.0800, -58.569
1509.1000, -58.575
1509.1200, -58.567
1509.1400, -58.556
1509.1600, -58.516
1509.1800, -58.520
1509.2000, -58.517
1509.2200, -58.500
1509.2400, -58.483
1509.2600, -58.494
1509.2800, -58.467
1509.3000, -58.461
1509.3200, -58.445
1509.3400, -58.434
1509.3600, -58.445
1509.3800, -58.409
1509.4000, -58.426
1509.4200, -58.411
1509.4400, -58.381
1509.4600, -58.394
1509.4800, -58.371
1509.5000, -58.363
1509.5200, -58.369
1509.5400, -58.369
1509.5600, -58.340
1509.5800, -58.345
1509.6000, -58.346
1509.6200, -58.312
1509.6400, -58.310
1509.6600, -58.303
1509.6800, -58.286
1509.7000, -58.283
1509.7200, -58.283
1509.7400, -58.269
1509.7600, -58.262
1509.7800, -58.254
1509.8000, -58.250
1509.8200, -58.230
1509.8400, -58.235
1509.8600, -58.218
1509.8800, -58.195
1509.9000, -58.192
1509.9200, -58.182
1509.9400, -58.179
1509.9600, -58.183
1509.9800, -58.166
1510.0000, -58.151
1510.0200, -58.148
1510.0400, -58.129
1510.0600, -58.128
1510.0800, -58.100
1510.1000, -58.099
1510.1200, -58.091
1510.1400, -58.075
1510.1600, -58.075
1510.1800, -58.055
1510.2000, -58.044
1510.2200, -58.028
1510.2400, -58.027
1510.2600, -58.005
1510.2800, -58.001
1510.3000, -57.986
1510.3200, -57.980
1510.3400, -57.966
1510.3600, -57.980
1510.3800, -57.940
1510.4000, -57.941
1510.4200, -57.938
1510.4400, -57.920
1510.4600, -57.914
1510.4800, -57.897
1510.5000, -57.899
1510.5200, -57.885
1510.5400, -57.881
1510.5600, -57.849
1510.5800, -57.856
1510.6000, -57.850
1510.6200, -57.832
1510.6400, -57.808
1510.6600, -57.799
1510.6800, -57.794
1510.7000, -57.798
1510.7200, -57.767
1510.7400, -57.768
1510.7600, -57.761
1510.7800, -57.741
1510.8000, -57.743
1510.8200, -57.717
1510.8400, -57.716
1510.8600, -57.711
1510.8800, -57.685
1510.9000, -57.677
1510.9200, -57.676
1510.9400, -57.670
1510.9600, -57.645
1510.9800, -57.641
1511.0000, -57.617
1511.0200, -57.626
1511.0400, -57.598
1511.0600, -57.590
1511.0800, -57.572
1511.1000, -57.570
1511.1200, -57.560
1511.1400, -57.518
1511.1600, -57.533
1511.1800, -57.520
1511.2000, -57.514
1511.2200, -57.488
1511.2400, -57.498
1511.2600, -57.463
1511.2800, -57.461
1511.3000, -57.468
1511.3200, -57.434
1511.3400, -57.431
1511.3600, -57.430
1511.3800, -57.415
1511.4000, -57.406
1511.4200, -57.396
1511.4400, -57.381
1511.4600, -57.361
1511.4800, -57.371
1511.5000, -57.347
1511.5200, -57.326
1511.5400, -57.317
1511.5600, -57.308
1511.5800, -57.289
1511.6000, -57.282
1511.6200, -57.293
1511.6400, -57.267
1511.6600, -57.267
1511.6800, -57.243
1511.7000, -57.240
1511.7200, -57.234
1511.7400, -57.203
1511.7600, -57.200
1511.7800, -57.182
1511.8000, -57.166
1511.8200, -57.162
1511.8400, -57.172
1511.8600, -57.126
1511.8800, -57.126
1511.9000, -57.115
1511.9200, -57.112
1511.9400, -57.097
1511.9600, -57.080
1511.9800, -57.075
1512.0000, -57.054
1512.0200, -57.050
1512.0400, -57.044
1512.0600, -57.029
1512.0800, -57.000
1512.1000, -56.992
1512.1200, -57.000
1512.1400, -56.977
1512.1600, -56.962
1512.1800, -56.945
1512.2000, -56.942
1512.2200, -56.936
1512.2400, -56.921
1512.2600, -56.911
1512.2800, -56.895
1512.3000, -56.906
1512.3200, -56.879
1512.3400, -56.875
1512.3600, -56.844
1512.3800, -56.844
1512.4000, -56.843
1512.4200, -56.836
1512.4400, -56.817
1512.4600, -56.809
1512.4800, -56.797
1512.5000, -56.771
1512.5200, -56.764
1512.5400, -56.744
1512.5600, -56.735
1512.5800, -56.728
1512.6000, -56.732
1512.6200, -56.695
1512.6400, -56.695
1512.6600, -56.692
1512.6800, -56.673
1512.7000, -56.668
1512.7200, -56.641
1512.7400, -56.640
1512.7600, -56.623
1512.7800, -56.615
1512.8000, -56.595
1512.8200, -56.593
1512.8400, -56.566
1512.8600, -56.563
1512.8800, -56.569
1512.9000, -56.541
1512.9200, -56.546
1512.9400, -56.528
1512.9600, -56.503
1512.9800, -56.489
1513.0000, -56.493
1513.0200, -56.475
1513.0400, -56.465
1513.0600, -56.454
1513.0800, -56.423
1513.1000, -56.419
1513.1200, -56.409
1513.1400, -56.397
1513.1600, -56.381
1513.1800, -56.376
1513.2000, -56.369
1513.2200, -56.355
1513.2400, -56.345
1513.2600, -56.335
1513.2800, -56.313
1513.3000, -56.306
1513.3200, -56.293
1513.3400, -56.286
1513.3600, -56.271
1513.3800, -56.272
1513.4000, -56.243
1513.4200, -56.255
1513.4400, -56.217
1513.4600, -56.210
1513.4800, -56.195
1513.5000, -56.181
1513.5200, -56.180
1513.5400, -56.163
1513.5600, -56.158
1513.5800, -56.131
1513.6000, -56.123
1513.6200, -56.117
1513.6400, -56.102
1513.6600, -56.085
1513.6800, -56.070
1513.7000, -56.072
1513.7200, -56.038
1513.7400, -56.040
1513.7600, -56.027
1513.7800, -56.002
1513.8000, -56.008
1513.8200, -55.985
1513.8400, -55.979
1513.8600, -55.974
1513.8800, -55.944
1513.9000, -55.939
1513.9200, -55.917
1513.9400, -55.904
1513.9600, -55.907
1513.9800, -55.867
1514.0000, -55.868
1514.0200, -55.855
1514.0400, -55.845
1514.0600, -55.820
1514.0800, -55.813
1514.1000, -55.792
1514.1200, -55.790
1514.1400, -55.781
1514.1600, -55.776
1514.1800, -55.757
1514.2000, -55.740
1514.2200, -55.730
1514.2400, -55.713
1514.2600, -55.698
1514.2800, -55.697
1514.3000, -55.664
1514.3200, -55.678
1514.3400, -55.657
1514.3600, -55.626
1514.3800, -55.619
1514.4000, -55.603
1514.4200, -55.598
1514.4400, -55.572
1514.4600, -55.575
1514.4800, -55.560
1514.5000, -55.550
1514.5200, -55.526
1514.5400, -55.520
1514.5600, -55.512
1514.5800, -55.495
1514.6000, -55.480
1514.6200, -55.473
1514.6400, -55.453
1514.6600, -55.439
1514.6800, -55.431
1514.7000, -55.406
1514.7200, -55.404
1514.7400, -55.387
1514.7600, -55.378
1514.7800, -55.363
1514.8000, -55.346
1514.8200, -55.333
1514.8400, -55.319
1514.8600, -55.305
1514.8800, -55.285
1514.9000, -55.288
1514.9200, -55.255
1514.9400, -55.240
1514.9600, -55.241
1514.9800, -55.217
1515.0000, -55.203
1515.0200, -55.176
1515.0400, -55.160
1515.0600, -55.167
1515.0800, -55.140
1515.1000, -55.128
1515.1200, -55.118
1515.1400, -55.105
1515.1600, -55.094
1515.1800, -55.074
1515.2000, -55.055
1515.2200, -55.041
1515.2400, -55.042
1515.2600, -55.028
1515.2800, -54.996
1515.3000, -54.989
1515.3200, -54.977
1515.3400, -54.963
1515.3600, -54.936
1515.3800, -54.925
1515.4000, -54.926
1515.4200, -54.919
1515.4400, -54.897
1515.4600, -54.872
1515.4800, -54.853
1515.5000, -54.836
1515.5200, -54.837
1515.5400, -54.816
1515.5600, -54.803
1515.5800, -54.788
1515.6000, -54.778
1515.6200, -54.760
1515.6400, -54.739
1515.6600, -54.734
1515.6800, -54.724
1515.7000, -54.707
1515.7200, -54.690
1515.7400, -54.678
1515.7600, -54.658
1515.7800, -54.653
1515.8000, -54.622
1515.8200, -54.606
1515.8400, -54.597
1515.8600, -54.578
1515.8800, -54.557
1515.9000, -54.561
1515.9200, -54.540
1515.9400, -54.524
1515.9600, -54.494
1515.9800, -54.468
1516.0000, -54.471
1516.0200, -54.451
1516.0400, -54.433
1516.0600, -54.424
1516.0800, -54.409
1516.1000, -54.400
1516.1200, -54.372
1516.1400, -54.351
1516.1600, -54.340
1516.1800, -54.325
1516.2000, -54.310
1516.2200, -54.297
1516.2400, -54.279
1516.2600, -54.268
1516.2800, -54.249
1516.3000, -54.231
1516.3200, -54.219
1516.3400, -54.213
1516.3600, -54.184
1516.3800, -54.173
1516.4000, -54.161
1516.4200, -54.148
1516.4400, -54.115
1516.4600, -54.107
1516.4800, -54.096
1516.5000, -54.072
1516.5200, -54.053
1516.5400, -54.041
1516.5600, -54.019
1516.5800, -54.004
1516.6000, -53.990
1516.6200, -53.970
1516.6400, -53.949
1516.6600, -53.936
1516.6800, -53.927
1516.7000, -53.911
1516.7200, -53.887
1516.7400, -53.866
1516.7600, -53.849
1516.7800, -53.835
1516.8000, -53.821
1516.8200, -53.794
1516.8400, -53.790
1516.8600, -53.761
1516.8800, -53.738
1516.9000, -53.721
1516.9200, -53.701
1516.9400, -53.683
1516.9600, -53.673
1516.9800, -53.652
1517.0000, -53.633
1517.0200, -53.622
1517.0400, -53.603
1517.0600, -53.584
1517.0800, -53.561
1517.1000, -53.545
1517.1200, -53.525
1517.1400, -53.521
1517.1600, -53.498
1517.1800, -53.476
1517.2000, -53.459
1517.2200, -53.438
1517.2400, -53.405
1517.2600, -53.395
1517.2800, -53.382
1517.3000, -53.355
1517.3200, -53.354
1517.3400, -53.333
1517.3600, -53.303
1517.3800, -53.295
1517.4000, -53.279
1517.4200, -53.264
1517.4400, -53.240
1517.4600, -53.210
1517.4800, -53.200
1517.5000, -53.180
1517.5200, -53.167
1517.5400, -53.150
1517.5600, -53.128
1517.5800, -53.097
1517.6000, -53.093
1517.6200, -53.066
1517.6400, -53.056
1517.6600, -53.021
1517.6800, -52.999
1517.7000, -52.977
1517.7200, -52.956
1517.7400, -52.944
1517.7600, -52.924
1517.7800, -52.913
1517.8000, -52.874
1517.8200, -52.851
1517.8400, -52.830
1517.8600, -52.817
1517.8800, -52.790
1517.9000, -52.770
1517.9200, -52.753
1517.9400, -52.737
1517.9600, -52.720
1517.9800, -52.698
1518.0000, -52.681
1518.0200, -52.658
1518.0400, -52.634
1518.0600, -52.614
1518.0800, -52.600
1518.1000, -52.580
1518.1200, -52.554
1518.1400, -52.534
1518.1600, -52.505
1518.1800, -52.481
1518.2000, -52.462
1518.2200, -52.444
1518.2400, -52.426
1518.2600, -52.402
1518.2800, -52.394
1518.3000, -52.359
1518.3200, -52.343
1518.3400, -52.325
1518.3600, -52.301
1518.3800, -52.284
1518.4000, -52.262
1518.4200, -52.235
1518.4400, -52.217
1518.4600, -52.196
1518.4800, -52.166
1518.5000, -52.145
1518.5200, -52.124
1518.5400, -52.098
1518.5600, -52.073
1518.5800, -52.052
1518.6000, -52.032
1518.6200, -52.000
1518.6400, -51.978
1518.6600, -51.954
1518.6800, -51.946
1518.7000, -51.905
1518.7200, -51.900
1518.7400, -51.864
1518.7600, -51.833
1518.7800, -51.806
1518.8000, -51.788
1518.8200, -51.761
1518.8400, -51.739
1518.8600, -51.722
1518.8800, -51.704
1518.9000, -51.681
1518.9200, -51.649
1518.9400, -51.634
1518.9600, -51.598
1518.9800, -51.579
1519.0000, -51.561
1519.0200, -51.544
1519.0400, -51.513
1519.0600, -51.493
1519.0800, -51.460
1519.1000, -51.438
1519.1200, -51.416
1519.1400, -51.396
1519.1600, -51.380
1519.1800, -51.344
1519.2000, -51.317
1519.2200, -51.294
1519.2400, -51.250
1519.2600, -51.232
1519.2800, -51.217
1519.3000, -51.187
1519.3200, -51.151
1519.3400, -51.130
1519.3600, -51.108
1519.3800, -51.082
1519.4000, -51.062
1519.4200, -51.027
1519.4400, -51.012
1519.4600, -50.973
1519.4800, -50.951
1519.5000, -50.920
1519.5200, -50.898
1519.5400, -50.867
1519.5600, -50.825
1519.5800, -50.807
1519.6000, -50.775
1519.6200, -50.757
1519.6400, -50.723
1519.6600, -50.708
1519.6800, -50.664
1519.7000, -50.632
1519.7200, -50.608
1519.7400, -50.579
1519.7600, -50.567
1519.7800, -50.544
1519.8000, -50.497
1519.8200, -50.481
1519.8400, -50.449
1519.8600, -50.424
1519.8800, -50.392
1519.9000, -50.365
1519.9200, -50.341
1519.9400, -50.304
1519.9600, -50.276
1519.9800, -50.240
1520.0000, -50.222
1520.0200, -50.192
1520.0400, -50.167
1520.0600, -50.131
1520.0800, -50.115
1520.1000, -50.078
1520.1200, -50.043
1520.1400, -50.016
1520.1600, -49.977
1520.1800, -49.949
1520.2000, -49.920
1520.2200, -49.887
1520.2400, -49.855
1520.2600, -49.820
1520.2800, -49.791
1520.3000, -49.781
1520.3200, -49.739
1520.3400, -49.703
1520.3600, -49.671
1520.3800, -49.640
1520.4000, -49.596
1520.4200, -49.581
1520.4400, -49.548
1520.4600, -49.517
1520.4800, -49.482
1520.5000, -49.439
1520.5200, -49.408
1520.5400, -49.375
1520.5600, -49.350
1520.5800, -49.307
1520.6000, -49.292
1520.6200, -49.245
1520.6400, -49.216
1520.6600, -49.188
1520.6800, -49.158
1520.7000, -49.119
1520.7200, -49.090
1520.7400, -49.042
1520.7600, -49.016
1520.7800, -48.977
1520.8000, -48.950
1520.8200, -48.909
1520.8400, -48.875
1520.8600, -48.835
1520.8800, -48.802
1520.9000, -48.771
1520.9200, -48.736
1520.9400, -48.706
1520.9600, -48.671
1520.9800, -48.640
1521.0000, -48.613
1521.0200, -48.573
1521.0400, -48.536
1521.0600, -48.501
1521.0800, -48.466
1521.1000, -48.421
1521.1200, -48.389
1521.1400, -48.353
1521.1600, -48.311
1521.1800, -48.276
1521.2000, -48.235
1521.2200, -48.198
1521.2400, -48.164
1521.2600, -48.144
1521.2800, -48.091
1521.3000, -48.057
1521.3200, -48.034
1521.3400, -47.991
1521.3600, -47.949
1521.3800, -47.903
1521.4000, -47.865
1521.4200, -47.828
1521.4400, -47.792
1521.4600, -47.747
1521.4800, -47.719
1521.5000, -47.678
1521.5200, -47.628
1521.5400, -47.610
1521.5600, -47.552
1521.5800, -47.514
1521.6000, -47.477
1521.6200, -47.438
1521.6400, -47.397
1521.6600, -47.362
1521.6800, -47.326
1521.7000, -47.285
1521.7200, -47.252
1521.7400, -47.218
1521.7600, -47.178
1521.7800, -47.144
1521.8000, -47.093
1521.8200, -47.064
1521.8400, -47.021
1521.8600, -46.986
1521.8800, -46.947
1521.9000, -46.907
1521.9200, -46.874
1521.9400, -46.838
1521.9600, -46.800
1521.9800, -46.761
1522.0000, -46.717
1522.0200, -46.674
1522.0400, -46.630
1522.0600, -46.591
1522.0800, -46.551
1522.1000, -46.505
1522.1200, -46.466
1522.1400, -46.424
1522.1600, -46.384
1522.1800, -46.339
1522.2000, -46.306
1522.2200, -46.259
1522.2400, -46.229
1522.2600, -46.193
1522.2800, -46.149
1522.3000, -46.105
1522.3200, -46.065
1522.3400, -46.017
1522.3600, -45.976
1522.3800, -45.928
1522.4000, -45.886
1522.4200, -45.847
1522.4400, -45.808
1522.4600, -45.773
1522.4800, -45.737
1522.5000, -45.685
1522.5200, -45.650
1522.5400, -45.610
1522.5600, -45.568
1522.5800, -45.510
1522.6000, -45.467
1522.6200, -45.428
1522.6400, -45.388
1522.6600, -45.345
1522.6800, -45.309
1522.7000, -45.264
1522.7200, -45.229
1522.7400, -45.183
1522.7600, -45.138
1522.7800, -45.098
1522.8000, -45.060
1522.8200, -45.020
1522.8400, -44.974
1522.8600, -44.942
1522.8800, -44.903
1522.9000, -44.860
1522.9200, -44.823
1522.9400, -44.781
1522.9600, -44.735
1522.9800, -44.690
1523.0000, -44.648
1523.0200, -44.604
1523.0400, -44.562
1523.0600, -44.522
1523.0800, -44.480
1523.1000, -44.438
1523.1200, -44.404
1523.1400, -44.355
1523.1600, -44.315
1523.1800, -44.276
1523.2000, -44.231
1523.2200, -44.190
1523.2400, -44.146
1523.2600, -44.105
1523.2800, -44.058
1523.3000, -44.015
1523.3200, -43.969
1523.3400, -43.921
1523.3600, -43.880
1523.3800, -43.843
1523.4000, -43.802
1523.4200, -43.749
1523.4400, -43.711
1523.4600, -43.677
1523.4800, -43.639
1523.5000, -43.596
1523.5200, -43.551
1523.5400, -43.513
1523.5600, -43.466
1523.5800, -43.423
1523.6000, -43.383
1523.6200, -43.343
1523.6400, -43.302
1523.6600, -43.258
1523.6800, -43.220
1523.7000, -43.179
1523.7200, -43.137
1523.7400, -43.097
1523.7600, -43.055
1523.7800, -43.010
1523.8000, -42.977
1523.8200, -42.937
1523.8400, -42.896
1523.8600, -42.853
1523.8800, -42.810
1523.9000, -42.768
1523.9200, -42.727
1523.9400, -42.683
1523.9600, -42.645
1523.9800, -42.600
1524.0000, -42.560
1524.0200, -42.519
1524.0400, -42.480
1524.0600, -42.440
1524.0800, -42.398
1524.1000, -42.356
1524.1200, -42.315
1524.1400, -42.270
1524.1600, -42.234
1524.1800, -42.191
1524.2000, -42.152
1524.2200, -42.110
1524.2400, -42.067
1524.2600, -42.024
1524.2800, -41.983
1524.3000, -41.943
1524.3200, -41.908
1524.3400, -41.863
1524.3600, -41.815
1524.3800, -41.777
1524.4000, -41.738
1524.4200, -41.699
1524.4400, -41.659
1524.4600, -41.624
1524.4800, -41.586
1524.5000, -41.541
1524.5200, -41.501
1524.5400, -41.459
1524.5600, -41.426
1524.5800, -41.389
1524.6000, -41.350
1524.6200, -41.313
1524.6400, -41.271
1524.6600, -41.229
1524.6800, -41.189
1524.7000, -41.149
1524.7200, -41.114
1524.7400, -41.076
1524.7600, -41.038
1524.7800, -40.998
1524.8000, -40.957
1524.8200, -40.916
1524.8400, -40.876
1524.8600, -40.833
1524.8800, -40.793
1524.9000, -40.752
1524.9200, -40.713
1524.9400, -40.671
1524.9600, -40.631
1524.9800, -40.595
1525.0000, -40.553
1525.0200, -40.516
1525.0400, -40.478
1525.0600, -40.431
1525.0800, -40.389
1525.1000, -40.348
1525.1200, -40.307
1525.1400, -40.274
1525.1600, -40.234
1525.1800, -40.194
1525.2000, -40.154
1525.2200, -40.115
1525.2400, -40.075
1525.2600, -40.041
1525.2800, -40.001
1525.3000, -39.961
1525.3200, -39.926
1525.3400, -39.890
1525.3600, -39.850
1525.3800, -39.809
1525.4000, -39.770
1525.4200, -39.739
1525.4400, -39.694
1525.4600, -39.653
1525.4800, -39.615
1525.5000, -39.576
1525.5200, -39.536
1525.5400, -39.495
1525.5600, -39.459
1525.5800, -39.416
1525.6000, -39.377
1525.6200, -39.343
1525.6400, -39.304
1525.6600, -39.269
1525.6800, -39.232
1525.7000, -39.190
1525.7200, -39.151
1525.7400, -39.109
1525.7600, -39.070
1525.7800, -39.028
1525.8000, -38.985
1525.8200, -38.948
1525.8400, -38.908
1525.8600, -38.868
1525.8800, -38.828
1525.9000, -38.786
1525.9200, -38.749
1525.9400, -38.715
1525.9600, -38.684
1525.9800, -38.647
1526.0000, -38.609
1526.0200, -38.574
1526.0400, -38.533
1526.0600, -38.491
1526.0800, -38.454
1526.1000, -38.414
1526.1200, -38.377
1526.1400, -38.338
1526.1600, -38.294
1526.1800, -38.264
1526.2000, -38.225
1526.2200, -38.177
1526.2400, -38.139
1526.2600, -38.099
1526.2800, -38.063
1526.3000, -38.028
1526.3200, -37.983
1526.3400, -37.952
1526.3600, -37.921
1526.3800, -37.881
1526.4000, -37.845
1526.4200, -37.807
1526.4400, -37.768
1526.4600, -37.737
1526.4800, -37.704
1526.5000, -37.663
1526.5200, -37.626
1526.5400, -37.585
1526.5600, -37.544
1526.5800, -37.514
1526.6000, -37.480
1526.6200, -37.443
1526.6400, -37.408
1526.6600, -37.370
1526.6800, -37.328
1526.7000, -37.292
1526.7200, -37.247
1526.7400, -37.213
1526.7600, -37.178
1526.7800, -37.136
1526.8000, -37.094
1526.8200, -37.057
1526.8400, -37.020
1526.8600, -36.980
1526.8800, -36.943
1526.9000, -36.915
1526.9200, -36.863
1526.9400, -36.829
1526.9600, -36.785
1526.9800, -36.731
1527.0000, -36.704
1527.0200, -36.662
1527.0400, -36.624
1527.0600, -36.578
1527.0800, -36.545
1527.1000, -36.506
1527.1200, -36.487
1527.1400, -36.439
1527.1600, -36.398
1527.1800, -36.359
1527.2000, -36.336
1527.2200, -36.296
1527.2400, -36.253
1527.2600, -36.205
1527.2800, -36.187
1527.3000, -36.138
1527.3200, -36.095
1527.3400, -36.060
1527.3600, -36.021
1527.3800, -35.979
1527.4000, -35.951
1527.4200, -35.919
1527.4400, -35.869
1527.4600, -35.833
1527.4800, -35.793
1527.5000, -35.745
1527.5200, -35.709
1527.5400, -35.665
1527.5600, -35.622
1527.5800, -35.579
1527.6000, -35.538
1527.6200, -35.495
1527.6400, -35.453
1527.6600, -35.398
1527.6800, -35.377
1527.7000, -35.328
1527.7200, -35.279
1527.7400, -35.238
1527.7600, -35.188
1527.7800, -35.148
1527.8000, -35.108
1527.8200, -35.073
1527.8400, -35.036
1527.8600, -34.981
1527.8800, -34.952
1527.9000, -34.904
1527.9200, -34.855
1527.9400, -34.827
1527.9600, -34.760
1527.9800, -34.709
1528.0000, -34.678
1528.0200, -34.636
1528.0400, -34.601
1528.0600, -34.562
1528.0800, -34.490
1528.1000, -34.470
1528.1200, -34.428
1528.1400, -34.378
1528.1600, -34.330
1528.1800, -34.276
1528.2000, -34.241
1528.2200, -34.198
1528.2400, -34.158
1528.2600, -34.105
1528.2800, -34.077
1528.3000, -34.032
1528.3200, -33.995
1528.3400, -33.967
1528.3600, -33.924
1528.3800, -33.875
1528.4000, -33.848
1528.4200, -33.804
1528.4400, -33.776
1528.4600, -33.733
1528.4800, -33.721
1528.5000, -33.683
1528.5200, -33.650
1528.5400, -33.608
1528.5600, -33.570
1528.5800, -33.520
1528.6000, -33.483
1528.6200, -33.459
1528.6400, -33.411
1528.6600, -33.362
1528.6800, -33.304
1528.7000, -33.270
1528.7200, -33.226
1528.7400, -33.189
1528.7600, -33.161
1528.7800, -33.083
1528.8000, -33.053
1528.8200, -32.987
1528.8400, -32.929
1528.8600, -32.905
1528.8800, -32.849
1528.9000, -32.787
1528.9200, -32.737
1528.9400, -32.700
1528.9600, -32.646
1528.9800, -32.630
1529.0000, -32.548
1529.0200, -32.494
1529.0400, -32.470
1529.0600, -32.430
1529.0800, -32.380
1529.1000, -32.318
1529.1200, -32.252
1529.1400, -32.225
1529.1600, -32.158
1529.1800, -32.102
1529.2000, -32.054
1529.2200, -32.007
1529.2400, -31.948
1529.2600, -31.917
1529.2800, -31.893
1529.3000, -31.856
1529.3200, -31.811
1529.3400, -31.756
1529.3600, -31.707
1529.3800, -31.672
1529.4000, -31.624
1529.4200, -31.592
1529.4400, -31.522
1529.4600, -31.472
1529.4800, -31.399
1529.5000, -31.393
1529.5200, -31.340
1529.5400, -31.377
1529.5600, -31.340
1529.5800, -31.344
1529.6000, -31.205
1529.6200, -31.218
1529.6400, -31.139
1529.6600, -31.075
1529.6800, -31.032
1529.7000, -30.987
1529.7200, -31.004
1529.7400, -30.917
1529.7600, -30.911
1529.7800, -30.942
1529.8000, -30.791
1529.8200, -30.776
1529.8400, -30.660
1529.8600, -30.653
1529.8800, -30.626
1529.9000, -30.583
1529.9200, -30.552
1529.9400, -30.529
1529.9600, -30.561
1529.9800, -30.549
1530.0000, -30.448
1530.0200, -30.419
1530.0400, -30.425
1530.0600, -30.293
1530.0800, -30.349
1530.1000, -30.244
1530.1200, -30.236
1530.1400, -30.153
1530.1600, -30.143
1530.1800, -30.220
1530.2000, -30.181
1530.2200, -29.997
1530.2400, -30.015
1530.2600, -30.008
1530.2800, -30.010
1530.3000, -29.998
1530.3200, -30.055
1530.3400, -29.994
1530.3600, -29.854
1530.3800, -29.828
1530.4000, -29.662
1530.4200, -29.573
1530.4400, -29.541
1530.4600, -29.577
1530.4800, -29.688
1530.5000, -29.515
1530.5200, -29.460
1530.5400, -29.365
1530.5600, -29.337
1530.5800, -29.217
1530.6000, -29.104
1530.6200, -29.134
1530.6400, -29.062
1530.6600, -29.074
1530.6800, -29.001
1530.7000, -28.959
1530.7200, -28.922
1530.7400, -29.030
1530.7600, -28.956
1530.7800, -28.833
1530.8000, -28.811
1530.8200, -28.909
1530.8400, -28.893
1530.8600, -28.855
1530.8800, -28.817
1530.9000, -28.833
1530.9200, -28.850
1530.9400, -28.757
1530.9600, -28.637
1530.9800, -28.758
1531.0000, -28.775
1531.0200, -28.750
1531.0400, -28.693
1531.0600, -28.737
1531.0800, -28.728
1531.1000, -28.665
1531.1200, -28.684
1531.1400, -28.690
1531.1600, -28.635
1531.1800, -28.586
1531.2000, -28.431
1531.2200, -28.553
1531.2400, -28.375
1531.2600, -28.421
1531.2800, -28.191
1531.3000, -28.234
1531.3200, -28.161
1531.3400, -28.196
1531.3600, -27.825
1531.3800, -27.548
1531.4000, -27.801
1531.4200, -28.003
1531.4400, -27.238
1531.4600, -27.507
1531.4800, -27.761
1531.5000, -28.017
1531.5200, -28.046
1531.5400, -27.939
1531.5600, -27.040
1531.5800, -26.921
1531.6000, -27.942
1531.6200, -27.784
1531.6400, -27.396
1531.6600, -27.730
1531.6800, -27.482
1531.7000, -27.899
1531.7200, -27.672
1531.7400, -27.092
1531.7600, -27.377
1531.7800, -27.234
1531.8000, -27.521
1531.8200, -26.980
1531.8400, -27.428
1531.8600, -26.817
1531.8800, -27.146
1531.9000, -27.280
1531.9200, -26.798
1531.9400, -26.960
1531.9600, -27.346
1531.9800, -26.957
1532.0000, -26.571
1532.0200, -25.653
1532.0400, -26.552
1532.0600, -27.494
1532.0800, -27.478
1532.1000, -27.134
1532.1200, -26.794
1532.1400, -27.869
1532.1600, -26.629
1532.1800, -27.539
1532.2000, -27.291
1532.2200, -26.945
1532.2400, -27.444
1532.2600, -28.129
1532.2800, -27.707
1532.3000, -27.785
1532.3200, -25.896
1532.3400, -26.222
1532.3600, -27.291
1532.3800, -27.610
1532.4000, -26.850
1532.4200, -27.582
1532.4400, -27.894
1532.4600, -27.752
1532.4800, -28.006
1532.5000, -27.055
1532.5200, -27.335
1532.5400, -26.989
1532.5600, -27.134
1532.5800, -27.077
1532.6000, -27.572
1532.6200, -28.271
1532.6400, -26.506
1532.6600, -28.140
1532.6800, -28.027
1532.7000, -27.559
1532.7200, -27.305
1532.7400, -27.619
1532.7600, -27.684
1532.7800, -27.970
1532.8000, -27.872
1532.8200, -27.448
1532.8400, -27.984
1532.8600, -28.055
1532.8800, -28.315
1532.9000, -28.034
1532.9200, -27.624
1532.9400, -27.645
1532.9600, -27.844
1532.9800, -28.209
1533.0000, -28.501
1533.0200, -28.169
1533.0400, -28.554
1533.0600, -28.378
1533.0800, -27.544
1533.1000, -27.804
1533.1200, -28.406
1533.1400, -28.576
1533.1600, -28.493
1533.1800, -27.142
1533.2000, -27.992
1533.2200, -28.726
1533.2400, -28.807
1533.2600, -28.865
1533.2800, -28.927
1533.3000, -28.945
1533.3200, -28.876
1533.3400, -28.937
1533.3600, -28.652
1533.3800, -28.925
1533.4000, -29.231
1533.4200, -29.161
1533.4400, -29.098
1533.4600, -29.301
1533.4800, -29.300
1533.5000, -29.319
1533.5200, -29.177
1533.5400, -29.817
1533.5600, -29.783
1533.5800, -29.700
1533.6000, -29.623
1533.6200, -29.897
1533.6400, -30.015
1533.6600, -30.167
1533.6800, -30.127
1533.7000, -30.145
1533.7200, -30.186
1533.7400, -30.307
1533.7600, -30.495
1533.7800, -30.663
1533.8000, -30.742
1533.8200, -30.651
1533.8400, -30.710
1533.8600, -30.753
1533.8800, -30.951
1533.9000, -31.032
1533.9200, -31.101
1533.9400, -31.186
1533.9600, -31.247
1533.9800, -31.347
1534.0000, -31.407
1534.0200, -31.599
1534.0400, -31.498
1534.0600, -31.561
1534.0800, -31.656
1534.1000, -31.682
1534.1200, -31.728
1534.1400, -31.669
1534.1600, -31.855
1534.1800, -31.980
1534.2000, -32.000
1534.2200, -32.028
1534.2400, -32.000
1534.2600, -32.077
1534.2800, -32.126
1534.3000, -32.251
1534.3200, -32.309
1534.3400, -32.417
1534.3600, -32.544
1534.3800, -32.505
1534.4000, -32.600
1534.4200, -32.724
1534.4400, -32.724
1534.4600, -32.849
1534.4800, -32.779
1534.5000, -32.982
1534.5200, -33.023
1534.5400, -33.088
1534.5600, -33.153
1534.5800, -33.169
1534.6000, -33.213
1534.6200, -33.353
1534.6400, -33.352
1534.6600, -33.468
1534.6800, -33.416
1534.7000, -33.536
1534.7200, -33.572
1534.7400, -33.648
1534.7600, -33.746
1534.7800, -33.816
1534.8000, -33.808
1534.8200, -33.905
1534.8400, -33.950
1534.8600, -34.014
1534.8800, -34.059
1534.9000, -34.117
1534.9200, -34.150
1534.9400, -34.193
1534.9600, -34.281
1534.9800, -34.342
1535.0000, -34.446
1535.0200, -34.489
1535.0400, -34.543
1535.0600, -34.577
1535.0800, -34.680
1535.1000, -34.723
1535.1200, -34.778
1535.1400, -34.831
1535.1600, -34.875
1535.1800, -34.907
1535.2000, -34.972
1535.2200, -35.020
1535.2400, -35.090
1535.2600, -35.145
1535.2800, -35.200
1535.3000, -35.263
1535.3200, -35.322
1535.3400, -35.377
1535.3600, -35.433
1535.3800, -35.484
1535.4000, -35.527
1535.4200, -35.578
1535.4400, -35.635
1535.4600, -35.700
1535.4800, -35.755
1535.5000, -35.815
1535.5200, -35.855
1535.5400, -35.923
1535.5600, -35.979
1535.5800, -36.036
1535.6000, -36.074
1535.6200, -36.128
1535.6400, -36.183
1535.6600, -36.247
1535.6800, -36.308
1535.7000, -36.371
1535.7200, -36.425
1535.7400, -36.460
1535.7600, -36.521
1535.7800, -36.582
1535.8000, -36.630
1535.8200, -36.674
1535.8400, -36.723
1535.8600, -36.774
1535.8800, -36.827
1535.9000, -36.874
1535.9200, -36.922
1535.9400, -36.969
1535.9600, -37.027
1535.9800, -37.083
1536.0000, -37.128
1536.0200, -37.173
1536.0400, -37.218
1536.0600, -37.257
1536.0800, -37.304
1536.1000, -37.347
1536.1200, -37.390
1536.1400, -37.449
1536.1600, -37.489
1536.1800, -37.532
1536.2000, -37.582
1536.2200, -37.619
1536.2400, -37.657
1536.2600, -37.697
1536.2800, -37.729
1536.3000, -37.769
1536.3200, -37.809
1536.3400, -37.854
1536.3600, -37.897
1536.3800, -37.942
1536.4000, -37.976
1536.4200, -38.021
1536.4400, -38.063
1536.4600, -38.103
1536.4800, -38.142
1536.5000, -38.171
1536.5200, -38.215
1536.5400, -38.262
1536.5600, -38.291
1536.5800, -38.329
1536.6000, -38.363
1536.6200, -38.397
1536.6400, -38.426
1536.6600, -38.465
1536.6800, -38.491
1536.7000, -38.528
1536.7200, -38.565
1536.7400, -38.591
1536.7600, -38.632
1536.7800, -38.658
1536.8000, -38.692
1536.8200, -38.727
1536.8400, -38.764
1536.8600, -38.807
1536.8800, -38.842
1536.9000, -38.864
1536.9200, -38.906
1536.9400, -38.935
1536.9600, -38.966
1536.9800, -38.993
1537.0000, -39.026
1537.0200, -39.067
1537.0400, -39.095
1537.0600, -39.134
1537.0800, -39.163
1537.1000, -39.183
1537.1200, -39.208
1537.1400, -39.229
1537.1600, -39.269
1537.1800, -39.299
1537.2000, -39.322
1537.2200, -39.347
1537.2400, -39.379
1537.2600, -39.402
1537.2800, -39.430
1537.3000, -39.458
1537.3200, -39.483
1537.3400, -39.509
1537.3600, -39.536
1537.3800, -39.562
1537.4000, -39.586
1537.4200, -39.605
1537.4400, -39.630
1537.4600, -39.657
1537.4800, -39.679
1537.5000, -39.705
1537.5200, -39.731
1537.5400, -39.748
1537.5600, -39.768
1537.5800, -39.798
1537.6000, -39.820
1537.6200, -39.848
1537.6400, -39.873
1537.6600, -39.893
1537.6800, -39.917
1537.7000, -39.926
1537.7200, -39.944
1537.7400, -39.964
1537.7600, -39.985
1537.7800, -40.009
1537.8000, -40.033
1537.8200, -40.047
1537.8400, -40.073
1537.8600, -40.095
1537.8800, -40.113
1537.9000, -40.126
1537.9200, -40.153
1537.9400, -40.168
1537.9600, -40.186
1537.9800, -40.210
1538.0000, -40.228
1538.0200, -40.244
1538.0400, -40.262
1538.0600, -40.274
1538.0800, -40.295
1538.1000, -40.310
1538.1200, -40.325
1538.1400, -40.346
1538.1600, -40.369
1538.1800, -40.377
1538.2000, -40.394
1538.2200, -40.412
1538.2400, -40.435
1538.2600, -40.445
1538.2800, -40.459
1538.3000, -40.477
1538.3200, -40.491
1538.3400, -40.497
1538.3600, -40.511
1538.3800, -40.524
1538.4000, -40.537
1538.4200, -40.555
1538.4400, -40.565
1538.4600, -40.582
1538.4800, -40.601
1538.5000, -40.610
1538.5200, -40.620
1538.5400, -40.637
1538.5600, -40.641
1538.5800, -40.659
1538.6000, -40.666
1538.6200, -40.686
1538.6400, -40.697
1538.6600, -40.708
1538.6800, -40.704
1538.7000, -40.718
1538.7200, -40.725
1538.7400, -40.737
1538.7600, -40.749
1538.7800, -40.756
1538.8000, -40.764
1538.8200, -40.774
1538.8400, -40.782
1538.8600, -40.793
1538.8800, -40.797
1538.9000, -40.811
1538.9200, -40.822
1538.9400, -40.820
1538.9600, -40.827
1538.9800, -40.837
1539.0000, -40.845
1539.0200, -40.853
1539.0400, -40.855
1539.0600, -40.864
1539.0800, -40.877
1539.1000, -40.878
1539.1200, -40.892
1539.1400, -40.899
1539.1600, -40.905
1539.1800, -40.905
1539.2000, -40.899
1539.2200, -40.905
1539.2400, -40.921
1539.2600, -40.925
1539.2800, -40.925
1539.3000, -40.935
1539.3200, -40.943
1539.3400, -40.954
1539.3600, -40.953
1539.3800, -40.959
1539.4000, -40.968
1539.4200, -40.972
1539.4400, -40.974
1539.4600, -40.982
1539.4800, -40.991
1539.5000, -40.990
1539.5200, -40.991
1539.5400, -40.998
1539.5600, -41.004
1539.5800, -41.018
1539.6000, -41.015
1539.6200, -41.032
1539.6400, -41.035
1539.6600, -41.035
1539.6800, -41.041
1539.7000, -41.040
1539.7200, -41.039
1539.7400, -41.044
1539.7600, -41.049
1539.7800, -41.044
1539.8000, -41.047
1539.8200, -41.053
1539.8400, -41.060
1539.8600, -41.048
1539.8800, -41.050
1539.9000, -41.049
1539.9200, -41.064
1539.9400, -41.065
1539.9600, -41.063
1539.9800, -41.064
1540.0000, -41.063
1540.0200, -41.062
1540.0400, -41.071
1540.0600, -41.077
1540.0800, -41.068
1540.1000, -41.076
1540.1200, -41.080
1540.1400, -41.073
1540.1600, -41.073
1540.1800, -41.084
1540.2000, -41.081
1540.2200, -41.081
1540.2400, -41.085
1540.2600, -41.087
1540.2800, -41.077
1540.3000, -41.077
1540.3200, -41.071
1540.3400, -41.070
1540.3600, -41.071
1540.3800, -41.073
1540.4000, -41.067
1540.4200, -41.075
1540.4400, -41.075
1540.4600, -41.074
1540.4800, -41.072
1540.5000, -41.072
1540.5200, -41.070
1540.5400, -41.068
1540.5600, -41.057
1540.5800, -41.061
1540.6000, -41.066
1540.6200, -41.064
1540.6400, -41.060
1540.6600, -41.065
1540.6800, -41.063
1540.7000, -41.054
1540.7200, -41.058
1540.7400, -41.061
1540.7600, -41.058
1540.7800, -41.042
1540.8000, -41.050
1540.8200, -41.043
1540.8400, -41.042
1540.8600, -41.039
1540.8800, -41.038
1540.9000, -41.039
1540.9200, -41.034
1540.9400, -41.037
1540.9600, -41.038
1540.9800, -41.036
1541.0000, -41.029
1541.0200, -41.030
1541.0400, -41.029
1541.0600, -41.015
1541.0800, -41.006
1541.1000, -41.008
1541.1200, -41.012
1541.1400, -41.007
1541.1600, -41.006
1541.1800, -41.002
1541.2000, -41.004
1541.2200, -41.006
1541.2400, -40.997
1541.2600, -40.993
1541.2800, -40.992
1541.3000, -40.983
1541.3200, -40.989
1541.3400, -40.987
1541.3600, -40.985
1541.3800, -40.983
1541.4000, -40.977
1541.4200, -40.971
1541.4400, -40.971
1541.4600, -40.967
1541.4800, -40.965
1541.5000, -40.961
1541.5200, -40.955
1541.5400, -40.950
1541.5600, -40.948
1541.5800, -40.954
1541.6000, -40.947
1541.6200, -40.946
1541.6400, -40.940
1541.6600, -40.936
1541.6800, -40.929
1541.7000, -40.923
1541.7200, -40.913
1541.7400, -40.914
1541.7600, -40.909
1541.7800, -40.904
1541.8000, -40.900
1541.8200, -40.898
1541.8400, -40.892
1541.8600, -40.901
1541.8800, -40.899
1541.9000, -40.897
1541.9200, -40.884
1541.9400, -40.883
1541.9600, -40.883
1541.9800, -40.869
1542.0000, -40.864
1542.0200, -40.862
1542.0400, -40.863
1542.0600, -40.854
1542.0800, -40.851
1542.1000, -40.844
1542.1200, -40.843
1542.1400, -40.843
1542.1600, -40.836
1542.1800, -40.834
1542.2000, -40.834
1542.2200, -40.819
1542.2400, -40.829
1542.2600, -40.826
1542.2800, -40.824
1542.3000, -40.817
1542.3200, -40.805
1542.3400, -40.804
1542.3600, -40.802
1542.3800, -40.783
1542.4000, -40.789
1542.4200, -40.783
1542.4400, -40.777
1542.4600, -40.767
1542.4800, -40.767
1542.5000, -40.756
1542.5200, -40.753
1542.5400, -40.749
1542.5600, -40.755
1542.5800, -40.753
1542.6000, -40.742
1542.6200, -40.737
1542.6400, -40.730
1542.6600, -40.726
1542.6800, -40.722
1542.7000, -40.720
1542.7200, -40.712
1542.7400, -40.709
1542.7600, -40.706
1542.7800, -40.712
1542.8000, -40.709
1542.8200, -40.703
1542.8400, -40.699
1542.8600, -40.697
1542.8800, -40.691
1542.9000, -40.687
1542.9200, -40.682
1542.9400, -40.671
1542.9600, -40.667
1542.9800, -40.663
1543.0000, -40.661
1543.0200, -40.649
1543.0400, -40.643
1543.0600, -40.638
1543.0800, -40.636
1543.1000, -40.636
1543.1200, -40.630
1543.1400, -40.621
1543.1600, -40.632
1543.1800, -40.628
1543.2000, -40.627
1543.2200, -40.624
1543.2400, -40.624
1543.2600, -40.620
1543.2800, -40.619
1543.3000, -40.609
1543.3200, -40.612
1543.3400, -40.606
1543.3600, -40.601
1543.3800, -40.599
1543.4000, -40.602
1543.4200, -40.591
1543.4400, -40.597
1543.4600, -40.594
1543.4800, -40.592
1543.5000, -40.586
1543.5200, -40.573
1543.5400, -40.572
1543.5600, -40.566
1543.5800, -40.562
1543.6000, -40.555
1543.6200, -40.556
1543.6400, -40.551
1543.6600, -40.550
1543.6800, -40.548
1543.7000, -40.554
1543.7200, -40.546
1543.7400, -40.541
1543.7600, -40.535
1543.7800, -40.528
1543.8000, -40.524
1543.8200, -40.518
1543.8400, -40.512
1543.8600, -40.513
1543.8800, -40.514
1543.9000, -40.513
1543.9200, -40.508
1543.9400, -40.513
1543.9600, -40.506
1543.9800, -40.504
1544.0000, -40.507
1544.0200, -40.506
1544.0400, -40.509
1544.0600, -40.506
1544.0800, -40.502
1544.1000, -40.501
1544.1200, -40.493
1544.1400, -40.493
1544.1600, -40.481
1544.1800, -40.481
1544.2000, -40.479
1544.2200, -40.482
1544.2400, -40.481
1544.2600, -40.481
1544.2800, -40.473
1544.3000, -40.477
1544.3200, -40.474
1544.3400, -40.471
1544.3600, -40.472
1544.3800, -40.469
1544.4000, -40.468
1544.4200, -40.465
1544.4400, -40.457
1544.4600, -40.456
1544.4800, -40.453
1544.5000, -40.446
1544.5200, -40.447
1544.5400, -40.447
1544.5600, -40.445
1544.5800, -40.441
1544.6000, -40.445
1544.6200, -40.444
1544.6400, -40.446
1544.6600, -40.445
1544.6800, -40.444
1544.7000, -40.440
1544.7200, -40.441
1544.7400, -40.438
1544.7600, -40.433
1544.7800, -40.429
1544.8000, -40.437
1544.8200, -40.437
1544.8400, -40.435
1544.8600, -40.432
1544.8800, -40.428
1544.9000, -40.430
1544.9200, -40.430
1544.9400, -40.434
1544.9600, -40.433
1544.9800, -40.426
1545.0000, -40.419
1545.0200, -40.417
1545.0400, -40.419
1545.0600, -40.432
1545.0800, -40.429
1545.1000, -40.429
1545.1200, -40.427
1545.1400, -40.425
1545.1600, -40.423
1545.1800, -40.413
1545.2000, -40.419
1545.2200, -40.423
1545.2400, -40.421
1545.2600, -40.427
1545.2800, -40.427
1545.3000, -40.423
1545.3200, -40.426
1545.3400, -40.425
1545.3600, -40.424
1545.3800, -40.420
1545.4000, -40.415
1545.4200, -40.413
1545.4400, -40.414
1545.4600, -40.410
1545.4800, -40.408
1545.5000, -40.413
1545.5200, -40.409
1545.5400, -40.406
1545.5600, -40.402
1545.5800, -40.397
1545.6000, -40.399
1545.6200, -40.403
1545.6400, -40.404
1545.6600, -40.405
1545.6800, -40.402
1545.7000, -40.401
1545.7200, -40.407
1545.7400, -40.399
1545.7600, -40.405
1545.7800, -40.403
1545.8000, -40.396
1545.8200, -40.397
1545.8400, -40.394
1545.8600, -40.391
1545.8800, -40.401
1545.9000, -40.392
1545.9200, -40.391
1545.9400, -40.389
1545.9600, -40.398
1545.9800, -40.394
1546.0000, -40.392
1546.0200, -40.394
1546.0400, -40.389
1546.0600, -40.384
1546.0800, -40.368
1546.1000, -40.377
1546.1200, -40.380
1546.1400, -40.377
1546.1600, -40.383
1546.1800, -40.392
1546.2000, -40.393
1546.2200, -40.392
1546.2400, -40.388
1546.2600, -40.389
1546.2800, -40.386
1546.3000, -40.383
1546.3200, -40.382
1546.3400, -40.378
1546.3600, -40.380
1546.3800, -40.388
1546.4000, -40.396
1546.4200, -40.396
1546.4400, -40.401
1546.4600, -40.402
1546.4800, -40.404
1546.5000, -40.401
1546.5200, -40.403
1546.5400, -40.402
1546.5600, -40.394
1546.5800, -40.395
1546.6000, -40.401
1546.6200, -40.406
1546.6400, -40.408
1546.6600, -40.407
1546.6800, -40.415
1546.7000, -40.407
1546.7200, -40.408
1546.7400, -40.405
1546.7600, -40.401
1546.7800, -40.405
1546.8000, -40.396
1546.8200, -40.391
1546.8400, -40.392
1546.8600, -40.400
1546.8800, -40.402
1546.9000, -40.400
1546.9200, -40.400
1546.9400, -40.397
1546.9600, -40.399
1546.9800, -40.391
1547.0000, -40.390
1547.0200, -40.393
1547.0400, -40.390
1547.0600, -40.395
1547.0800, -40.402
1547.1000, -40.400
1547.1200, -40.398
1547.1400, -40.399
1547.1600, -40.394
1547.1800, -40.402
1547.2000, -40.402
1547.2200, -40.394
1547.2400, -40.397
1547.2600, -40.398
1547.2800, -40.407
1547.3000, -40.411
1547.3200, -40.408
1547.3400, -40.410
1547.3600, -40.409
1547.3800, -40.413
1547.4000, -40.410
1547.4200, -40.408
1547.4400, -40.408
1547.4600, -40.407
1547.4800, -40.404
1547.5000, -40.400
1547.5200, -40.402
1547.5400, -40.405
1547.5600, -40.400
1547.5800, -40.408
1547.6000, -40.399
1547.6200, -40.405
1547.6400, -40.411
1547.6600, -40.418
1547.6800, -40.420
1547.7000, -40.416
1547.7200, -40.420
1547.7400, -40.425
1547.7600, -40.429
1547.7800, -40.430
1547.8000, -40.429
1547.8200, -40.431
1547.8400, -40.434
1547.8600, -40.431
1547.8800, -40.424
1547.9000, -40.425
1547.9200, -40.431
1547.9400, -40.434
1547.9600, -40.435
1547.9800, -40.444
1548.0000, -40.445
1548.0200, -40.444
1548.0400, -40.450
1548.0600, -40.448
1548.0800, -40.449
1548.1000, -40.446
1548.1200, -40.436
1548.1400, -40.438
1548.1600, -40.437
1548.1800, -40.437
1548.2000, -40.451
1548.2200, -40.454
1548.2400, -40.460
1548.2600, -40.463
1548.2800, -40.455
1548.3000, -40.453
1548.3200, -40.458
1548.3400, -40.466
1548.3600, -40.465
1548.3800, -40.462
1548.4000, -40.463
1548.4200, -40.468
1548.4400, -40.469
1548.4600, -40.469
1548.4800, -40.475
1548.5000, -40.470
1548.5200, -40.469
1548.5400, -40.469
1548.5600, -40.472
1548.5800, -40.473
1548.6000, -40.476
1548.6200, -40.483
1548.6400, -40.478
1548.6600, -40.475
1548.6800, -40.484
1548.7000, -40.485
1548.7200, -40.487
1548.7400, -40.490
1548.7600, -40.494
1548.7800, -40.493
1548.8000, -40.494
1548.8200, -40.497
1548.8400, -40.497
1548.8600, -40.498
1548.8800, -40.506
1548.9000, -40.503
1548.9200, -40.505
1548.9400, -40.507
1548.9600, -40.506
1548.9800, -40.507
1549.0000, -40.506
1549.0200, -40.509
1549.0400, -40.504
1549.0600, -40.507
1549.0800, -40.508
1549.1000, -40.516
1549.1200, -40.510
1549.1400, -40.515
1549.1600, -40.522
1549.1800, -40.512
1549.2000, -40.526
1549.2200, -40.523
1549.2400, -40.524
1549.2600, -40.529
1549.2800, -40.524
1549.3000, -40.524
1549.3200, -40.524
1549.3400, -40.525
1549.3600, -40.526
1549.3800, -40.524
1549.4000, -40.526
1549.4200, -40.531
1549.4400, -40.539
1549.4600, -40.545
1549.4800, -40.549
1549.5000, -40.550
1549.5200, -40.560
1549.5400, -40.563
1549.5600, -40.561
1549.5800, -40.564
1549.6000, -40.565
1549.6200, -40.565
1549.6400, -40.565
1549.6600, -40.568
1549.6800, -40.569
1549.7000, -40.570
1549.7200, -40.571
1549.7400, -40.570
1549.7600, -40.573
1549.7800, -40.586
1549.8000, -40.590
1549.8200, -40.592
1549.8400, -40.599
1549.8600, -40.603
1549.8800, -40.603
1549.9000, -40.602
1549.9200, -40.599
1549.9400, -40.595
1549.9600, -40.595
1549.9800, -40.605
1550.0000, -40.608
1550.0200, -40.614
1550.0400, -40.614
1550.0600, -40.614
1550.0800, -40.616
1550.1000, -40.618
1550.1200, -40.614
1550.1400, -40.612
1550.1600, -40.611
1550.1800, -40.609
1550.2000, -40.615
1550.2200, -40.620
1550.2400, -40.621
1550.2600, -40.630
1550.2800, -40.632
1550.3000, -40.638
1550.3200, -40.646
1550.3400, -40.651
1550.3600, -40.655
1550.3800, -40.662
1550.4000, -40.666
1550.4200, -40.671
1550.4400, -40.672
1550.4600, -40.667
1550.4800, -40.672
1550.5000, -40.671
1550.5200, -40.670
1550.5400, -40.674
1550.5600, -40.673
1550.5800, -40.676
1550.6000, -40.677
1550.6200, -40.681
1550.6400, -40.695
1550.6600, -40.700
1550.6800, -40.700
1550.7000, -40.709
1550.7200, -40.710
1550.7400, -40.709
1550.7600, -40.714
1550.7800, -40.721
1550.8000, -40.725
1550.8200, -40.726
1550.8400, -40.722
1550.8600, -40.726
1550.8800, -40.735
1550.9000, -40.739
1550.9200, -40.743
1550.9400, -40.742
1550.9600, -40.750
1550.9800, -40.749
1551.0000, -40.752
1551.0200, -40.747
1551.0400, -40.746
1551.0600, -40.752
1551.0800, -40.755
1551.1000, -40.758
1551.1200, -40.762
1551.1400, -40.759
1551.1600, -40.761
1551.1800, -40.771
1551.2000, -40.773
1551.2200, -40.776
1551.2400, -40.782
1551.2600, -40.788
1551.2800, -40.794
1551.3000, -40.797
1551.3200, -40.796
1551.3400, -40.800
1551.3600, -40.803
1551.3800, -40.796
1551.4000, -40.800
1551.4200, -40.800
1551.4400, -40.798
1551.4600, -40.799
1551.4800, -40.800
1551.5000, -40.800
1551.5200, -40.801
1551.5400, -40.805
1551.5600, -40.811
1551.5800, -40.810
1551.6000, -40.817
1551.6200, -40.820
1551.6400, -40.819
1551.6600, -40.826
1551.6800, -40.831
1551.7000, -40.832
1551.7200, -40.836
1551.7400, -40.840
1551.7600, -40.842
1551.7800, -40.852
1551.8000, -40.858
1551.8200, -40.861
1551.8400, -40.864
1551.8600, -40.866
1551.8800, -40.868
1551.9000, -40.869
1551.9200, -40.865
1551.9400, -40.866
1551.9600, -40.873
1551.9800, -40.869
1552.0000, -40.872
1552.0200, -40.876
1552.0400, -40.873
1552.0600, -40.885
1552.0800, -40.888
1552.1000, -40.894
1552.1200, -40.899
1552.1400, -40.906
1552.1600, -40.909
1552.1800, -40.920
1552.2000, -40.924
1552.2200, -40.927
1552.2400, -40.928
1552.2600, -40.929
1552.2800, -40.926
1552.3000, -40.925
1552.3200, -40.929
1552.3400, -40.934
1552.3600, -40.935
1552.3800, -40.937
1552.4000, -40.940
1552.4200, -40.940
1552.4400, -40.942
1552.4600, -40.944
1552.4800, -40.945
1552.5000, -40.950
1552.5200, -40.957
1552.5400, -40.954
1552.5600, -40.954
1552.5800, -40.959
1552.6000, -40.965
1552.6200, -40.968
1552.6400, -40.981
1552.6600, -40.981
1552.6800, -40.991
1552.7000, -40.994
1552.7200, -41.000
1552.7400, -41.005
1552.7600, -41.007
1552.7800, -41.012
1552.8000, -41.013
1552.8200, -41.014
1552.8400, -41.009
1552.8600, -41.012
1552.8800, -41.017
1552.9000, -41.022
1552.9200, -41.020
1552.9400, -41.019
1552.9600, -41.026
1552.9800, -41.023
1553.0000, -41.029
1553.0200, -41.033
1553.0400, -41.032
1553.0600, -41.037
1553.0800, -41.044
1553.1000, -41.047
1553.1200, -41.051
1553.1400, -41.052
1553.1600, -41.056
1553.1800, -41.059
1553.2000, -41.057
1553.2200, -41.057
1553.2400, -41.064
1553.2600, -41.067
1553.2800, -41.070
1553.3000, -41.073
1553.3200, -41.081
1553.3400, -41.076
1553.3600, -41.081
1553.3800, -41.081
1553.4000, -41.079
1553.4200, -41.078
1553.4400, -41.077
1553.4600, -41.078
1553.4800, -41.084
1553.5000, -41.082
1553.5200, -41.080
1553.5400, -41.088
1553.5600, -41.086
1553.5800, -41.097
1553.6000, -41.100
1553.6200, -41.100
1553.6400, -41.106
1553.6600, -41.109
1553.6800, -41.110
1553.7000, -41.106
1553.7200, -41.102
1553.7400, -41.104
1553.7600, -41.107
1553.7800, -41.113
1553.8000, -41.115
1553.8200, -41.116
1553.8400, -41.119
1553.8600, -41.123
1553.8800, -41.124
1553.9000, -41.128
1553.9200, -41.131
1553.9400, -41.131
1553.9600, -41.137
1553.9800, -41.140
1554.0000, -41.145
1554.0200, -41.150
1554.0400, -41.154
1554.0600, -41.156
1554.0800, -41.160
1554.1000, -41.157
1554.1200, -41.169
1554.1400, -41.176
1554.1600, -41.177
1554.1800, -41.179
1554.2000, -41.181
1554.2200, -41.188
1554.2400, -41.183
1554.2600, -41.183
1554.2800, -41.185
1554.3000, -41.192
1554.3200, -41.187
1554.3400, -41.186
1554.3600, -41.191
1554.3800, -41.191
1554.4000, -41.192
1554.4200, -41.192
1554.4400, -41.199
1554.4600, -41.193
1554.4800, -41.204
1554.5000, -41.205
1554.5200, -41.203
1554.5400, -41.211
1554.5600, -41.209
1554.5800, -41.216
1554.6000, -41.216
1554.6200, -41.218
1554.6400, -41.218
1554.6600, -41.223
1554.6800, -41.229
1554.7000, -41.233
1554.7200, -41.235
1554.7400, -41.236
1554.7600, -41.241
1554.7800, -41.239
1554.8000, -41.244
1554.8200, -41.248
1554.8400, -41.243
1554.8600, -41.245
1554.8800, -41.249
1554.9000, -41.252
1554.9200, -41.255
1554.9400, -41.258
1554.9600, -41.260
1554.9800, -41.261
1555.0000, -41.257
1555.0200, -41.267
1555.0400, -41.264
1555.0600, -41.264
1555.0800, -41.265
1555.1000, -41.269
1555.1200, -41.274
1555.1400, -41.268
1555.1600, -41.271
1555.1800, -41.278
1555.2000, -41.278
1555.2200, -41.277
1555.2400, -41.280
1555.2600, -41.291
1555.2800, -41.294
1555.3000, -41.296
1555.3200, -41.298
1555.3400, -41.305
1555.3600, -41.300
1555.3800, -41.304
1555.4000, -41.301
1555.4200, -41.301
1555.4400, -41.309
1555.4600, -41.311
1555.4800, -41.309
1555.5000, -41.305
1555.5200, -41.315
1555.5400, -41.322
1555.5600, -41.320
1555.5800, -41.325
1555.6000, -41.328
1555.6200, -41.330
1555.6400, -41.328
1555.6600, -41.336
1555.6800, -41.337
1555.7000, -41.341
1555.7200, -41.339
1555.7400, -41.341
1555.7600, -41.337
1555.7800, -41.346
1555.8000, -41.354
1555.8200, -41.355
1555.8400, -41.356
1555.8600, -41.354
1555.8800, -41.357
1555.9000, -41.360
1555.9200, -41.362
1555.9400, -41.364
1555.9600, -41.370
1555.9800, -41.371
1556.0000, -41.382
1556.0200, -41.388
1556.0400, -41.385
1556.0600, -41.389
1556.0800, -41.392
1556.1000, -41.392
1556.1200, -41.395
1556.1400, -41.403
1556.1600, -41.409
1556.1800, -41.411
1556.2000, -41.408
1556.2200, -41.412
1556.2400, -41.418
1556.2600, -41.415
1556.2800, -41.418
1556.3000, -41.415
1556.3200, -41.426
1556.3400, -41.434
1556.3600, -41.432
1556.3800, -41.425
1556.4000, -41.433
1556.4200, -41.443
1556.4400, -41.438
1556.4600, -41.442
1556.4800, -41.446
1556.5000, -41.446
1556.5200, -41.450
1556.5400, -41.459
1556.5600, -41.457
1556.5800, -41.460
1556.6000, -41.465
1556.6200, -41.464
1556.6400, -41.470
1556.6600, -41.469
1556.6800, -41.483
1556.7000, -41.491
1556.7200, -41.495
1556.7400, -41.497
1556.7600, -41.499
1556.7800, -41.497
1556.8000, -41.507
1556.8200, -41.510
1556.8400, -41.514
1556.8600, -41.514
1556.8800, -41.518
1556.9000, -41.528
1556.9200, -41.525
1556.9400, -41.534
1556.9600, -41.535
1556.9800, -41.532
1557.0000, -41.536
1557.0200, -41.536
1557.0400, -41.540
1557.0600, -41.541
1557.0800, -41.538
1557.1000, -41.541
1557.1200, -41.550
1557.1400, -41.551
1557.1600, -41.554
1557.1800, -41.560
1557.2000, -41.562
1557.2200, -41.569
1557.2400, -41.576
1557.2600, -41.577
1557.2800, -41.574
1557.3000, -41.589
1557.3200, -41.589
1557.3400, -41.590
1557.3600, -41.598
1557.3800, -41.602
1557.4000, -41.606
1557.4200, -41.618
1557.4400, -41.625
1557.4600, -41.630
1557.4800, -41.635
1557.5000, -41.641
1557.5200, -41.646
1557.5400, -41.650
1557.5600, -41.654
1557.5800, -41.658
1557.6000, -41.661
1557.6200, -41.665
1557.6400, -41.666
1557.6600, -41.668
1557.6800, -41.675
1557.7000, -41.682
1557.7200, -41.687
1557.7400, -41.691
1557.7600, -41.687
1557.7800, -41.694
1557.8000, -41.698
1557.8200, -41.703
1557.8400, -41.707
1557.8600, -41.706
1557.8800, -41.711
1557.9000, -41.707
1557.9200, -41.714
1557.9400, -41.718
1557.9600, -41.722
1557.9800, -41.726
1558.0000, -41.737
1558.0200, -41.748
1558.0400, -41.753
1558.0600, -41.761
1558.0800, -41.759
1558.1000, -41.774
1558.1200, -41.782
1558.1400, -41.787
1558.1600, -41.788
1558.1800, -41.791
1558.2000, -41.801
1558.2200, -41.800
1558.2400, -41.806
1558.2600, -41.812
1558.2800, -41.812
1558.3000, -41.824
1558.3200, -41.831
1558.3400, -41.831
1558.3600, -41.841
1558.3800, -41.848
1558.4000, -41.851
1558.4200, -41.863
1558.4400, -41.867
1558.4600, -41.872
1558.4800, -41.877
1558.5000, -41.878
1558.5200, -41.887
1558.5400, -41.890
1558.5600, -41.895
1558.5800, -41.904
1558.6000, -41.909
1558.6200, -41.914
1558.6400, -41.924
1558.6600, -41.926
1558.6800, -41.934
1558.7000, -41.949
1558.7200, -41.952
1558.7400, -41.959
1558.7600, -41.964
1558.7800, -41.969
1558.8000, -41.975
1558.8200, -41.983
1558.8400, -41.987
1558.8600, -41.992
1558.8800, -41.995
1558.9000, -42.002
1558.9200, -42.012
1558.9400, -42.028
1558.9600, -42.036
1558.9800, -42.044
1559.0000, -42.052
1559.0200, -42.063
1559.0400, -42.070
1559.0600, -42.075
1559.0800, -42.081
1559.1000, -42.083
1559.1200, -42.093
1559.1400, -42.102
1559.1600, -42.113
1559.1800, -42.119
1559.2000, -42.127
1559.2200, -42.133
1559.2400, -42.143
1559.2600, -42.153
1559.2800, -42.162
1559.3000, -42.168
1559.3200, -42.179
1559.3400, -42.188
1559.3600, -42.196
1559.3800, -42.195
1559.4000, -42.209
1559.4200, -42.217
1559.4400, -42.224
1559.4600, -42.232
1559.4800, -42.240
1559.5000, -42.247
1559.5200, -42.261
1559.5400, -42.266
1559.5600, -42.278
1559.5800, -42.290
1559.6000, -42.299
1559.6200, -42.306
1559.6400, -42.312
1559.6600, -42.317
1559.6800, -42.326
1559.7000, -42.338
1559.7200, -42.346
1559.7400, -42.352
1559.7600, -42.360
1559.7800, -42.373
1559.8000, -42.385
1559.8200, -42.393
1559.8400, -42.401
1559.8600, -42.406
1559.8800, -42.410
1559.9000, -42.414
1559.9200, -42.422
1559.9400, -42.437
1559.9600, -42.450
1559.9800, -42.456
1560.0000, -42.469
1560.0200, -42.482
1560.0400, -42.493
1560.0600, -42.504
1560.0800, -42.515
1560.1000, -42.518
1560.1200, -42.526
1560.1400, -42.538
1560.1600, -42.550
1560.1800, -42.562
1560.2000, -42.571
1560.2200, -42.584
1560.2400, -42.595
1560.2600, -42.605
1560.2800, -42.620
1560.3000, -42.632
1560.3200, -42.642
1560.3400, -42.651
1560.3600, -42.658
1560.3800, -42.665
1560.4000, -42.675
1560.4200, -42.682
1560.4400, -42.692
1560.4600, -42.703
1560.4800, -42.720
1560.5000, -42.734
1560.5200, -42.746
1560.5400, -42.758
1560.5600, -42.769
1560.5800, -42.781
1560.6000, -42.794
1560.6200, -42.802
1560.6400, -42.819
1560.6600, -42.834
1560.6800, -42.849
1560.7000, -42.864
1560.7200, -42.874
1560.7400, -42.883
1560.7600, -42.898
1560.7800, -42.906
1560.8000, -42.920
1560.8200, -42.922
1560.8400, -42.938
1560.8600, -42.943
1560.8800, -42.955
1560.9000, -42.973
1560.9200, -42.986
1560.9400, -42.998
1560.9600, -43.009
1560.9800, -43.019
1561.0000, -43.029
1561.0200, -43.040
1561.0400, -43.053
1561.0600, -43.068
1561.0800, -43.085
1561.1000, -43.095
1561.1200, -43.111
1561.1400, -43.123
1561.1600, -43.132
1561.1800, -43.146
1561.2000, -43.157
1561.2200, -43.169
1561.2400, -43.183
1561.2600, -43.195
1561.2800, -43.205
1561.3000, -43.219
1561.3200, -43.236
1561.3400, -43.251
1561.3600, -43.265
1561.3800, -43.280
1561.4000, -43.292
1561.4200, -43.309
1561.4400, -43.319
1561.4600, -43.337
1561.4800, -43.346
1561.5000, -43.358
1561.5200, -43.375
1561.5400, -43.388
1561.5600, -43.405
1561.5800, -43.423
1561.6000, -43.433
1561.6200, -43.448
1561.6400, -43.461
1561.6600, -43.481
1561.6800, -43.495
1561.7000, -43.504
1561.7200, -43.524
1561.7400, -43.540
1561.7600, -43.550
1561.7800, -43.565
1561.8000, -43.578
1561.8200, -43.594
1561.8400, -43.608
1561.8600, -43.622
1561.8800, -43.638
1561.9000, -43.650
1561.9200, -43.664
1561.9400, -43.676
1561.9600, -43.695
1561.9800, -43.709
1562.0000, -43.723
1562.0200, -43.738
1562.0400, -43.747
1562.0600, -43.768
1562.0800, -43.778
1562.1000, -43.797
1562.1200, -43.814
1562.1400, -43.829
1562.1600, -43.849
1562.1800, -43.863
1562.2000, -43.884
1562.2200, -43.896
1562.2400, -43.916
1562.2600, -43.926
1562.2800, -43.947
1562.3000, -43.965
1562.3200, -43.977
1562.3400, -43.996
1562.3600, -44.012
1562.3800, -44.026
1562.4000, -44.038
1562.4200, -44.060
1562.4400, -44.071
1562.4600, -44.092
1562.4800, -44.107
1562.5000, -44.115
1562.5200, -44.135
1562.5400, -44.152
1562.5600, -44.161
1562.5800, -44.180
1562.6000, -44.195
1562.6200, -44.213
1562.6400, -44.230
1562.6600, -44.247
1562.6800, -44.262
1562.7000, -44.272
1562.7200, -44.289
1562.7400, -44.306
1562.7600, -44.322
1562.7800, -44.341
1562.8000, -44.358
1562.8200, -44.369
1562.8400, -44.387
1562.8600, -44.411
1562.8800, -44.430
1562.9000, -44.445
1562.9200, -44.464
1562.9400, -44.482
1562.9600, -44.487
1562.9800, -44.504
1563.0000, -44.527
1563.0200, -44.548
1563.0400, -44.565
1563.0600, -44.583
1563.0800, -44.606
1563.1000, -44.615
1563.1200, -44.639
1563.1400, -44.658
1563.1600, -44.672
1563.1800, -44.684
1563.2000, -44.697
1563.2200, -44.717
1563.2400, -44.740
1563.2600, -44.754
1563.2800, -44.768
1563.3000, -44.786
1563.3200, -44.799
1563.3400, -44.822
1563.3600, -44.835
1563.3800, -44.851
1563.4000, -44.878
1563.4200, -44.900
1563.4400, -44.917
1563.4600, -44.927
1563.4800, -44.942
1563.5000, -44.963
1563.5200, -44.978
1563.5400, -45.000
1563.5600, -45.017
1563.5800, -45.026
1563.6000, -45.049
1563.6200, -45.072
1563.6400, -45.086
1563.6600, -45.109
1563.6800, -45.127
1563.7000, -45.146
1563.7200, -45.171
1563.7400, -45.186
1563.7600, -45.205
1563.7800, -45.224
1563.8000, -45.240
1563.8200, -45.257
1563.8400, -45.267
1563.8600, -45.287
1563.8800, -45.314
1563.9000, -45.331
1563.9200, -45.351
1563.9400, -45.367
1563.9600, -45.388
1563.9800, -45.403
1564.0000, -45.426
1564.0200, -45.445
1564.0400, -45.459
1564.0600, -45.475
1564.0800, -45.487
1564.1000, -45.508
1564.1200, -45.531
1564.1400, -45.546
1564.1600, -45.566
1564.1800, -45.580
1564.2000, -45.598
1564.2200, -45.620
1564.2400, -45.639
1564.2600, -45.656
1564.2800, -45.681
1564.3000, -45.698
1564.3200, -45.717
1564.3400, -45.737
1564.3600, -45.756
1564.3800, -45.769
1564.4000, -45.787
1564.4200, -45.809
1564.4400, -45.829
1564.4600, -45.844
1564.4800, -45.867
1564.5000, -45.884
1564.5200, -45.907
1564.5400, -45.929
1564.5600, -45.950
1564.5800, -45.966
1564.6000, -45.989
1564.6200, -46.010
1564.6400, -46.032
1564.6600, -46.048
1564.6800, -46.064
1564.7000, -46.078
1564.7200, -46.096
1564.7400, -46.116
1564.7600, -46.145
1564.7800, -46.163
1564.8000, -46.180
1564.8200, -46.198
1564.8400, -46.218
1564.8600, -46.238
1564.8800, -46.258
1564.9000, -46.278
1564.9200, -46.300
1564.9400, -46.313
1564.9600, -46.327
1564.9800, -46.347
1565.0000, -46.370
1565.0200, -46.390
1565.0400, -46.408
1565.0600, -46.425
1565.0800, -46.446
1565.1000, -46.469
1565.1200, -46.490
1565.1400, -46.510
1565.1600, -46.532
1565.1800, -46.551
1565.2000, -46.569
1565.2200, -46.590
1565.2400, -46.604
1565.2600, -46.632
1565.2800, -46.642
1565.3000, -46.662
1565.3200, -46.684
1565.3400, -46.701
1565.3600, -46.723
1565.3800, -46.749
1565.4000, -46.765
1565.4200, -46.790
1565.4400, -46.811
1565.4600, -46.828
1565.4800, -46.852
1565.5000, -46.873
1565.5200, -46.893
1565.5400, -46.913
1565.5600, -46.931
1565.5800, -46.952
1565.6000, -46.971
1565.6200, -46.983
1565.6400, -47.007
1565.6600, -47.025
1565.6800, -47.045
1565.7000, -47.067
1565.7200, -47.082
1565.7400, -47.104
1565.7600, -47.131
1565.7800, -47.150
1565.8000, -47.164
1565.8200, -47.185
1565.8400, -47.203
1565.8600, -47.224
1565.8800, -47.242
1565.9000, -47.258
1565.9200, -47.279
1565.9400, -47.295
1565.9600, -47.323
1565.9800, -47.344
1566.0000, -47.365
1566.0200, -47.377
1566.0400, -47.403
1566.0600, -47.425
1566.0800, -47.444
1566.1000, -47.462
1566.1200, -47.484
1566.1400, -47.500
1566.1600, -47.520
1566.1800, -47.541
1566.2000, -47.557
1566.2200, -47.577
1566.2400, -47.598
1566.2600, -47.619
1566.2800, -47.639
1566.3000, -47.659
1566.3200, -47.678
1566.3400, -47.701
1566.3600, -47.719
1566.3800, -47.740
1566.4000, -47.761
1566.4200, -47.780
1566.4400, -47.800
1566.4600, -47.817
1566.4800, -47.839
1566.5000, -47.852
1566.5200, -47.877
1566.5400, -47.899
1566.5600, -47.918
1566.5800, -47.940
1566.6000, -47.959
1566.6200, -47.976
1566.6400, -47.999
1566.6600, -48.019
1566.6800, -48.038
1566.7000, -48.056
1566.7200, -48.077
1566.7400, -48.097
1566.7600, -48.115
1566.7800, -48.135
1566.8000, -48.159
1566.8200, -48.173
1566.8400, -48.196
1566.8600, -48.211
1566.8800, -48.233
1566.9000, -48.256
1566.9200, -48.276
1566.9400, -48.297
1566.9600, -48.316
1566.9800, -48.329
1567.0000, -48.352
1567.0200, -48.372
1567.0400, -48.395
1567.0600, -48.416
1567.0800, -48.433
1567.1000, -48.457
1567.1200, -48.474
1567.1400, -48.496
1567.1600, -48.514
1567.1800, -48.530
1567.2000, -48.553
1567.2200, -48.576
1567.2400, -48.598
1567.2600, -48.618
1567.2800, -48.641
1567.3000, -48.656
1567.3200, -48.680
1567.3400, -48.694
1567.3600, -48.714
1567.3800, -48.733
1567.4000, -48.752
1567.4200, -48.776
1567.4400, -48.794
1567.4600, -48.815
1567.4800, -48.832
1567.5000, -48.853
1567.5200, -48.879
1567.5400, -48.894
1567.5600, -48.917
1567.5800, -48.933
1567.6000, -48.956
1567.6200, -48.977
1567.6400, -48.995
1567.6600, -49.013
1567.6800, -49.036
1567.7000, -49.055
1567.7200, -49.076
1567.7400, -49.092
1567.7600, -49.116
1567.7800, -49.128
1567.8000, -49.158
1567.8200, -49.170
1567.8400, -49.192
1567.8600, -49.206
1567.8800, -49.229
1567.9000, -49.252
1567.9200, -49.272
1567.9400, -49.290
1567.9600, -49.307
1567.9800, -49.322
1568.0000, -49.346
1568.0200, -49.362
1568.0400, -49.381
1568.0600, -49.403
1568.0800, -49.425
1568.1000, -49.448
1568.1200, -49.466
1568.1400, -49.484
1568.1600, -49.508
1568.1800, -49.526
1568.2000, -49.541
1568.2200, -49.563
1568.2400, -49.584
1568.2600, -49.602
1568.2800, -49.621
1568.3000, -49.644
1568.3200, -49.662
1568.3400, -49.685
1568.3600, -49.703
1568.3800, -49.721
1568.4000, -49.742
1568.4200, -49.789
1568.4400, -49.787
1568.4600, -49.802
1568.4800, -49.819
1568.5000, -49.839
1568.5200, -49.855
1568.5400, -49.875
1568.5600, -49.896
1568.5800, -49.918
1568.6000, -49.936
1568.6200, -49.959
1568.6400, -49.980
1568.6600, -49.995
1568.6800, -50.019
1568.7000, -50.038
1568.7200, -50.058
1568.7400, -50.075
1568.7600, -50.094
1568.7800, -50.110
1568.8000, -50.132
1568.8200, -50.153
1568.8400, -50.172
1568.8600, -50.190
1568.8800, -50.211
1568.9000, -50.229
1568.9200, -50.246
1568.9400, -50.265
1568.9600, -50.288
1568.9800, -50.305
1569.0000, -50.328
1569.0200, -50.355
1569.0400, -50.369
1569.0600, -50.386
1569.0800, -50.400
1569.1000, -50.426
1569.1200, -50.450
1569.1400, -50.469
1569.1600, -50.483
1569.1800, -50.502
1569.2000, -50.522
1569.2200, -50.544
1569.2400, -50.558
1569.2600, -50.582
1569.2800, -50.605
1569.3000, -50.617
1569.3200, -50.636
1569.3400, -50.656
1569.3600, -50.672
1569.3800, -50.690
1569.4000, -50.711
1569.4200, -50.732
1569.4400, -50.746
1569.4600, -50.766
1569.4800, -50.787
1569.5000, -50.810
1569.5200, -50.822
1569.5400, -50.839
1569.5600, -50.869
1569.5800, -50.881
1569.6000, -50.896
1569.6200, -50.923
1569.6400, -50.941
1569.6600, -50.961
1569.6800, -50.979
1569.7000, -50.999
1569.7200, -51.015
1569.7400, -51.033
1569.7600, -51.055
1569.7800, -51.073
1569.8000, -51.094
1569.8200, -51.113
1569.8400, -51.135
1569.8600, -51.154
1569.8800, -51.164
1569.9000, -51.193
1569.9200, -51.202
1569.9400, -51.225
1569.9600, -51.248
1569.9800, -51.256
1570.0000, -51.285
1570.0200, -51.296
1570.0400, -51.312
1570.0600, -51.333
1570.0800, -51.352
1570.1000, -51.370
1570.1200, -51.391
1570.1400, -51.411
1570.1600, -51.428
1570.1800, -51.447
1570.2000, -51.469
1570.2200, -51.481
1570.2400, -51.505
1570.2600, -51.518
1570.2800, -51.538
1570.3000, -51.555
1570.3200, -51.574
1570.3400, -51.599
1570.3600, -51.617
1570.3800, -51.631
1570.4000, -51.647
1570.4200, -51.668
1570.4400, -51.685
1570.4600, -51.708
1570.4800, -51.725
1570.5000, -51.744
1570.5200, -51.754
1570.5400, -51.776
1570.5600, -51.797
1570.5800, -51.811
1570.6000, -51.831
1570.6200, -51.850
1570.6400, -51.870
1570.6600, -51.894
1570.6800, -51.909
1570.7000, -51.925
1570.7200, -51.945
1570.7400, -51.970
1570.7600, -51.990
1570.7800, -52.008
1570.8000, -52.020
1570.8200, -52.044
1570.8400, -52.056
1570.8600, -52.073
1570.8800, -52.097
1570.9000, -52.112
1570.9200, -52.125
1570.9400, -52.145
1570.9600, -52.170
1570.9800, -52.179
1571.0000, -52.206
1571.0200, -52.218
1571.0400, -52.239
1571.0600, -52.254
1571.0800, -52.267
1571.1000, -52.287
1571.1200, -52.308
1571.1400, -52.328
1571.1600, -52.339
1571.1800, -52.361
1571.2000, -52.371
1571.2200, -52.398
1571.2400, -52.418
1571.2600, -52.426
1571.2800, -52.459
1571.3000, -52.473
1571.3200, -52.495
1571.3400, -52.511
1571.3600, -52.524
1571.3800, -52.546
1571.4000, -52.555
1571.4200, -52.581
1571.4400, -52.598
1571.4600, -52.616
1571.4800, -52.635
1571.5000, -52.648
1571.5200, -52.675
1571.5400, -52.686
1571.5600, -52.703
1571.5800, -52.724
1571.6000, -52.739
1571.6200, -52.760
1571.6400, -52.772
1571.6600, -52.790
1571.6800, -52.815
1571.7000, -52.829
1571.7200, -52.836
1571.7400, -52.866
1571.7600, -52.877
1571.7800, -52.892
1571.8000, -52.912
1571.8200, -52.928
1571.8400, -52.947
1571.8600, -52.967
1571.8800, -52.988
1571.9000, -52.996
1571.9200, -53.017
1571.9400, -53.034
1571.9600, -53.048
1571.9800, -53.069
1572.0000, -53.084
1572.0200, -53.104
1572.0400, -53.120
1572.0600, -53.129
1572.0800, -53.159
1572.1000, -53.167
1572.1200, -53.188
1572.1400, -53.205
1572.1600, -53.225
1572.1800, -53.241
1572.2000, -53.256
1572.2200, -53.273
1572.2400, -53.287
1572.2600, -53.307
1572.2800, -53.324
1572.3000, -53.342
1572.3200, -53.355
1572.3400, -53.372
1572.3600, -53.394
1572.3800, -53.405
1572.4000, -53.422
1572.4200, -53.439
1572.4400, -53.459
1572.4600, -53.476
1572.4800, -53.493
1572.5000, -53.509
1572.5200, -53.530
1572.5400, -53.549
1572.5600, -53.557
1572.5800, -53.578
1572.6000, -53.592
1572.6200, -53.609
1572.6400, -53.622
1572.6600, -53.642
1572.6800, -53.657
1572.7000, -53.671
1572.7200, -53.688
1572.7400, -53.708
1572.7600, -53.719
1572.7800, -53.738
1572.8000, -53.753
1572.8200, -53.761
1572.8400, -53.780
1572.8600, -53.808
1572.8800, -53.813
1572.9000, -53.840
1572.9200, -53.852
1572.9400, -53.872
1572.9600, -53.874
1572.9800, -53.901
1573.0000, -53.917
1573.0200, -53.939
1573.0400, -53.948
1573.0600, -53.965
1573.0800, -53.988
1573.1000, -53.999
1573.1200, -54.011
1573.1400, -54.031
1573.1600, -54.048
1573.1800, -54.051
1573.2000, -54.073
1573.2200, -54.091
1573.2400, -54.114
1573.2600, -54.123
1573.2800, -54.133
1573.3000, -54.155
1573.3200, -54.169
1573.3400, -54.190
1573.3600, -54.200
1573.3800, -54.214
1573.4000, -54.237
1573.4200, -54.246
1573.4400, -54.258
1573.4600, -54.280
1573.4800, -54.292
1573.5000, -54.306
1573.5200, -54.324
1573.5400, -54.343
1573.5600, -54.360
1573.5800, -54.363
1573.6000, -54.392
1573.6200, -54.403
1573.6400, -54.425
1573.6600, -54.432
1573.6800, -54.450
1573.7000, -54.464
1573.7200, -54.481
1573.7400, -54.498
1573.7600, -54.513
1573.7800, -54.525
1573.8000, -54.540
1573.8200, -54.557
1573.8400, -54.575
1573.8600, -54.575
1573.8800, -54.607
1573.9000, -54.620
1573.9200, -54.624
1573.9400, -54.652
1573.9600, -54.655
1573.9800, -54.672
1574.0000, -54.696
1574.0200, -54.700
1574.0400, -54.711
1574.0600, -54.744
1574.0800, -54.750
1574.1000, -54.764
1574.1200, -54.787
1574.1400, -54.791
1574.1600, -54.811
1574.1800, -54.820
1574.2000, -54.846
1574.2200, -54.857
1574.2400, -54.878
1574.2600, -54.889
1574.2800, -54.899
1574.3000, -54.910
1574.3200, -54.927
1574.3400, -54.937
1574.3600, -54.957
1574.3800, -54.969
1574.4000, -54.985
1574.4200, -55.002
1574.4400, -55.002
1574.4600, -55.034
1574.4800, -55.039
1574.5000, -55.068
1574.5200, -55.067
1574.5400, -55.083
1574.5600, -55.092
1574.5800, -55.112
1574.6000, -55.131
1574.6200, -55.145
1574.6400, -55.156
1574.6600, -55.164
1574.6800, -55.183
1574.7000, -55.200
1574.7200, -55.212
1574.7400, -55.233
1574.7600, -55.241
1574.7800, -55.260
1574.8000, -55.278
1574.8200, -55.281
1574.8400, -55.303
1574.8600, -55.310
1574.8800, -55.327
1574.9000, -55.346
1574.9200, -55.354
1574.9400, -55.367
1574.9600, -55.384
1574.9800, -55.407
1575.0000, -55.413
1575.0200, -55.422
1575.0400, -55.438
1575.0600, -55.467
1575.0800, -55.472
1575.1000, -55.495
1575.1200, -55.488
1575.1400, -55.513
1575.1600, -55.534
1575.1800, -55.533
1575.2000, -55.557
1575.2200, -55.566
1575.2400, -55.592
1575.2600, -55.584
1575.2800, -55.616
1575.3000, -55.623
1575.3200, -55.631
1575.3400, -55.646
1575.3600, -55.662
1575.3800, -55.677
1575.4000, -55.693
1575.4200, -55.703
1575.4400, -55.710
1575.4600, -55.725
1575.4800, -55.739
1575.5000, -55.746
1575.5200, -55.776
1575.5400, -55.777
1575.5600, -55.792
1575.5800, -55.800
1575.6000, -55.827
1575.6200, -55.836
1575.6400, -55.854
1575.6600, -55.864
1575.6800, -55.864
1575.7000, -55.895
1575.7200, -55.881
1575.7400, -55.909
1575.7600, -55.924
1575.7800, -55.941
1575.8000, -55.961
1575.8200, -55.963
1575.8400, -55.977
1575.8600, -55.980
1575.8800, -56.012
1575.9000, -56.025
1575.9200, -56.031
1575.9400, -56.044
1575.9600, -56.067
1575.9800, -56.070
1576.0000, -56.089
1576.0200, -56.099
1576.0400, -56.101
1576.0600, -56.116
1576.0800, -56.131
1576.1000, -56.137
1576.1200, -56.154
1576.1400, -56.173
1576.1600, -56.188
1576.1800, -56.198
1576.2000, -56.207
1576.2200, -56.213
1576.2400, -56.237
1576.2600, -56.248
1576.2800, -56.258
1576.3000, -56.261
1576.3200, -56.284
1576.3400, -56.292
1576.3600, -56.304
1576.3800, -56.320
1576.4000, -56.325
1576.4200, -56.339
1576.4400, -56.353
1576.4600, -56.355
1576.4800, -56.385
1576.5000, -56.392
1576.5200, -56.400
1576.5400, -56.414
1576.5600, -56.423
1576.5800, -56.438
1576.6000, -56.449
1576.6200, -56.458
1576.6400, -56.468
1576.6600, -56.486
1576.6800, -56.489
1576.7000, -56.512
1576.7200, -56.512
1576.7400, -56.539
1576.7600, -56.533
1576.7800, -56.569
1576.8000, -56.572
1576.8200, -56.585
1576.8400, -56.581
1576.8600, -56.613
1576.8800, -56.610
1576.9000, -56.625
1576.9200, -56.636
1576.9400, -56.651
1576.9600, -56.655
1576.9800, -56.679
1577.0000, -56.691
1577.0200, -56.690
1577.0400, -56.701
1577.0600, -56.717
1577.0800, -56.724
1577.1000, -56.726
1577.1200, -56.749
1577.1400, -56.742
1577.1600, -56.774
1577.1800, -56.778
1577.2000, -56.786
1577.2200, -56.797
1577.2400, -56.807
1577.2600, -56.824
1577.2800, -56.845
1577.3000, -56.838
1577.3200, -56.860
1577.3400, -56.885
1577.3600, -56.878
1577.3800, -56.896
1577.4000, -56.907
1577.4200, -56.920
1577.4400, -56.922
1577.4600, -56.936
1577.4800, -56.957
1577.5000, -56.963
1577.5200, -56.971
1577.5400, -56.985
1577.5600, -56.997
1577.5800, -57.005
1577.6000, -57.014
1577.6200, -57.036
1577.6400, -57.039
1577.6600, -57.047
1577.6800, -57.070
1577.7000, -57.074
1577.7200, -57.086
1577.7400, -57.088
1577.7600, -57.104
1577.7800, -57.100
1577.8000, -57.128
1577.8200, -57.137
1577.8400, -57.139
1577.8600, -57.156
1577.8800, -57.169
1577.9000, -57.178
1577.9200, -57.197
1577.9400, -57.192
1577.9600, -57.206
1577.9800, -57.221
1578.0000, -57.234
1578.0200, -57.236
1578.0400, -57.247
1578.0600, -57.261
1578.0800, -57.267
1578.1000, -57.283
1578.1200, -57.294
1578.1400, -57.304
1578.1600, -57.309
1578.1800, -57.336
1578.2000, -57.331
1578.2200, -57.342
1578.2400, -57.369
1578.2600, -57.366
1578.2800, -57.376
1578.3000, -57.385
1578.3200, -57.386
1578.3400, -57.408
1578.3600, -57.425
1578.3800, -57.430
1578.4000, -57.428
1578.4200, -57.447
1578.4400, -57.459
1578.4600, -57.455
1578.4800, -57.476
1578.5000, -57.500
1578.5200, -57.500
1578.5400, -57.516
1578.5600, -57.523
1578.5800, -57.544
1578.6000, -57.527
1578.6200, -57.556
1578.6400, -57.560
1578.6600, -57.566
1578.6800, -57.590
1578.7000, -57.573
1578.7200, -57.592
1578.7400, -57.611
1578.7600, -57.625
1578.7800, -57.628
1578.8000, -57.637
1578.8200, -57.657
1578.8400, -57.664
1578.8600, -57.656
1578.8800, -57.677
1578.9000, -57.680
1578.9200, -57.701
1578.9400, -57.705
1578.9600, -57.714
1578.9800, -57.721
1579.0000, -57.744
1579.0200, -57.744
1579.0400, -57.755
1579.0600, -57.785
1579.0800, -57.776
1579.1000, -57.784
1579.1200, -57.786
1579.1400, -57.796
1579.1600, -57.811
1579.1800, -57.819
1579.2000, -57.831
1579.2200, -57.834
1579.2400, -57.850
1579.2600, -57.864
1579.2800, -57.863
1579.3000, -57.900
1579.3200, -57.877
1579.3400, -57.907
1579.3600, -57.908
1579.3800, -57.939
1579.4000, -57.915
1579.4200, -57.916
1579.4400, -57.955
1579.4600, -57.952
1579.4800, -57.966
1579.5000, -57.980
1579.5200, -57.996
1579.5400, -57.971
1579.5600, -58.008
1579.5800, -57.991
1579.6000, -58.015
1579.6200, -58.016
1579.6400, -58.047
1579.6600, -58.034
1579.6800, -58.067
1579.7000, -58.058
1579.7200, -58.080
1579.7400, -58.078
1579.7600, -58.091
1579.7800, -58.110
1579.8000, -58.119
1579.8200, -58.105
1579.8400, -58.128
1579.8600, -58.139
1579.8800, -58.142
1579.9000, -58.166
1579.9200, -58.161
1579.9400, -58.181
1579.9600, -58.171
1579.9800, -58.203
1580.0000, -58.182
1580.0200, -58.199
1580.0400, -58.215
1580.0600, -58.235
1580.0800, -58.224
1580.1000, -58.244
1580.1200, -58.224
1580.1400, -58.266
1580.1600, -58.271
1580.1800, -58.262
1580.2000, -58.281
1580.2200, -58.282
1580.2400, -58.301
1580.2600, -58.313
1580.2800, -58.323
1580.3000, -58.314
1580.3200, -58.333
1580.3400, -58.349
1580.3600, -58.359
1580.3800, -58.349
1580.4000, -58.371
1580.4200, -58.369
1580.4400, -58.389
1580.4600, -58.377
1580.4800, -58.415
1580.5000, -58.397
1580.5200, -58.395
1580.5400, -58.435
1580.5600, -58.437
1580.5800, -58.428
1580.6000, -58.444
1580.6200, -58.482
1580.6400, -58.480
1580.6600, -58.451
1580.6800, -58.475
1580.7000, -58.493
1580.7200, -58.504
1580.7400, -58.523
1580.7600, -58.499
1580.7800, -58.521
1580.8000, -58.529
1580.8200, -58.532
1580.8400, -58.545
1580.8600, -58.553
1580.8800, -58.571
1580.9000, -58.575
1580.9200, -58.582
1580.9400, -58.589
1580.9600, -58.583
1580.9800, -58.577
1581.0000, -58.603
1581.0200, -58.623
1581.0400, -58.643
1581.0600, -58.629
1581.0800, -58.649
1581.1000, -58.653
1581.1200, -58.651
1581.1400, -58.647
1581.1600, -58.683
1581.1800, -58.668
1581.2000, -58.688
1581.2200, -58.699
1581.2400, -58.705
1581.2600, -58.704
1581.2800, -58.736
1581.3000, -58.707
1581.3200, -58.738
1581.3400, -58.727
1581.3600, -58.769
1581.3800, -58.740
1581.4000, -58.754
1581.4200, -58.776
1581.4400, -58.778
1581.4600, -58.787
1581.4800, -58.794
1581.5000, -58.800
1581.5200, -58.813
1581.5400, -58.825
1581.5600, -58.821
1581.5800, -58.841
1581.6000, -58.837
1581.6200, -58.845
1581.6400, -58.863
1581.6600, -58.836
1581.6800, -58.855
1581.7000, -58.860
1581.7200, -58.900
1581.7400, -58.888
1581.7600, -58.897
1581.7800, -58.898
1581.8000, -58.913
1581.8200, -58.914
1581.8400, -58.910
1581.8600, -58.962
1581.8800, -58.935
1581.9000, -58.966
1581.9200, -58.944
1581.9400, -58.975
1581.9600, -58.956
1581.9800, -58.982
1582.0000, -58.982
1582.0200, -58.981
1582.0400, -59.001
1582.0600, -59.014
1582.0800, -59.020
1582.1000, -59.030
1582.1200, -59.031
1582.1400, -59.023
1582.1600, -59.036
1582.1800, -59.055
1582.2000, -59.067
1582.2200, -59.062
1582.2400, -59.071
1582.2600, -59.072
1582.2800, -59.102
1582.3000, -59.087
1582.3200, -59.116
1582.3400, -59.097
1582.3600, -59.090
1582.3800, -59.123
1582.4000, -59.133
1582.4200, -59.142
1582.4400, -59.127
1582.4600, -59.154
1582.4800, -59.160
1582.5000, -59.164
1582.5200, -59.163
1582.5400, -59.175
1582.5600, -59.177
1582.5800, -59.184
1582.6000, -59.180
1582.6200, -59.191
1582.6400, -59.203
1582.6600, -59.199
1582.6800, -59.215
1582.7000, -59.237
1582.7200, -59.251
1582.7400, -59.237
1582.7600, -59.261
1582.7800, -59.239
1582.8000, -59.293
1582.8200, -59.286
1582.8400, -59.288
1582.8600, -59.267
1582.8800, -59.302
1582.9000, -59.292
1582.9200, -59.309
1582.9400, -59.312
1582.9600, -59.342
1582.9800, -59.312
1583.0000, -59.314
1583.0200, -59.351
1583.0400, -59.334
1583.0600, -59.361
1583.0800, -59.359
1583.1000, -59.367
1583.1200, -59.369
1583.1400, -59.377
1583.1600, -59.385
1583.1800, -59.392
1583.2000, -59.400
1583.2200, -59.402
1583.2400, -59.406
1583.2600, -59.408
1583.2800, -59.427
1583.3000, -59.429
1583.3200, -59.434
1583.3400, -59.442
1583.3600, -59.446
1583.3800, -59.454
1583.4000, -59.453
1583.4200, -59.468
1583.4400, -59.455
1583.4600, -59.491
1583.4800, -59.511
1583.5000, -59.521
1583.5200, -59.486
1583.5400, -59.512
1583.5600, -59.519
1583.5800, -59.503
1583.6000, -59.529
1583.6200, -59.556
1583.6400, -59.542
1583.6600, -59.533
1583.6800, -59.546
1583.7000, -59.588
1583.7200, -59.558
1583.7400, -59.565
1583.7600, -59.581
1583.7800, -59.555
1583.8000, -59.592
1583.8200, -59.598
1583.8400, -59.597
1583.8600, -59.607
1583.8800, -59.616
1583.9000, -59.604
1583.9200, -59.646
1583.9400, -59.603
1583.9600, -59.653
1583.9800, -59.621
1584.0000, -59.675
1584.0200, -59.647
1584.0400, -59.665
1584.0600, -59.673
1584.0800, -59.663
1584.1000, -59.680
1584.1200, -59.710
1584.1400, -59.688
1584.1600, -59.682
1584.1800, -59.713
1584.2000, -59.693
1584.2200, -59.730
1584.2400, -59.727
1584.2600, -59.739
1584.2800, -59.735
1584.3000, -59.729
1584.3200, -59.751
1584.3400, -59.753
1584.3600, -59.756
1584.3800, -59.769
1584.4000, -59.767
1584.4200, -59.785
1584.4400, -59.766
1584.4600, -59.804
1584.4800, -59.790
1584.5000, -59.786
1584.5200, -59.801
1584.5400, -59.824
1584.5600, -59.805
1584.5800, -59.821
1584.6000, -59.827
1584.6200, -59.839
1584.6400, -59.830
1584.6600, -59.845
1584.6800, -59.853
1584.7000, -59.881
1584.7200, -59.859
1584.7400, -59.866
1584.7600, -59.887
1584.7800, -59.850
1584.8000, -59.873
1584.8200, -59.886
1584.8400, -59.909
1584.8600, -59.890
1584.8800, -59.900
1584.9000, -59.903
1584.9200, -59.913
1584.9400, -59.919
1584.9600, -59.921
1584.9800, -59.915
1585.0000, -59.954
1585.0200, -59.965
1585.0400, -59.929
1585.0600, -59.979
1585.0800, -59.961
1585.1000, -59.952
1585.1200, -59.940
1585.1400, -59.961
1585.1600, -59.988
1585.1800, -60.007
1585.2000, -59.981
1585.2200, -59.992
1585.2400, -60.013
1585.2600, -60.009
1585.2800, -59.997
1585.3000, -60.040
1585.3200, -60.018
1585.3400, -60.040
1585.3600, -60.019
1585.3800, -60.030
1585.4000, -60.038
1585.4200, -60.046
1585.4400, -60.073
1585.4600, -60.044
1585.4800, -60.056
1585.5000, -60.080
1585.5200, -60.103
1585.5400, -60.065
1585.5600, -60.111
1585.5800, -60.085
1585.6000, -60.088
1585.6200, -60.100
1585.6400, -60.105
1585.6600, -60.109
1585.6800, -60.120
1585.7000, -60.101
1585.7200, -60.139
1585.7400, -60.142
1585.7600, -60.130
1585.7800, -60.172
1585.8000, -60.119
1585.8200, -60.155
1585.8400, -60.177
1585.8600, -60.150
1585.8800, -60.183
1585.9000, -60.196
1585.9200, -60.159
1585.9400, -60.183
1585.9600, -60.196
1585.9800, -60.191
1586.0000, -60.197
1586.0200, -60.192
1586.0400, -60.225
1586.0600, -60.241
1586.0800, -60.203
1586.1000, -60.222
1586.1200, -60.226
1586.1400, -60.227
1586.1600, -60.255
1586.1800, -60.215
1586.2000, -60.261
1586.2200, -60.276
1586.2400, -60.220
1586.2600, -60.247
1586.2800, -60.296
1586.3000, -60.257
1586.3200, -60.277
1586.3400, -60.265
1586.3600, -60.296
1586.3800, -60.316
1586.4000, -60.283
1586.4200, -60.293
1586.4400, -60.317
1586.4600, -60.337
1586.4800, -60.354
1586.5000, -60.304
1586.5200, -60.323
1586.5400, -60.335
1586.5600, -60.372
1586.5800, -60.354
1586.6000, -60.362
1586.6200, -60.347
1586.6400, -60.363
1586.6600, -60.378
1586.6800, -60.336
1586.7000, -60.393
1586.7200, -60.395
1586.7400, -60.394
1586.7600, -60.404
1586.7800, -60.399
1586.8000, -60.411
1586.8200, -60.410
1586.8400, -60.426
1586.8600, -60.418
1586.8800, -60.415
1586.9000, -60.430
1586.9200, -60.448
1586.9400, -60.431
1586.9600, -60.449
1586.9800, -60.460
1587.0000, -60.454
1587.0200, -60.449
1587.0400, -60.468
1587.0600, -60.439
1587.0800, -60.489
1587.1000, -60.459
1587.1200, -60.495
1587.1400, -60.518
1587.1600, -60.492
1587.1800, -60.499
1587.2000, -60.501
1587.2200, -60.522
1587.2400, -60.498
1587.2600, -60.534
1587.2800, -60.508
1587.3000, -60.495
1587.3200, -60.548
1587.3400, -60.542
1587.3600, -60.580
1587.3800, -60.554
1587.4000, -60.561
1587.4200, -60.542
1587.4400, -60.561
1587.4600, -60.578
1587.4800, -60.588
1587.5000, -60.555
1587.5200, -60.583
1587.5400, -60.576
1587.5600, -60.599
1587.5800, -60.594
1587.6000, -60.566
1587.6200, -60.617
1587.6400, -60.628
1587.6600, -60.581
1587.6800, -60.639
1587.7000, -60.612
1587.7200, -60.649
1587.7400, -60.640
1587.7600, -60.621
1587.7800, -60.679
1587.8000, -60.663
1587.8200, -60.651
1587.8400, -60.678
1587.8600, -60.669
1587.8800, -60.675
1587.9000, -60.672
1587.9200, -60.674
1587.9400, -60.700
1587.9600, -60.707
1587.9800, -60.710
1588.0000, -60.676
1588.0200, -60.728
1588.0400, -60.704
1588.0600, -60.693
1588.0800, -60.734
1588.1000, -60.713
1588.1200, -60.733
1588.1400, -60.744
1588.1600, -60.735
1588.1800, -60.750
1588.2000, -60.766
1588.2200, -60.728
1588.2400, -60.768
1588.2600, -60.720
1588.2800, -60.795
1588.3000, -60.758
1588.3200, -60.749
1588.3400, -60.771
1588.3600, -60.774
1588.3800, -60.790
1588.4000, -60.794
1588.4200, -60.785
1588.4400, -60.795
1588.4600, -60.806
1588.4800, -60.775
1588.5000, -60.843
1588.5200, -60.801
1588.5400, -60.846
1588.5600, -60.821
1588.5800, -60.828
1588.6000, -60.822
1588.6200, -60.836
1588.6400, -60.847
1588.6600, -60.902
1588.6800, -60.856
1588.7000, -60.830
1588.7200, -60.853
1588.7400, -60.897
1588.7600, -60.862
1588.7800, -60.873
1588.8000, -60.872
1588.8200, -60.889
1588.8400, -60.875
1588.8600, -60.887
1588.8800, -60.887
1588.9000, -60.907
1588.9200, -60.888
1588.9400, -60.901
1588.9600, -60.912
1588.9800, -60.910
1589.0000, -60.951
1589.0200, -60.892
1589.0400, -60.928
1589.0600, -60.944
1589.0800, -60.922
1589.1000, -60.953
1589.1200, -60.962
1589.1400, -60.951
1589.1600, -60.936
1589.1800, -60.981
1589.2000, -60.962
1589.2200, -60.962
1589.2400, -61.012
1589.2600, -60.968
1589.2800, -60.971
1589.3000, -60.988
1589.3200, -61.014
1589.3400, -60.968
1589.3600, -61.009
1589.3800, -61.010
1589.4000, -61.010
1589.4200, -61.048
1589.4400, -61.008
1589.4600, -61.037
1589.4800, -61.069
1589.5000, -60.977
1589.5200, -61.034
1589.5400, -61.065
1589.5600, -61.035
1589.5800, -61.070
1589.6000, -61.073
1589.6200, -61.052
1589.6400, -61.040
1589.6600, -61.077
1589.6800, -61.108
1589.7000, -61.040
1589.7200, -61.098
1589.7400, -61.079
1589.7600, -61.070
1589.7800, -61.071
1589.8000, -61.129
1589.8200, -61.087
1589.8400, -61.098
1589.8600, -61.064
1589.8800, -61.126
1589.9000, -61.172
1589.9200, -61.129
1589.9400, -61.085
1589.9600, -61.132
1589.9800, -61.144
1590.0000, -61.154
1590.0200, -61.139
1590.0400, -61.162
1590.0600, -61.158
1590.0800, -61.155
1590.1000, -61.156
1590.1200, -61.168
1590.1400, -61.159
1590.1600, -61.185
1590.1800, -61.208
1590.2000, -61.195
1590.2200, -61.161
1590.2400, -61.217
1590.2600, -61.189
1590.2800, -61.204
1590.3000, -61.225
1590.3200, -61.195
1590.3400, -61.193
1590.3600, -61.204
1590.3800, -61.225
1590.4000, -61.242
1590.4200, -61.253
1590.4400, -61.236
1590.4600, -61.269
1590.4800, -61.272
1590.5000, -61.242
1590.5200, -61.254
1590.5400, -61.252
1590.5600, -61.264
1590.5800, -61.229
1590.6000, -61.275
1590.6200, -61.275
1590.6400, -61.300
1590.6600, -61.282
1590.6800, -61.289
1590.7000, -61.324
1590.7200, -61.303
1590.7400, -61.326
1590.7600, -61.312
1590.7800, -61.315
1590.8000, -61.263
1590.8200, -61.341
1590.8400, -61.320
1590.8600, -61.330
1590.8800, -61.344
1590.9000, -61.339
1590.9200, -61.317
1590.9400, -61.354
1590.9600, -61.343
1590.9800, -61.386
1591.0000, -61.383
1591.0200, -61.333
1591.0400, -61.374
1591.0600, -61.364
1591.0800, -61.398
1591.1000, -61.378
1591.1200, -61.380
1591.1400, -61.386
1591.1600, -61.373
1591.1800, -61.412
1591.2000, -61.422
1591.2200, -61.431
1591.2400, -61.423
1591.2600, -61.400
1591.2800, -61.428
1591.3000, -61.437
1591.3200, -61.420
1591.3400, -61.454
1591.3600, -61.431
1591.3800, -61.442
1591.4000, -61.438
1591.4200, -61.470
1591.4400, -61.441
1591.4600, -61.469
1591.4800, -61.484
1591.5000, -61.511
1591.5200, -61.478
1591.5400, -61.472
1591.5600, -61.494
1591.5800, -61.508
1591.6000, -61.509
1591.6200, -61.482
1591.6400, -61.491
1591.6600, -61.514
1591.6800, -61.509
1591.7000, -61.538
1591.7200, -61.522
1591.7400, -61.513
1591.7600, -61.550
1591.7800, -61.538
1591.8000, -61.521
1591.8200, -61.585
1591.8400, -61.543
1591.8600, -61.573
1591.8800, -61.565
1591.9000, -61.537
1591.9200, -61.576
1591.9400, -61.581
1591.9600, -61.599
1591.9800, -61.591
1592.0000, -61.566
1592.0200, -61.615
1592.0400, -61.548
1592.0600, -61.631
1592.0800, -61.597
1592.1000, -61.590
1592.1200, -61.605
1592.1400, -61.639
1592.1600, -61.583
1592.1800, -61.610
1592.2000, -61.654
1592.2200, -61.640
1592.2400, -61.620
1592.2600, -61.647
1592.2800, -61.667
1592.3000, -61.646
1592.3200, -61.618
1592.3400, -61.669
1592.3600, -61.639
1592.3800, -61.704
1592.4000, -61.666
1592.4200, -61.665
1592.4400, -61.716
1592.4600, -61.645
1592.4800, -61.724
1592.5000, -61.685
1592.5200, -61.698
1592.5400, -61.644
1592.5600, -61.689
1592.5800, -61.757
1592.6000, -61.687
1592.6200, -61.699
1592.6400, -61.735
1592.6600, -61.702
1592.6800, -61.757
1592.7000, -61.735
1592.7200, -61.685
1592.7400, -61.743
1592.7600, -61.754
1592.7800, -61.749
1592.8000, -61.761
1592.8200, -61.740
1592.8400, -61.771
1592.8600, -61.757
1592.8800, -61.786
1592.9000, -61.762
1592.9200, -61.804
1592.9400, -61.781
1592.9600, -61.794
1592.9800, -61.811
1593.0000, -61.776
1593.0200, -61.791
1593.0400, -61.813
1593.0600, -61.801
1593.0800, -61.788
1593.1000, -61.829
1593.1200, -61.817
1593.1400, -61.807
1593.1600, -61.821
1593.1800, -61.844
1593.2000, -61.863
1593.2200, -61.855
1593.2400, -61.850
1593.2600, -61.823
1593.2800, -61.870
1593.3000, -61.863
1593.3200, -61.845
1593.3400, -61.845
1593.3600, -61.867
1593.3800, -61.861
1593.4000, -61.890
1593.4200, -61.896
1593.4400, -61.875
1593.4600, -61.840
1593.4800, -61.926
1593.5000, -61.910
1593.5200, -61.870
1593.5400, -61.917
1593.5600, -61.901
1593.5800, -61.927
1593.6000, -61.893
1593.6200, -61.953
1593.6400, -61.978
1593.6600, -61.895
1593.6800, -61.955
1593.7000, -61.936
1593.7200, -61.942
1593.7400, -61.919
1593.7600, -61.970
1593.7800, -61.947
1593.8000, -61.963
1593.8200, -61.940
1593.8400, -62.002
1593.8600, -61.934
1593.8800, -61.982
1593.9000, -61.964
1593.9200, -62.028
1593.9400, -61.989
1593.9600, -61.988
1593.9800, -61.956
1594.0000, -62.004
1594.0200, -61.994
1594.0400, -62.011
1594.0600, -62.010
1594.0800, -62.023
1594.1000, -62.024
1594.1200, -62.030
1594.1400, -62.009
1594.1600, -62.070
1594.1800, -62.023
1594.2000, -62.044
1594.2200, -62.031
1594.2400, -62.016
1594.2600, -62.113
1594.2800, -62.052
1594.3000, -62.069
1594.3200, -62.066
1594.3400, -62.045
1594.3600, -62.099
1594.3800, -62.086
1594.4000, -62.064
1594.4200, -62.081
1594.4400, -62.117
1594.4600, -62.077
1594.4800, -62.122
1594.5000, -62.134
1594.5200, -62.061
1594.5400, -62.171
1594.5600, -62.082
1594.5800, -62.155
1594.6000, -62.139
1594.6200, -62.096
1594.6400, -62.156
1594.6600, -62.103
1594.6800, -62.161
1594.7000, -62.131
1594.7200, -62.184
1594.7400, -62.120
1594.7600, -62.176
1594.7800, -62.159
1594.8000, -62.168
1594.8200, -62.195
1594.8400, -62.235
1594.8600, -62.126
1594.8800, -62.194
1594.9000, -62.155
1594.9200, -62.252
1594.9400, -62.185
1594.9600, -62.175
1594.9800, -62.164
1595.0000, -62.230
1595.0200, -62.188
1595.0400, -62.228
1595.0600, -62.206
1595.0800, -62.213
1595.1000, -62.226
1595.1200, -62.276
1595.1400, -62.231
1595.1600, -62.285
1595.1800, -62.220
1595.2000, -62.237
1595.2200, -62.255
1595.2400, -62.315
1595.2600, -62.235
1595.2800, -62.254
1595.3000, -62.284
1595.3200, -62.215
1595.3400, -62.304
1595.3600, -62.259
1595.3800, -62.270
1595.4000, -62.332
1595.4200, -62.326
1595.4400, -62.303
1595.4600, -62.259
1595.4800, -62.296
1595.5000, -62.304
1595.5200, -62.430
1595.5400, -62.348
1595.5600, -62.309
1595.5800, -62.353
1595.6000, -62.340
1595.6200, -62.352
1595.6400, -62.370
1595.6600, -62.319
1595.6800, -62.352
1595.7000, -62.421
1595.7200, -62.369
1595.7400, -62.363
1595.7600, -62.329
1595.7800, -62.417
1595.8000, -62.358
1595.8200, -62.383
1595.8400, -62.429
1595.8600, -62.382
1595.8800, -62.396
1595.9000, -62.415
1595.9200, -62.309
1595.9400, -62.435
1595.9600, -62.394
1595.9800, -62.414
1596.0000, -62.429
1596.0200, -62.416
1596.0400, -62.494
1596.0600, -62.417
1596.0800, -62.417
1596.1000, -62.467
1596.1200, -62.427
1596.1400, -62.451
1596.1600, -62.418
1596.1800, -62.467
1596.2000, -62.518
1596.2200, -62.468
1596.2400, -62.515
1596.2600, -62.472
1596.2800, -62.505
1596.3000, -62.437
1596.3200, -62.503
1596.3400, -62.469
1596.3600, -62.485
1596.3800, -62.526
1596.4000, -62.497
1596.4200, -62.481
1596.4400, -62.497
1596.4600, -62.537
1596.4800, -62.490
1596.5000, -62.516
1596.5200, -62.480
1596.5400, -62.509
1596.5600, -62.560
1596.5800, -62.522
1596.6000, -62.573
1596.6200, -62.526
1596.6400, -62.562
1596.6600, -62.552
1596.6800, -62.567
1596.7000, -62.606
1596.7200, -62.530
1596.7400, -62.575
1596.7600, -62.565
1596.7800, -62.562
1596.8000, -62.565
1596.8200, -62.562
1596.8400, -62.613
1596.8600, -62.581
1596.8800, -62.619
1596.9000, -62.577
1596.9200, -62.618
1596.9400, -62.640
1596.9600, -62.593
1596.9800, -62.589
1597.0000, -62.649
1597.0200, -62.624
1597.0400, -62.669
1597.0600, -62.622
1597.0800, -62.605
1597.1000, -62.642
1597.1200, -62.629
1597.1400, -62.614
1597.1600, -62.674
1597.1800, -62.631
1597.2000, -62.641
1597.2200, -62.669
1597.2400, -62.665
1597.2600, -62.684
1597.2800, -62.685
1597.3000, -62.713
1597.3200, -62.692
1597.3400, -62.667
1597.3600, -62.700
1597.3800, -62.676
1597.4000, -62.712
1597.4200, -62.737
1597.4400, -62.711
1597.4600, -62.714
1597.4800, -62.678
1597.5000, -62.760
1597.5200, -62.711
1597.5400, -62.720
1597.5600, -62.754
1597.5800, -62.739
1597.6000, -62.707
1597.6200, -62.783
1597.6400, -62.685
1597.6600, -62.801
1597.6800, -62.696
1597.7000, -62.779
1597.7200, -62.782
1597.7400, -62.815
1597.7600, -62.757
1597.7800, -62.744
1597.8000, -62.788
1597.8200, -62.757
1597.8400, -62.773
1597.8600, -62.767
1597.8800, -62.759
1597.9000, -62.846
1597.9200, -62.770
1597.9400, -62.816
1597.9600, -62.840
1597.9800, -62.803
1598.0000, -62.842
1598.0200, -62.824
1598.0400, -62.870
1598.0600, -62.778
1598.0800, -62.876
1598.1000, -62.882
1598.1200, -62.821
1598.1400, -62.881
1598.1600, -62.897
1598.1800, -62.788
1598.2000, -62.858
1598.2200, -62.877
1598.2400, -62.860
1598.2600, -62.820
1598.2800, -62.858
1598.3000, -62.879
1598.3200, -62.896
1598.3400, -62.882
1598.3600, -62.892
1598.3800, -62.946
1598.4000, -62.887
1598.4200, -62.925
1598.4400, -62.926
1598.4600, -62.906
1598.4800, -62.897
1598.5000, -62.975
1598.5200, -62.879
1598.5400, -62.934
1598.5600, -62.936
1598.5800, -62.918
1598.6000, -62.989
1598.6200, -62.931
1598.6400, -62.936
1598.6600, -62.960
1598.6800, -62.970
1598.7000, -62.972
1598.7200, -62.991
1598.7400, -62.993
1598.7600, -62.969
1598.7800, -62.978
1598.8000, -62.948
1598.8200, -62.977
1598.8400, -63.045
1598.8600, -62.970
1598.8800, -62.970
1598.9000, -63.046
1598.9200, -62.963
1598.9400, -63.033
1598.9600, -63.001
1598.9800, -63.012
1599.0000, -63.010
1599.0200, -63.000
1599.0400, -63.008
1599.0600, -63.041
1599.0800, -63.066
1599.1000, -63.048
1599.1200, -63.127
1599.1400, -63.003
1599.1600, -63.065
1599.1800, -63.058
1599.2000, -63.101
1599.2200, -63.053
1599.2400, -63.042
1599.2600, -63.111
1599.2800, -63.101
1599.3000, -63.094
1599.3200, -63.082
1599.3400, -63.107
1599.3600, -63.136
1599.3800, -63.131
1599.4000, -63.143
1599.4200, -63.114
1599.4400, -63.122
1599.4600, -63.130
1599.4800, -63.159
1599.5000, -63.127
1599.5200, -63.099
1599.5400, -63.139
1599.5600, -63.162
1599.5800, -63.140
1599.6000, -63.143
1599.6200, -63.155
1599.6400, -63.163
1599.6600, -63.177
1599.6800, -63.113
1599.7000, -63.185
1599.7200, -63.175
1599.7400, -63.244
1599.7600, -63.126
1599.7800, -63.225
1599.8000, -63.224
1599.8200, -63.201
1599.8400, -63.207
1599.8600, -63.194
1599.8800, -63.195
1599.9000, -63.238
1599.9200, -63.250
1599.9400, -63.229
1599.9600, -63.230
1599.9800, -63.221
1600.0000, -63.257
