70BCSV 	
// AQ6370B OPTICAL SPECTRUM ANALYZER //                 
25
"CTRWL",1550.000000
"SPAN", 100.000000
"START WL",1500.000000
"STOP WL",1600.000000
"WLFREQ", 0
"REFL",-28.8
"LSCL", 5.0
"RESLN",0.100
"AVG",   1
"SMPLAUTO",      0
"SMPL",       5001
"SMPLINTVL",0.0200
"HIGH1"
"MEAS"
"LSUNT",0
"NMSKH","OFF"
"RESCOR",0
"RESPARM", 9050
"FREQPARM", 9050






"[TRACE DATA]"
1500.0000, -61.747
1500.0200, -61.753
1500.0400, -61.761
1500.0600, -61.775
1500.0800, -61.775
1500.1000, -61.737
1500.1200, -61.691
1500.1400, -61.745
1500.1600, -61.728
1500.1800, -61.691
1500.2000, -61.704
1500.2200, -61.702
1500.2400, -61.677
1500.2600, -61.715
1500.2800, -61.709
1500.3000, -61.678
1500.3200, -61.690
1500.3400, -61.659
1500.3600, -61.660
1500.3800, -61.673
1500.4000, -61.666
1500.4200, -61.697
1500.4400, -61.647
1500.4600, -61.657
1500.4800, -61.625
1500.5000, -61.595
1500.5200, -61.650
1500.5400, -61.607
1500.5600, -61.645
1500.5800, -61.604
1500.6000, -61.610
1500.6200, -61.587
1500.6400, -61.581
1500.6600, -61.598
1500.6800, -61.551
1500.7000, -61.572
1500.7200, -61.586
1500.7400, -61.562
1500.7600, -61.564
1500.7800, -61.561
1500.8000, -61.546
1500.8200, -61.543
1500.8400, -61.536
1500.8600, -61.520
1500.8800, -61.508
1500.9000, -61.529
1500.9200, -61.513
1500.9400, -61.500
1500.9600, -61.509
1500.9800, -61.504
1501.0000, -61.480
1501.0200, -61.473
1501.0400, -61.479
1501.0600, -61.448
1501.0800, -61.483
1501.1000, -61.446
1501.1200, -61.452
1501.1400, -61.422
1501.1600, -61.449
1501.1800, -61.416
1501.2000, -61.416
1501.2200, -61.435
1501.2400, -61.424
1501.2600, -61.416
1501.2800, -61.422
1501.3000, -61.408
1501.3200, -61.390
1501.3400, -61.406
1501.3600, -61.372
1501.3800, -61.389
1501.4000, -61.355
1501.4200, -61.373
1501.4400, -61.336
1501.4600, -61.339
1501.4800, -61.345
1501.5000, -61.328
1501.5200, -61.331
1501.5400, -61.337
1501.5600, -61.335
1501.5800, -61.318
1501.6000, -61.326
1501.6200, -61.296
1501.6400, -61.307
1501.6600, -61.294
1501.6800, -61.303
1501.7000, -61.266
1501.7200, -61.307
1501.7400, -61.286
1501.7600, -61.277
1501.7800, -61.288
1501.8000, -61.274
1501.8200, -61.257
1501.8400, -61.251
1501.8600, -61.250
1501.8800, -61.254
1501.9000, -61.242
1501.9200, -61.260
1501.9400, -61.222
1501.9600, -61.188
1501.9800, -61.183
1502.0000, -61.224
1502.0200, -61.221
1502.0400, -61.181
1502.0600, -61.158
1502.0800, -61.176
1502.1000, -61.160
1502.1200, -61.165
1502.1400, -61.152
1502.1600, -61.151
1502.1800, -61.124
1502.2000, -61.140
1502.2200, -61.159
1502.2400, -61.103
1502.2600, -61.103
1502.2800, -61.100
1502.3000, -61.106
1502.3200, -61.127
1502.3400, -61.081
1502.3600, -61.090
1502.3800, -61.027
1502.4000, -61.090
1502.4200, -61.044
1502.4400, -61.059
1502.4600, -61.037
1502.4800, -61.070
1502.5000, -61.024
1502.5200, -61.059
1502.5400, -61.006
1502.5600, -61.051
1502.5800, -61.027
1502.6000, -61.001
1502.6200, -60.997
1502.6400, -60.998
1502.6600, -60.971
1502.6800, -60.984
1502.7000, -60.986
1502.7200, -60.985
1502.7400, -60.969
1502.7600, -60.947
1502.7800, -60.966
1502.8000, -60.923
1502.8200, -60.945
1502.8400, -60.934
1502.8600, -60.922
1502.8800, -60.968
1502.9000, -60.907
1502.9200, -60.887
1502.9400, -60.870
1502.9600, -60.916
1502.9800, -60.874
1503.0000, -60.874
1503.0200, -60.876
1503.0400, -60.867
1503.0600, -60.856
1503.0800, -60.827
1503.1000, -60.860
1503.1200, -60.822
1503.1400, -60.824
1503.1600, -60.816
1503.1800, -60.782
1503.2000, -60.805
1503.2200, -60.806
1503.2400, -60.780
1503.2600, -60.826
1503.2800, -60.779
1503.3000, -60.781
1503.3200, -60.736
1503.3400, -60.771
1503.3600, -60.758
1503.3800, -60.723
1503.4000, -60.733
1503.4200, -60.740
1503.4400, -60.776
1503.4600, -60.719
1503.4800, -60.708
1503.5000, -60.691
1503.5200, -60.686
1503.5400, -60.695
1503.5600, -60.707
1503.5800, -60.673
1503.6000, -60.682
1503.6200, -60.687
1503.6400, -60.663
1503.6600, -60.653
1503.6800, -60.651
1503.7000, -60.654
1503.7200, -60.632
1503.7400, -60.619
1503.7600, -60.626
1503.7800, -60.630
1503.8000, -60.590
1503.8200, -60.620
1503.8400, -60.564
1503.8600, -60.603
1503.8800, -60.595
1503.9000, -60.583
1503.9200, -60.576
1503.9400, -60.570
1503.9600, -60.543
1503.9800, -60.531
1504.0000, -60.533
1504.0200, -60.522
1504.0400, -60.537
1504.0600, -60.512
1504.0800, -60.511
1504.1000, -60.490
1504.1200, -60.485
1504.1400, -60.521
1504.1600, -60.477
1504.1800, -60.463
1504.2000, -60.448
1504.2200, -60.476
1504.2400, -60.435
1504.2600, -60.490
1504.2800, -60.438
1504.3000, -60.415
1504.3200, -60.423
1504.3400, -60.384
1504.3600, -60.396
1504.3800, -60.402
1504.4000, -60.378
1504.4200, -60.395
1504.4400, -60.376
1504.4600, -60.383
1504.4800, -60.379
1504.5000, -60.333
1504.5200, -60.337
1504.5400, -60.383
1504.5600, -60.317
1504.5800, -60.313
1504.6000, -60.324
1504.6200, -60.336
1504.6400, -60.278
1504.6600, -60.325
1504.6800, -60.263
1504.7000, -60.289
1504.7200, -60.286
1504.7400, -60.263
1504.7600, -60.252
1504.7800, -60.252
1504.8000, -60.253
1504.8200, -60.242
1504.8400, -60.241
1504.8600, -60.238
1504.8800, -60.216
1504.9000, -60.221
1504.9200, -60.209
1504.9400, -60.165
1504.9600, -60.178
1504.9800, -60.179
1505.0000, -60.132
1505.0200, -60.204
1505.0400, -60.106
1505.0600, -60.135
1505.0800, -60.149
1505.1000, -60.138
1505.1200, -60.140
1505.1400, -60.113
1505.1600, -60.126
1505.1800, -60.110
1505.2000, -60.089
1505.2200, -60.076
1505.2400, -60.074
1505.2600, -60.040
1505.2800, -60.047
1505.3000, -60.048
1505.3200, -60.049
1505.3400, -60.018
1505.3600, -60.037
1505.3800, -60.018
1505.4000, -59.988
1505.4200, -60.040
1505.4400, -59.981
1505.4600, -59.970
1505.4800, -60.002
1505.5000, -59.965
1505.5200, -59.981
1505.5400, -59.965
1505.5600, -59.934
1505.5800, -59.932
1505.6000, -59.950
1505.6200, -59.925
1505.6400, -59.916
1505.6600, -59.916
1505.6800, -59.906
1505.7000, -59.897
1505.7200, -59.881
1505.7400, -59.896
1505.7600, -59.880
1505.7800, -59.870
1505.8000, -59.854
1505.8200, -59.867
1505.8400, -59.853
1505.8600, -59.842
1505.8800, -59.828
1505.9000, -59.832
1505.9200, -59.797
1505.9400, -59.795
1505.9600, -59.805
1505.9800, -59.789
1506.0000, -59.781
1506.0200, -59.760
1506.0400, -59.787
1506.0600, -59.762
1506.0800, -59.711
1506.1000, -59.747
1506.1200, -59.717
1506.1400, -59.727
1506.1600, -59.719
1506.1800, -59.715
1506.2000, -59.705
1506.2200, -59.691
1506.2400, -59.689
1506.2600, -59.674
1506.2800, -59.668
1506.3000, -59.658
1506.3200, -59.668
1506.3400, -59.629
1506.3600, -59.644
1506.3800, -59.621
1506.4000, -59.633
1506.4200, -59.603
1506.4400, -59.592
1506.4600, -59.598
1506.4800, -59.578
1506.5000, -59.584
1506.5200, -59.587
1506.5400, -59.571
1506.5600, -59.553
1506.5800, -59.542
1506.6000, -59.557
1506.6200, -59.550
1506.6400, -59.515
1506.6600, -59.536
1506.6800, -59.528
1506.7000, -59.483
1506.7200, -59.491
1506.7400, -59.491
1506.7600, -59.490
1506.7800, -59.471
1506.8000, -59.471
1506.8200, -59.448
1506.8400, -59.446
1506.8600, -59.441
1506.8800, -59.426
1506.9000, -59.414
1506.9200, -59.416
1506.9400, -59.392
1506.9600, -59.390
1506.9800, -59.395
1507.0000, -59.378
1507.0200, -59.375
1507.0400, -59.380
1507.0600, -59.381
1507.0800, -59.332
1507.1000, -59.342
1507.1200, -59.352
1507.1400, -59.313
1507.1600, -59.322
1507.1800, -59.287
1507.2000, -59.280
1507.2200, -59.281
1507.2400, -59.295
1507.2600, -59.268
1507.2800, -59.284
1507.3000, -59.283
1507.3200, -59.249
1507.3400, -59.236
1507.3600, -59.232
1507.3800, -59.239
1507.4000, -59.236
1507.4200, -59.207
1507.4400, -59.208
1507.4600, -59.189
1507.4800, -59.201
1507.5000, -59.185
1507.5200, -59.182
1507.5400, -59.144
1507.5600, -59.140
1507.5800, -59.148
1507.6000, -59.134
1507.6200, -59.136
1507.6400, -59.106
1507.6600, -59.098
1507.6800, -59.111
1507.7000, -59.106
1507.7200, -59.092
1507.7400, -59.079
1507.7600, -59.059
1507.7800, -59.067
1507.8000, -59.044
1507.8200, -59.021
1507.8400, -59.034
1507.8600, -59.021
1507.8800, -59.030
1507.9000, -59.001
1507.9200, -58.985
1507.9400, -58.997
1507.9600, -58.971
1507.9800, -58.992
1508.0000, -58.970
1508.0200, -58.955
1508.0400, -58.950
1508.0600, -58.947
1508.0800, -58.932
1508.1000, -58.924
1508.1200, -58.904
1508.1400, -58.915
1508.1600, -58.885
1508.1800, -58.890
1508.2000, -58.885
1508.2200, -58.884
1508.2400, -58.876
1508.2600, -58.862
1508.2800, -58.855
1508.3000, -58.848
1508.3200, -58.844
1508.3400, -58.841
1508.3600, -58.829
1508.3800, -58.813
1508.4000, -58.798
1508.4200, -58.789
1508.4400, -58.787
1508.4600, -58.767
1508.4800, -58.776
1508.5000, -58.765
1508.5200, -58.753
1508.5400, -58.752
1508.5600, -58.743
1508.5800, -58.733
1508.6000, -58.722
1508.6200, -58.718
1508.6400, -58.703
1508.6600, -58.694
1508.6800, -58.672
1508.7000, -58.686
1508.7200, -58.656
1508.7400, -58.658
1508.7600, -58.633
1508.7800, -58.634
1508.8000, -58.629
1508.8200, -58.641
1508.8400, -58.615
1508.8600, -58.605
1508.8800, -58.616
1508.9000, -58.580
1508.9200, -58.583
1508.9400, -58.564
1508.9600, -58.561
1508.9800, -58.543
1509.0000, -58.535
1509.0200, -58.533
1509.0400, -58.519
1509.0600, -58.529
1509.0800, -58.505
1509.1000, -58.511
1509.1200, -58.490
1509.1400, -58.483
1509.1600, -58.470
1509.1800, -58.472
1509.2000, -58.453
1509.2200, -58.449
1509.2400, -58.433
1509.2600, -58.424
1509.2800, -58.411
1509.3000, -58.420
1509.3200, -58.406
1509.3400, -58.380
1509.3600, -58.391
1509.3800, -58.378
1509.4000, -58.364
1509.4200, -58.353
1509.4400, -58.340
1509.4600, -58.337
1509.4800, -58.320
1509.5000, -58.310
1509.5200, -58.302
1509.5400, -58.304
1509.5600, -58.282
1509.5800, -58.287
1509.6000, -58.292
1509.6200, -58.257
1509.6400, -58.244
1509.6600, -58.241
1509.6800, -58.229
1509.7000, -58.220
1509.7200, -58.217
1509.7400, -58.223
1509.7600, -58.185
1509.7800, -58.190
1509.8000, -58.177
1509.8200, -58.182
1509.8400, -58.171
1509.8600, -58.132
1509.8800, -58.145
1509.9000, -58.133
1509.9200, -58.128
1509.9400, -58.108
1509.9600, -58.118
1509.9800, -58.102
1510.0000, -58.106
1510.0200, -58.080
1510.0400, -58.062
1510.0600, -58.051
1510.0800, -58.059
1510.1000, -58.043
1510.1200, -58.030
1510.1400, -58.026
1510.1600, -58.002
1510.1800, -58.018
1510.2000, -57.974
1510.2200, -57.982
1510.2400, -57.964
1510.2600, -57.973
1510.2800, -57.951
1510.3000, -57.937
1510.3200, -57.926
1510.3400, -57.910
1510.3600, -57.912
1510.3800, -57.893
1510.4000, -57.889
1510.4200, -57.865
1510.4400, -57.869
1510.4600, -57.850
1510.4800, -57.840
1510.5000, -57.824
1510.5200, -57.843
1510.5400, -57.810
1510.5600, -57.788
1510.5800, -57.804
1510.6000, -57.784
1510.6200, -57.768
1510.6400, -57.760
1510.6600, -57.745
1510.6800, -57.737
1510.7000, -57.713
1510.7200, -57.710
1510.7400, -57.708
1510.7600, -57.687
1510.7800, -57.680
1510.8000, -57.670
1510.8200, -57.652
1510.8400, -57.647
1510.8600, -57.627
1510.8800, -57.636
1510.9000, -57.616
1510.9200, -57.603
1510.9400, -57.595
1510.9600, -57.588
1510.9800, -57.577
1511.0000, -57.566
1511.0200, -57.559
1511.0400, -57.547
1511.0600, -57.522
1511.0800, -57.520
1511.1000, -57.512
1511.1200, -57.493
1511.1400, -57.490
1511.1600, -57.478
1511.1800, -57.449
1511.2000, -57.465
1511.2200, -57.436
1511.2400, -57.443
1511.2600, -57.418
1511.2800, -57.419
1511.3000, -57.403
1511.3200, -57.388
1511.3400, -57.379
1511.3600, -57.366
1511.3800, -57.343
1511.4000, -57.345
1511.4200, -57.333
1511.4400, -57.325
1511.4600, -57.313
1511.4800, -57.284
1511.5000, -57.281
1511.5200, -57.277
1511.5400, -57.265
1511.5600, -57.253
1511.5800, -57.238
1511.6000, -57.229
1511.6200, -57.214
1511.6400, -57.216
1511.6600, -57.181
1511.6800, -57.191
1511.7000, -57.156
1511.7200, -57.162
1511.7400, -57.153
1511.7600, -57.139
1511.7800, -57.121
1511.8000, -57.123
1511.8200, -57.094
1511.8400, -57.099
1511.8600, -57.081
1511.8800, -57.068
1511.9000, -57.066
1511.9200, -57.046
1511.9400, -57.029
1511.9600, -57.013
1511.9800, -57.008
1512.0000, -56.987
1512.0200, -56.995
1512.0400, -56.973
1512.0600, -56.965
1512.0800, -56.950
1512.1000, -56.929
1512.1200, -56.929
1512.1400, -56.917
1512.1600, -56.911
1512.1800, -56.906
1512.2000, -56.895
1512.2200, -56.880
1512.2400, -56.865
1512.2600, -56.858
1512.2800, -56.835
1512.3000, -56.834
1512.3200, -56.809
1512.3400, -56.808
1512.3600, -56.779
1512.3800, -56.779
1512.4000, -56.785
1512.4200, -56.755
1512.4400, -56.751
1512.4600, -56.760
1512.4800, -56.721
1512.5000, -56.732
1512.5200, -56.699
1512.5400, -56.685
1512.5600, -56.675
1512.5800, -56.671
1512.6000, -56.658
1512.6200, -56.640
1512.6400, -56.626
1512.6600, -56.623
1512.6800, -56.608
1512.7000, -56.597
1512.7200, -56.582
1512.7400, -56.572
1512.7600, -56.564
1512.7800, -56.551
1512.8000, -56.544
1512.8200, -56.531
1512.8400, -56.517
1512.8600, -56.505
1512.8800, -56.498
1512.9000, -56.472
1512.9200, -56.466
1512.9400, -56.460
1512.9600, -56.452
1512.9800, -56.440
1513.0000, -56.413
1513.0200, -56.413
1513.0400, -56.391
1513.0600, -56.386
1513.0800, -56.380
1513.1000, -56.351
1513.1200, -56.353
1513.1400, -56.352
1513.1600, -56.323
1513.1800, -56.329
1513.2000, -56.306
1513.2200, -56.291
1513.2400, -56.280
1513.2600, -56.273
1513.2800, -56.259
1513.3000, -56.236
1513.3200, -56.233
1513.3400, -56.221
1513.3600, -56.202
1513.3800, -56.195
1513.4000, -56.191
1513.4200, -56.153
1513.4400, -56.151
1513.4600, -56.156
1513.4800, -56.135
1513.5000, -56.114
1513.5200, -56.109
1513.5400, -56.096
1513.5600, -56.084
1513.5800, -56.071
1513.6000, -56.061
1513.6200, -56.047
1513.6400, -56.028
1513.6600, -56.016
1513.6800, -56.017
1513.7000, -55.991
1513.7200, -55.989
1513.7400, -55.977
1513.7600, -55.962
1513.7800, -55.949
1513.8000, -55.943
1513.8200, -55.932
1513.8400, -55.908
1513.8600, -55.888
1513.8800, -55.880
1513.9000, -55.870
1513.9200, -55.856
1513.9400, -55.851
1513.9600, -55.843
1513.9800, -55.823
1514.0000, -55.807
1514.0200, -55.786
1514.0400, -55.793
1514.0600, -55.768
1514.0800, -55.761
1514.1000, -55.742
1514.1200, -55.736
1514.1400, -55.737
1514.1600, -55.715
1514.1800, -55.693
1514.2000, -55.675
1514.2200, -55.659
1514.2400, -55.654
1514.2600, -55.637
1514.2800, -55.622
1514.3000, -55.612
1514.3200, -55.601
1514.3400, -55.577
1514.3600, -55.579
1514.3800, -55.560
1514.4000, -55.551
1514.4200, -55.529
1514.4400, -55.516
1514.4600, -55.503
1514.4800, -55.478
1514.5000, -55.482
1514.5200, -55.458
1514.5400, -55.452
1514.5600, -55.436
1514.5800, -55.421
1514.6000, -55.419
1514.6200, -55.400
1514.6400, -55.383
1514.6600, -55.389
1514.6800, -55.352
1514.7000, -55.351
1514.7200, -55.335
1514.7400, -55.319
1514.7600, -55.303
1514.7800, -55.296
1514.8000, -55.275
1514.8200, -55.262
1514.8400, -55.245
1514.8600, -55.246
1514.8800, -55.225
1514.9000, -55.221
1514.9200, -55.200
1514.9400, -55.176
1514.9600, -55.170
1514.9800, -55.154
1515.0000, -55.154
1515.0200, -55.126
1515.0400, -55.121
1515.0600, -55.109
1515.0800, -55.088
1515.1000, -55.072
1515.1200, -55.065
1515.1400, -55.046
1515.1600, -55.030
1515.1800, -55.015
1515.2000, -54.994
1515.2200, -54.979
1515.2400, -54.979
1515.2600, -54.953
1515.2800, -54.932
1515.3000, -54.923
1515.3200, -54.911
1515.3400, -54.897
1515.3600, -54.887
1515.3800, -54.870
1515.4000, -54.865
1515.4200, -54.828
1515.4400, -54.821
1515.4600, -54.794
1515.4800, -54.800
1515.5000, -54.766
1515.5200, -54.768
1515.5400, -54.761
1515.5600, -54.734
1515.5800, -54.722
1515.6000, -54.702
1515.6200, -54.697
1515.6400, -54.676
1515.6600, -54.668
1515.6800, -54.653
1515.7000, -54.633
1515.7200, -54.624
1515.7400, -54.612
1515.7600, -54.579
1515.7800, -54.567
1515.8000, -54.560
1515.8200, -54.549
1515.8400, -54.529
1515.8600, -54.516
1515.8800, -54.495
1515.9000, -54.477
1515.9200, -54.470
1515.9400, -54.451
1515.9600, -54.445
1515.9800, -54.424
1516.0000, -54.412
1516.0200, -54.396
1516.0400, -54.384
1516.0600, -54.357
1516.0800, -54.352
1516.1000, -54.327
1516.1200, -54.311
1516.1400, -54.289
1516.1600, -54.273
1516.1800, -54.259
1516.2000, -54.244
1516.2200, -54.225
1516.2400, -54.210
1516.2600, -54.204
1516.2800, -54.178
1516.3000, -54.182
1516.3200, -54.155
1516.3400, -54.137
1516.3600, -54.118
1516.3800, -54.103
1516.4000, -54.080
1516.4200, -54.075
1516.4400, -54.042
1516.4600, -54.035
1516.4800, -54.009
1516.5000, -53.995
1516.5200, -53.980
1516.5400, -53.969
1516.5600, -53.952
1516.5800, -53.940
1516.6000, -53.920
1516.6200, -53.908
1516.6400, -53.889
1516.6600, -53.867
1516.6800, -53.853
1516.7000, -53.827
1516.7200, -53.812
1516.7400, -53.796
1516.7600, -53.788
1516.7800, -53.768
1516.8000, -53.754
1516.8200, -53.739
1516.8400, -53.709
1516.8600, -53.699
1516.8800, -53.687
1516.9000, -53.669
1516.9200, -53.648
1516.9400, -53.633
1516.9600, -53.614
1516.9800, -53.597
1517.0000, -53.581
1517.0200, -53.550
1517.0400, -53.537
1517.0600, -53.517
1517.0800, -53.504
1517.1000, -53.480
1517.1200, -53.447
1517.1400, -53.442
1517.1600, -53.422
1517.1800, -53.390
1517.2000, -53.394
1517.2200, -53.360
1517.2400, -53.354
1517.2600, -53.335
1517.2800, -53.316
1517.3000, -53.299
1517.3200, -53.270
1517.3400, -53.258
1517.3600, -53.223
1517.3800, -53.223
1517.4000, -53.195
1517.4200, -53.192
1517.4400, -53.160
1517.4600, -53.150
1517.4800, -53.132
1517.5000, -53.112
1517.5200, -53.094
1517.5400, -53.075
1517.5600, -53.057
1517.5800, -53.038
1517.6000, -53.021
1517.6200, -52.994
1517.6400, -52.978
1517.6600, -52.947
1517.6800, -52.931
1517.7000, -52.905
1517.7200, -52.897
1517.7400, -52.874
1517.7600, -52.846
1517.7800, -52.831
1517.8000, -52.806
1517.8200, -52.796
1517.8400, -52.780
1517.8600, -52.756
1517.8800, -52.742
1517.9000, -52.720
1517.9200, -52.698
1517.9400, -52.678
1517.9600, -52.649
1517.9800, -52.634
1518.0000, -52.609
1518.0200, -52.589
1518.0400, -52.564
1518.0600, -52.551
1518.0800, -52.539
1518.1000, -52.499
1518.1200, -52.473
1518.1400, -52.465
1518.1600, -52.446
1518.1800, -52.429
1518.2000, -52.402
1518.2200, -52.379
1518.2400, -52.357
1518.2600, -52.328
1518.2800, -52.315
1518.3000, -52.287
1518.3200, -52.269
1518.3400, -52.244
1518.3600, -52.226
1518.3800, -52.214
1518.4000, -52.187
1518.4200, -52.170
1518.4400, -52.147
1518.4600, -52.122
1518.4800, -52.098
1518.5000, -52.077
1518.5200, -52.054
1518.5400, -52.032
1518.5600, -52.008
1518.5800, -51.975
1518.6000, -51.951
1518.6200, -51.930
1518.6400, -51.906
1518.6600, -51.895
1518.6800, -51.861
1518.7000, -51.843
1518.7200, -51.816
1518.7400, -51.796
1518.7600, -51.777
1518.7800, -51.758
1518.8000, -51.733
1518.8200, -51.711
1518.8400, -51.685
1518.8600, -51.664
1518.8800, -51.645
1518.9000, -51.618
1518.9200, -51.591
1518.9400, -51.560
1518.9600, -51.537
1518.9800, -51.511
1519.0000, -51.487
1519.0200, -51.475
1519.0400, -51.438
1519.0600, -51.403
1519.0800, -51.399
1519.1000, -51.375
1519.1200, -51.344
1519.1400, -51.317
1519.1600, -51.296
1519.1800, -51.267
1519.2000, -51.234
1519.2200, -51.212
1519.2400, -51.184
1519.2600, -51.162
1519.2800, -51.126
1519.3000, -51.096
1519.3200, -51.087
1519.3400, -51.057
1519.3600, -51.036
1519.3800, -51.007
1519.4000, -50.984
1519.4200, -50.954
1519.4400, -50.929
1519.4600, -50.899
1519.4800, -50.872
1519.5000, -50.838
1519.5200, -50.821
1519.5400, -50.784
1519.5600, -50.760
1519.5800, -50.739
1519.6000, -50.711
1519.6200, -50.682
1519.6400, -50.657
1519.6600, -50.617
1519.6800, -50.591
1519.7000, -50.575
1519.7200, -50.549
1519.7400, -50.523
1519.7600, -50.498
1519.7800, -50.471
1519.8000, -50.439
1519.8200, -50.412
1519.8400, -50.383
1519.8600, -50.350
1519.8800, -50.317
1519.9000, -50.289
1519.9200, -50.258
1519.9400, -50.221
1519.9600, -50.208
1519.9800, -50.168
1520.0000, -50.140
1520.0200, -50.106
1520.0400, -50.090
1520.0600, -50.061
1520.0800, -50.027
1520.1000, -49.994
1520.1200, -49.961
1520.1400, -49.918
1520.1600, -49.894
1520.1800, -49.858
1520.2000, -49.827
1520.2200, -49.792
1520.2400, -49.763
1520.2600, -49.747
1520.2800, -49.716
1520.3000, -49.687
1520.3200, -49.654
1520.3400, -49.624
1520.3600, -49.595
1520.3800, -49.566
1520.4000, -49.531
1520.4200, -49.502
1520.4400, -49.468
1520.4600, -49.427
1520.4800, -49.393
1520.5000, -49.364
1520.5200, -49.337
1520.5400, -49.305
1520.5600, -49.273
1520.5800, -49.237
1520.6000, -49.192
1520.6200, -49.167
1520.6400, -49.135
1520.6600, -49.108
1520.6800, -49.078
1520.7000, -49.045
1520.7200, -49.013
1520.7400, -48.979
1520.7600, -48.942
1520.7800, -48.906
1520.8000, -48.871
1520.8200, -48.832
1520.8400, -48.799
1520.8600, -48.763
1520.8800, -48.721
1520.9000, -48.699
1520.9200, -48.645
1520.9400, -48.608
1520.9600, -48.583
1520.9800, -48.552
1521.0000, -48.518
1521.0200, -48.484
1521.0400, -48.446
1521.0600, -48.407
1521.0800, -48.366
1521.1000, -48.335
1521.1200, -48.289
1521.1400, -48.259
1521.1600, -48.215
1521.1800, -48.178
1521.2000, -48.150
1521.2200, -48.107
1521.2400, -48.085
1521.2600, -48.051
1521.2800, -48.013
1521.3000, -47.977
1521.3200, -47.933
1521.3400, -47.897
1521.3600, -47.863
1521.3800, -47.828
1521.4000, -47.781
1521.4200, -47.738
1521.4400, -47.705
1521.4600, -47.671
1521.4800, -47.637
1521.5000, -47.602
1521.5200, -47.561
1521.5400, -47.511
1521.5600, -47.476
1521.5800, -47.440
1521.6000, -47.406
1521.6200, -47.371
1521.6400, -47.332
1521.6600, -47.296
1521.6800, -47.257
1521.7000, -47.215
1521.7200, -47.173
1521.7400, -47.130
1521.7600, -47.087
1521.7800, -47.049
1521.8000, -47.009
1521.8200, -46.968
1521.8400, -46.935
1521.8600, -46.884
1521.8800, -46.842
1521.9000, -46.803
1521.9200, -46.779
1521.9400, -46.738
1521.9600, -46.695
1521.9800, -46.661
1522.0000, -46.612
1522.0200, -46.565
1522.0400, -46.530
1522.0600, -46.473
1522.0800, -46.435
1522.1000, -46.399
1522.1200, -46.365
1522.1400, -46.334
1522.1600, -46.299
1522.1800, -46.254
1522.2000, -46.213
1522.2200, -46.173
1522.2400, -46.133
1522.2600, -46.093
1522.2800, -46.049
1522.3000, -46.011
1522.3200, -45.976
1522.3400, -45.922
1522.3600, -45.880
1522.3800, -45.835
1522.4000, -45.797
1522.4200, -45.762
1522.4400, -45.723
1522.4600, -45.680
1522.4800, -45.629
1522.5000, -45.589
1522.5200, -45.551
1522.5400, -45.509
1522.5600, -45.470
1522.5800, -45.431
1522.6000, -45.388
1522.6200, -45.347
1522.6400, -45.300
1522.6600, -45.258
1522.6800, -45.210
1522.7000, -45.169
1522.7200, -45.128
1522.7400, -45.083
1522.7600, -45.030
1522.7800, -45.003
1522.8000, -44.953
1522.8200, -44.907
1522.8400, -44.876
1522.8600, -44.830
1522.8800, -44.789
1522.9000, -44.749
1522.9200, -44.712
1522.9400, -44.662
1522.9600, -44.624
1522.9800, -44.582
1523.0000, -44.533
1523.0200, -44.495
1523.0400, -44.447
1523.0600, -44.409
1523.0800, -44.370
1523.1000, -44.333
1523.1200, -44.291
1523.1400, -44.246
1523.1600, -44.204
1523.1800, -44.164
1523.2000, -44.121
1523.2200, -44.079
1523.2400, -44.032
1523.2600, -43.987
1523.2800, -43.948
1523.3000, -43.906
1523.3200, -43.865
1523.3400, -43.822
1523.3600, -43.780
1523.3800, -43.736
1523.4000, -43.686
1523.4200, -43.651
1523.4400, -43.612
1523.4600, -43.573
1523.4800, -43.531
1523.5000, -43.488
1523.5200, -43.446
1523.5400, -43.403
1523.5600, -43.361
1523.5800, -43.319
1523.6000, -43.279
1523.6200, -43.233
1523.6400, -43.190
1523.6600, -43.147
1523.6800, -43.105
1523.7000, -43.060
1523.7200, -43.021
1523.7400, -42.980
1523.7600, -42.936
1523.7800, -42.898
1523.8000, -42.859
1523.8200, -42.817
1523.8400, -42.772
1523.8600, -42.732
1523.8800, -42.686
1523.9000, -42.643
1523.9200, -42.603
1523.9400, -42.558
1523.9600, -42.519
1523.9800, -42.476
1524.0000, -42.433
1524.0200, -42.398
1524.0400, -42.358
1524.0600, -42.316
1524.0800, -42.274
1524.1000, -42.233
1524.1200, -42.193
1524.1400, -42.151
1524.1600, -42.109
1524.1800, -42.069
1524.2000, -42.028
1524.2200, -41.983
1524.2400, -41.943
1524.2600, -41.906
1524.2800, -41.865
1524.3000, -41.825
1524.3200, -41.783
1524.3400, -41.740
1524.3600, -41.699
1524.3800, -41.659
1524.4000, -41.623
1524.4200, -41.584
1524.4400, -41.545
1524.4600, -41.503
1524.4800, -41.466
1524.5000, -41.420
1524.5200, -41.380
1524.5400, -41.340
1524.5600, -41.300
1524.5800, -41.262
1524.6000, -41.221
1524.6200, -41.180
1524.6400, -41.141
1524.6600, -41.093
1524.6800, -41.053
1524.7000, -41.013
1524.7200, -40.977
1524.7400, -40.937
1524.7600, -40.898
1524.7800, -40.859
1524.8000, -40.817
1524.8200, -40.773
1524.8400, -40.733
1524.8600, -40.693
1524.8800, -40.653
1524.9000, -40.612
1524.9200, -40.572
1524.9400, -40.531
1524.9600, -40.491
1524.9800, -40.452
1525.0000, -40.411
1525.0200, -40.371
1525.0400, -40.333
1525.0600, -40.291
1525.0800, -40.249
1525.1000, -40.204
1525.1200, -40.168
1525.1400, -40.127
1525.1600, -40.090
1525.1800, -40.053
1525.2000, -40.016
1525.2200, -39.978
1525.2400, -39.940
1525.2600, -39.900
1525.2800, -39.862
1525.3000, -39.823
1525.3200, -39.784
1525.3400, -39.747
1525.3600, -39.711
1525.3800, -39.672
1525.4000, -39.635
1525.4200, -39.597
1525.4400, -39.557
1525.4600, -39.515
1525.4800, -39.472
1525.5000, -39.431
1525.5200, -39.391
1525.5400, -39.351
1525.5600, -39.311
1525.5800, -39.271
1525.6000, -39.231
1525.6200, -39.192
1525.6400, -39.154
1525.6600, -39.116
1525.6800, -39.079
1525.7000, -39.034
1525.7200, -38.994
1525.7400, -38.953
1525.7600, -38.913
1525.7800, -38.871
1525.8000, -38.827
1525.8200, -38.785
1525.8400, -38.741
1525.8600, -38.704
1525.8800, -38.670
1525.9000, -38.630
1525.9200, -38.592
1525.9400, -38.554
1525.9600, -38.518
1525.9800, -38.484
1526.0000, -38.450
1526.0200, -38.416
1526.0400, -38.378
1526.0600, -38.339
1526.0800, -38.294
1526.1000, -38.256
1526.1200, -38.220
1526.1400, -38.179
1526.1600, -38.138
1526.1800, -38.103
1526.2000, -38.057
1526.2200, -38.017
1526.2400, -37.975
1526.2600, -37.935
1526.2800, -37.900
1526.3000, -37.865
1526.3200, -37.828
1526.3400, -37.796
1526.3600, -37.760
1526.3800, -37.726
1526.4000, -37.685
1526.4200, -37.643
1526.4400, -37.603
1526.4600, -37.565
1526.4800, -37.532
1526.5000, -37.493
1526.5200, -37.455
1526.5400, -37.415
1526.5600, -37.371
1526.5800, -37.339
1526.6000, -37.295
1526.6200, -37.257
1526.6400, -37.222
1526.6600, -37.184
1526.6800, -37.144
1526.7000, -37.107
1526.7200, -37.069
1526.7400, -37.029
1526.7600, -36.989
1526.7800, -36.940
1526.8000, -36.912
1526.8200, -36.881
1526.8400, -36.849
1526.8600, -36.810
1526.8800, -36.766
1526.9000, -36.722
1526.9200, -36.685
1526.9400, -36.641
1526.9600, -36.602
1526.9800, -36.566
1527.0000, -36.520
1527.0200, -36.485
1527.0400, -36.444
1527.0600, -36.409
1527.0800, -36.376
1527.1000, -36.330
1527.1200, -36.292
1527.1400, -36.260
1527.1600, -36.222
1527.1800, -36.188
1527.2000, -36.155
1527.2200, -36.120
1527.2400, -36.079
1527.2600, -36.041
1527.2800, -36.004
1527.3000, -35.970
1527.3200, -35.931
1527.3400, -35.887
1527.3600, -35.850
1527.3800, -35.806
1527.4000, -35.768
1527.4200, -35.724
1527.4400, -35.684
1527.4600, -35.642
1527.4800, -35.595
1527.5000, -35.556
1527.5200, -35.518
1527.5400, -35.465
1527.5600, -35.428
1527.5800, -35.385
1527.6000, -35.340
1527.6200, -35.301
1527.6400, -35.257
1527.6600, -35.209
1527.6800, -35.173
1527.7000, -35.123
1527.7200, -35.063
1527.7400, -35.041
1527.7600, -35.003
1527.7800, -34.958
1527.8000, -34.917
1527.8200, -34.872
1527.8400, -34.827
1527.8600, -34.784
1527.8800, -34.740
1527.9000, -34.699
1527.9200, -34.656
1527.9400, -34.608
1527.9600, -34.553
1527.9800, -34.514
1528.0000, -34.474
1528.0200, -34.425
1528.0400, -34.382
1528.0600, -34.325
1528.0800, -34.278
1528.1000, -34.248
1528.1200, -34.206
1528.1400, -34.156
1528.1600, -34.112
1528.1800, -34.064
1528.2000, -34.019
1528.2200, -33.977
1528.2400, -33.932
1528.2600, -33.883
1528.2800, -33.844
1528.3000, -33.801
1528.3200, -33.764
1528.3400, -33.729
1528.3600, -33.682
1528.3800, -33.637
1528.4000, -33.590
1528.4200, -33.545
1528.4400, -33.532
1528.4600, -33.491
1528.4800, -33.462
1528.5000, -33.422
1528.5200, -33.380
1528.5400, -33.337
1528.5600, -33.298
1528.5800, -33.256
1528.6000, -33.212
1528.6200, -33.171
1528.6400, -33.116
1528.6600, -33.104
1528.6800, -33.075
1528.7000, -33.030
1528.7200, -32.984
1528.7400, -32.938
1528.7600, -32.895
1528.7800, -32.857
1528.8000, -32.812
1528.8200, -32.756
1528.8400, -32.689
1528.8600, -32.649
1528.8800, -32.604
1528.9000, -32.567
1528.9200, -32.530
1528.9400, -32.488
1528.9600, -32.436
1528.9800, -32.375
1529.0000, -32.318
1529.0200, -32.283
1529.0400, -32.232
1529.0600, -32.192
1529.0800, -32.145
1529.1000, -32.103
1529.1200, -32.056
1529.1400, -32.009
1529.1600, -31.961
1529.1800, -31.906
1529.2000, -31.851
1529.2200, -31.795
1529.2400, -31.733
1529.2600, -31.693
1529.2800, -31.642
1529.3000, -31.615
1529.3200, -31.551
1529.3400, -31.493
1529.3600, -31.470
1529.3800, -31.391
1529.4000, -31.355
1529.4200, -31.311
1529.4400, -31.252
1529.4600, -31.230
1529.4800, -31.172
1529.5000, -31.127
1529.5200, -31.102
1529.5400, -31.072
1529.5600, -31.103
1529.5800, -31.149
1529.6000, -31.016
1529.6200, -30.920
1529.6400, -30.877
1529.6600, -30.762
1529.6800, -30.717
1529.7000, -30.672
1529.7200, -30.637
1529.7400, -30.594
1529.7600, -30.604
1529.7800, -30.703
1529.8000, -30.504
1529.8200, -30.430
1529.8400, -30.433
1529.8600, -30.345
1529.8800, -30.346
1529.9000, -30.316
1529.9200, -30.280
1529.9400, -30.337
1529.9600, -30.322
1529.9800, -30.242
1530.0000, -30.229
1530.0200, -30.149
1530.0400, -30.023
1530.0600, -29.994
1530.0800, -30.016
1530.1000, -29.990
1530.1200, -29.955
1530.1400, -29.933
1530.1600, -29.996
1530.1800, -29.916
1530.2000, -29.842
1530.2200, -29.846
1530.2400, -29.722
1530.2600, -29.731
1530.2800, -29.662
1530.3000, -29.727
1530.3200, -29.784
1530.3400, -29.726
1530.3600, -29.658
1530.3800, -29.620
1530.4000, -29.381
1530.4200, -29.293
1530.4400, -29.323
1530.4600, -29.208
1530.4800, -29.317
1530.5000, -29.051
1530.5200, -29.182
1530.5400, -29.073
1530.5600, -29.051
1530.5800, -29.066
1530.6000, -29.028
1530.6200, -28.965
1530.6400, -28.929
1530.6600, -28.821
1530.6800, -28.800
1530.7000, -28.695
1530.7200, -28.712
1530.7400, -28.741
1530.7600, -28.789
1530.7800, -28.729
1530.8000, -28.687
1530.8200, -28.667
1530.8400, -28.490
1530.8600, -28.600
1530.8800, -28.782
1530.9000, -28.613
1530.9200, -28.573
1530.9400, -28.580
1530.9600, -28.410
1530.9800, -28.492
1531.0000, -28.589
1531.0200, -28.566
1531.0400, -28.616
1531.0600, -28.534
1531.0800, -28.461
1531.1000, -28.556
1531.1200, -28.523
1531.1400, -28.296
1531.1600, -28.348
1531.1800, -28.399
1531.2000, -28.214
1531.2200, -28.382
1531.2400, -27.952
1531.2600, -28.129
1531.2800, -28.161
1531.3000, -28.145
1531.3200, -27.867
1531.3400, -27.905
1531.3600, -27.911
1531.3800, -27.703
1531.4000, -27.362
1531.4200, -27.717
1531.4400, -27.208
1531.4600, -27.581
1531.4800, -27.265
1531.5000, -27.616
1531.5200, -27.112
1531.5400, -27.869
1531.5600, -27.271
1531.5800, -26.571
1531.6000, -27.408
1531.6200, -27.151
1531.6400, -27.306
1531.6600, -27.398
1531.6800, -27.665
1531.7000, -27.970
1531.7200, -27.888
1531.7400, -27.414
1531.7600, -27.729
1531.7800, -27.022
1531.8000, -25.626
1531.8200, -26.714
1531.8400, -27.159
1531.8600, -26.310
1531.8800, -27.228
1531.9000, -27.089
1531.9200, -26.882
1531.9400, -26.734
1531.9600, -27.109
1531.9800, -26.072
1532.0000, -25.843
1532.0200, -26.388
1532.0400, -27.514
1532.0600, -27.324
1532.0800, -26.764
1532.1000, -25.426
1532.1200, -26.139
1532.1400, -27.170
1532.1600, -27.015
1532.1800, -27.343
1532.2000, -27.412
1532.2200, -25.136
1532.2400, -27.042
1532.2600, -27.866
1532.2800, -27.699
1532.3000, -27.663
1532.3200, -26.405
1532.3400, -27.289
1532.3600, -27.824
1532.3800, -27.845
1532.4000, -27.040
1532.4200, -27.534
1532.4400, -27.594
1532.4600, -27.558
1532.4800, -27.827
1532.5000, -24.646
1532.5200, -26.450
1532.5400, -27.667
1532.5600, -27.869
1532.5800, -26.743
1532.6000, -27.374
1532.6200, -27.858
1532.6400, -27.732
1532.6600, -28.089
1532.6800, -27.883
1532.7000, -26.372
1532.7200, -27.901
1532.7400, -28.046
1532.7600, -27.274
1532.7800, -27.955
1532.8000, -27.470
1532.8200, -25.732
1532.8400, -27.705
1532.8600, -27.140
1532.8800, -28.171
1532.9000, -27.986
1532.9200, -28.116
1532.9400, -27.428
1532.9600, -28.365
1532.9800, -27.900
1533.0000, -28.313
1533.0200, -27.995
1533.0400, -28.403
1533.0600, -28.368
1533.0800, -27.968
1533.1000, -27.097
1533.1200, -27.993
1533.1400, -28.245
1533.1600, -28.017
1533.1800, -27.585
1533.2000, -27.586
1533.2200, -28.688
1533.2400, -28.600
1533.2600, -28.388
1533.2800, -28.677
1533.3000, -28.473
1533.3200, -28.738
1533.3400, -28.804
1533.3600, -28.311
1533.3800, -28.600
1533.4000, -28.673
1533.4200, -28.993
1533.4400, -28.796
1533.4600, -28.670
1533.4800, -28.995
1533.5000, -29.101
1533.5200, -28.989
1533.5400, -29.468
1533.5600, -29.680
1533.5800, -29.613
1533.6000, -29.642
1533.6200, -29.654
1533.6400, -29.810
1533.6600, -30.036
1533.6800, -30.005
1533.7000, -30.014
1533.7200, -30.011
1533.7400, -30.186
1533.7600, -30.390
1533.7800, -30.465
1533.8000, -30.592
1533.8200, -30.635
1533.8400, -30.631
1533.8600, -30.752
1533.8800, -30.933
1533.9000, -31.041
1533.9200, -31.107
1533.9400, -31.083
1533.9600, -31.115
1533.9800, -31.279
1534.0000, -31.245
1534.0200, -31.340
1534.0400, -31.334
1534.0600, -31.438
1534.0800, -31.643
1534.1000, -31.579
1534.1200, -31.696
1534.1400, -31.672
1534.1600, -31.733
1534.1800, -31.809
1534.2000, -31.886
1534.2200, -31.846
1534.2400, -31.938
1534.2600, -32.008
1534.2800, -32.099
1534.3000, -32.155
1534.3200, -32.254
1534.3400, -32.353
1534.3600, -32.418
1534.3800, -32.453
1534.4000, -32.524
1534.4200, -32.611
1534.4400, -32.666
1534.4600, -32.813
1534.4800, -32.747
1534.5000, -32.869
1534.5200, -32.934
1534.5400, -32.928
1534.5600, -33.012
1534.5800, -33.038
1534.6000, -33.104
1534.6200, -33.212
1534.6400, -33.251
1534.6600, -33.371
1534.6800, -33.381
1534.7000, -33.419
1534.7200, -33.452
1534.7400, -33.488
1534.7600, -33.596
1534.7800, -33.701
1534.8000, -33.714
1534.8200, -33.774
1534.8400, -33.844
1534.8600, -33.924
1534.8800, -33.968
1534.9000, -34.037
1534.9200, -34.060
1534.9400, -34.088
1534.9600, -34.130
1534.9800, -34.235
1535.0000, -34.270
1535.0200, -34.393
1535.0400, -34.411
1535.0600, -34.473
1535.0800, -34.536
1535.1000, -34.580
1535.1200, -34.663
1535.1400, -34.697
1535.1600, -34.762
1535.1800, -34.793
1535.2000, -34.840
1535.2200, -34.899
1535.2400, -34.950
1535.2600, -35.006
1535.2800, -35.070
1535.3000, -35.126
1535.3200, -35.199
1535.3400, -35.239
1535.3600, -35.305
1535.3800, -35.359
1535.4000, -35.415
1535.4200, -35.468
1535.4400, -35.508
1535.4600, -35.575
1535.4800, -35.626
1535.5000, -35.690
1535.5200, -35.749
1535.5400, -35.803
1535.5600, -35.857
1535.5800, -35.917
1535.6000, -35.971
1535.6200, -36.027
1535.6400, -36.079
1535.6600, -36.130
1535.6800, -36.185
1535.7000, -36.243
1535.7200, -36.292
1535.7400, -36.343
1535.7600, -36.399
1535.7800, -36.453
1535.8000, -36.506
1535.8200, -36.569
1535.8400, -36.620
1535.8600, -36.660
1535.8800, -36.719
1535.9000, -36.770
1535.9200, -36.817
1535.9400, -36.865
1535.9600, -36.913
1535.9800, -36.959
1536.0000, -37.004
1536.0200, -37.050
1536.0400, -37.092
1536.0600, -37.151
1536.0800, -37.197
1536.1000, -37.242
1536.1200, -37.292
1536.1400, -37.338
1536.1600, -37.385
1536.1800, -37.429
1536.2000, -37.472
1536.2200, -37.512
1536.2400, -37.547
1536.2600, -37.590
1536.2800, -37.636
1536.3000, -37.673
1536.3200, -37.715
1536.3400, -37.760
1536.3600, -37.796
1536.3800, -37.834
1536.4000, -37.878
1536.4200, -37.916
1536.4400, -37.962
1536.4600, -38.001
1536.4800, -38.041
1536.5000, -38.084
1536.5200, -38.125
1536.5400, -38.168
1536.5600, -38.206
1536.5800, -38.237
1536.6000, -38.266
1536.6200, -38.298
1536.6400, -38.333
1536.6600, -38.364
1536.6800, -38.396
1536.7000, -38.430
1536.7200, -38.466
1536.7400, -38.513
1536.7600, -38.544
1536.7800, -38.578
1536.8000, -38.606
1536.8200, -38.646
1536.8400, -38.676
1536.8600, -38.708
1536.8800, -38.740
1536.9000, -38.770
1536.9200, -38.802
1536.9400, -38.833
1536.9600, -38.870
1536.9800, -38.904
1537.0000, -38.934
1537.0200, -38.967
1537.0400, -39.001
1537.0600, -39.029
1537.0800, -39.062
1537.1000, -39.090
1537.1200, -39.123
1537.1400, -39.147
1537.1600, -39.174
1537.1800, -39.195
1537.2000, -39.230
1537.2200, -39.257
1537.2400, -39.282
1537.2600, -39.311
1537.2800, -39.331
1537.3000, -39.358
1537.3200, -39.382
1537.3400, -39.407
1537.3600, -39.438
1537.3800, -39.469
1537.4000, -39.497
1537.4200, -39.526
1537.4400, -39.550
1537.4600, -39.575
1537.4800, -39.598
1537.5000, -39.617
1537.5200, -39.638
1537.5400, -39.661
1537.5600, -39.686
1537.5800, -39.705
1537.6000, -39.735
1537.6200, -39.754
1537.6400, -39.779
1537.6600, -39.805
1537.6800, -39.826
1537.7000, -39.851
1537.7200, -39.871
1537.7400, -39.891
1537.7600, -39.906
1537.7800, -39.926
1537.8000, -39.944
1537.8200, -39.961
1537.8400, -39.988
1537.8600, -40.003
1537.8800, -40.021
1537.9000, -40.050
1537.9200, -40.060
1537.9400, -40.087
1537.9600, -40.107
1537.9800, -40.123
1538.0000, -40.140
1538.0200, -40.159
1538.0400, -40.178
1538.0600, -40.189
1538.0800, -40.203
1538.1000, -40.221
1538.1200, -40.249
1538.1400, -40.262
1538.1600, -40.285
1538.1800, -40.303
1538.2000, -40.310
1538.2200, -40.326
1538.2400, -40.346
1538.2600, -40.363
1538.2800, -40.379
1538.3000, -40.395
1538.3200, -40.408
1538.3400, -40.421
1538.3600, -40.435
1538.3800, -40.446
1538.4000, -40.460
1538.4200, -40.470
1538.4400, -40.480
1538.4600, -40.496
1538.4800, -40.510
1538.5000, -40.518
1538.5200, -40.536
1538.5400, -40.545
1538.5600, -40.558
1538.5800, -40.580
1538.6000, -40.589
1538.6200, -40.602
1538.6400, -40.610
1538.6600, -40.620
1538.6800, -40.626
1538.7000, -40.631
1538.7200, -40.640
1538.7400, -40.640
1538.7600, -40.656
1538.7800, -40.666
1538.8000, -40.683
1538.8200, -40.698
1538.8400, -40.708
1538.8600, -40.714
1538.8800, -40.722
1538.9000, -40.730
1538.9200, -40.741
1538.9400, -40.748
1538.9600, -40.756
1538.9800, -40.768
1539.0000, -40.767
1539.0200, -40.772
1539.0400, -40.786
1539.0600, -40.790
1539.0800, -40.802
1539.1000, -40.808
1539.1200, -40.806
1539.1400, -40.816
1539.1600, -40.820
1539.1800, -40.829
1539.2000, -40.835
1539.2200, -40.844
1539.2400, -40.849
1539.2600, -40.854
1539.2800, -40.864
1539.3000, -40.868
1539.3200, -40.874
1539.3400, -40.876
1539.3600, -40.877
1539.3800, -40.885
1539.4000, -40.889
1539.4200, -40.886
1539.4400, -40.893
1539.4600, -40.897
1539.4800, -40.906
1539.5000, -40.920
1539.5200, -40.918
1539.5400, -40.927
1539.5600, -40.934
1539.5800, -40.943
1539.6000, -40.944
1539.6200, -40.949
1539.6400, -40.954
1539.6600, -40.958
1539.6800, -40.956
1539.7000, -40.952
1539.7200, -40.964
1539.7400, -40.969
1539.7600, -40.972
1539.7800, -40.973
1539.8000, -40.973
1539.8200, -40.976
1539.8400, -40.979
1539.8600, -40.981
1539.8800, -40.984
1539.9000, -40.979
1539.9200, -40.982
1539.9400, -40.988
1539.9600, -40.989
1539.9800, -40.993
1540.0000, -40.995
1540.0200, -40.988
1540.0400, -40.988
1540.0600, -40.994
1540.0800, -40.997
1540.1000, -41.003
1540.1200, -41.007
1540.1400, -41.012
1540.1600, -41.015
1540.1800, -41.015
1540.2000, -41.017
1540.2200, -41.017
1540.2400, -41.017
1540.2600, -41.014
1540.2800, -41.009
1540.3000, -41.003
1540.3200, -41.000
1540.3400, -40.990
1540.3600, -40.996
1540.3800, -40.990
1540.4000, -40.992
1540.4200, -40.991
1540.4400, -40.994
1540.4600, -40.993
1540.4800, -40.991
1540.5000, -40.988
1540.5200, -40.984
1540.5400, -40.981
1540.5600, -40.980
1540.5800, -40.978
1540.6000, -40.979
1540.6200, -40.981
1540.6400, -40.986
1540.6600, -40.976
1540.6800, -40.979
1540.7000, -40.981
1540.7200, -40.976
1540.7400, -40.977
1540.7600, -40.974
1540.7800, -40.972
1540.8000, -40.965
1540.8200, -40.958
1540.8400, -40.957
1540.8600, -40.954
1540.8800, -40.955
1540.9000, -40.958
1540.9200, -40.961
1540.9400, -40.962
1540.9600, -40.956
1540.9800, -40.953
1541.0000, -40.953
1541.0200, -40.955
1541.0400, -40.956
1541.0600, -40.955
1541.0800, -40.951
1541.1000, -40.948
1541.1200, -40.945
1541.1400, -40.941
1541.1600, -40.936
1541.1800, -40.931
1541.2000, -40.928
1541.2200, -40.928
1541.2400, -40.919
1541.2600, -40.918
1541.2800, -40.916
1541.3000, -40.908
1541.3200, -40.915
1541.3400, -40.914
1541.3600, -40.912
1541.3800, -40.908
1541.4000, -40.905
1541.4200, -40.897
1541.4400, -40.892
1541.4600, -40.889
1541.4800, -40.877
1541.5000, -40.884
1541.5200, -40.876
1541.5400, -40.873
1541.5600, -40.882
1541.5800, -40.878
1541.6000, -40.876
1541.6200, -40.872
1541.6400, -40.866
1541.6600, -40.862
1541.6800, -40.858
1541.7000, -40.853
1541.7200, -40.852
1541.7400, -40.847
1541.7600, -40.836
1541.7800, -40.827
1541.8000, -40.830
1541.8200, -40.831
1541.8400, -40.830
1541.8600, -40.829
1541.8800, -40.820
1541.9000, -40.813
1541.9200, -40.814
1541.9400, -40.813
1541.9600, -40.811
1541.9800, -40.807
1542.0000, -40.805
1542.0200, -40.800
1542.0400, -40.793
1542.0600, -40.786
1542.0800, -40.779
1542.1000, -40.773
1542.1200, -40.769
1542.1400, -40.766
1542.1600, -40.754
1542.1800, -40.755
1542.2000, -40.751
1542.2200, -40.748
1542.2400, -40.752
1542.2600, -40.741
1542.2800, -40.739
1542.3000, -40.737
1542.3200, -40.735
1542.3400, -40.723
1542.3600, -40.718
1542.3800, -40.713
1542.4000, -40.701
1542.4200, -40.700
1542.4400, -40.696
1542.4600, -40.698
1542.4800, -40.689
1542.5000, -40.686
1542.5200, -40.683
1542.5400, -40.679
1542.5600, -40.676
1542.5800, -40.671
1542.6000, -40.664
1542.6200, -40.652
1542.6400, -40.650
1542.6600, -40.651
1542.6800, -40.645
1542.7000, -40.640
1542.7200, -40.640
1542.7400, -40.639
1542.7600, -40.633
1542.7800, -40.632
1542.8000, -40.626
1542.8200, -40.623
1542.8400, -40.619
1542.8600, -40.616
1542.8800, -40.615
1542.9000, -40.609
1542.9200, -40.606
1542.9400, -40.601
1542.9600, -40.595
1542.9800, -40.590
1543.0000, -40.580
1543.0200, -40.576
1543.0400, -40.571
1543.0600, -40.565
1543.0800, -40.553
1543.1000, -40.558
1543.1200, -40.551
1543.1400, -40.557
1543.1600, -40.556
1543.1800, -40.550
1543.2000, -40.546
1543.2200, -40.544
1543.2400, -40.540
1543.2600, -40.539
1543.2800, -40.537
1543.3000, -40.528
1543.3200, -40.531
1543.3400, -40.526
1543.3600, -40.530
1543.3800, -40.529
1543.4000, -40.524
1543.4200, -40.525
1543.4400, -40.523
1543.4600, -40.520
1543.4800, -40.520
1543.5000, -40.515
1543.5200, -40.512
1543.5400, -40.509
1543.5600, -40.505
1543.5800, -40.495
1543.6000, -40.488
1543.6200, -40.495
1543.6400, -40.498
1543.6600, -40.497
1543.6800, -40.486
1543.7000, -40.484
1543.7200, -40.474
1543.7400, -40.473
1543.7600, -40.470
1543.7800, -40.466
1543.8000, -40.461
1543.8200, -40.459
1543.8400, -40.457
1543.8600, -40.457
1543.8800, -40.453
1543.9000, -40.449
1543.9200, -40.445
1543.9400, -40.445
1543.9600, -40.441
1543.9800, -40.434
1544.0000, -40.440
1544.0200, -40.434
1544.0400, -40.439
1544.0600, -40.435
1544.0800, -40.423
1544.1000, -40.424
1544.1200, -40.421
1544.1400, -40.416
1544.1600, -40.408
1544.1800, -40.400
1544.2000, -40.397
1544.2200, -40.393
1544.2400, -40.397
1544.2600, -40.394
1544.2800, -40.402
1544.3000, -40.395
1544.3200, -40.394
1544.3400, -40.394
1544.3600, -40.389
1544.3800, -40.386
1544.4000, -40.385
1544.4200, -40.382
1544.4400, -40.383
1544.4600, -40.381
1544.4800, -40.373
1544.5000, -40.367
1544.5200, -40.368
1544.5400, -40.368
1544.5600, -40.369
1544.5800, -40.369
1544.6000, -40.361
1544.6200, -40.354
1544.6400, -40.357
1544.6600, -40.359
1544.6800, -40.362
1544.7000, -40.363
1544.7200, -40.361
1544.7400, -40.360
1544.7600, -40.363
1544.7800, -40.361
1544.8000, -40.361
1544.8200, -40.358
1544.8400, -40.356
1544.8600, -40.354
1544.8800, -40.349
1544.9000, -40.345
1544.9200, -40.347
1544.9400, -40.347
1544.9600, -40.351
1544.9800, -40.356
1545.0000, -40.354
1545.0200, -40.352
1545.0400, -40.352
1545.0600, -40.350
1545.0800, -40.347
1545.1000, -40.351
1545.1200, -40.339
1545.1400, -40.346
1545.1600, -40.347
1545.1800, -40.342
1545.2000, -40.356
1545.2200, -40.357
1545.2400, -40.355
1545.2600, -40.354
1545.2800, -40.355
1545.3000, -40.356
1545.3200, -40.356
1545.3400, -40.359
1545.3600, -40.354
1545.3800, -40.352
1545.4000, -40.352
1545.4200, -40.349
1545.4400, -40.358
1545.4600, -40.357
1545.4800, -40.356
1545.5000, -40.347
1545.5200, -40.345
1545.5400, -40.338
1545.5600, -40.337
1545.5800, -40.337
1545.6000, -40.338
1545.6200, -40.340
1545.6400, -40.344
1545.6600, -40.347
1545.6800, -40.346
1545.7000, -40.347
1545.7200, -40.342
1545.7400, -40.339
1545.7600, -40.337
1545.7800, -40.330
1545.8000, -40.320
1545.8200, -40.324
1545.8400, -40.325
1545.8600, -40.329
1545.8800, -40.333
1545.9000, -40.332
1545.9200, -40.332
1545.9400, -40.332
1545.9600, -40.328
1545.9800, -40.322
1546.0000, -40.321
1546.0200, -40.316
1546.0400, -40.311
1546.0600, -40.309
1546.0800, -40.301
1546.1000, -40.311
1546.1200, -40.314
1546.1400, -40.312
1546.1600, -40.313
1546.1800, -40.315
1546.2000, -40.316
1546.2200, -40.316
1546.2400, -40.316
1546.2600, -40.315
1546.2800, -40.302
1546.3000, -40.304
1546.3200, -40.307
1546.3400, -40.305
1546.3600, -40.307
1546.3800, -40.311
1546.4000, -40.317
1546.4200, -40.308
1546.4400, -40.312
1546.4600, -40.314
1546.4800, -40.318
1546.5000, -40.322
1546.5200, -40.325
1546.5400, -40.323
1546.5600, -40.326
1546.5800, -40.325
1546.6000, -40.326
1546.6200, -40.324
1546.6400, -40.319
1546.6600, -40.327
1546.6800, -40.327
1546.7000, -40.318
1546.7200, -40.324
1546.7400, -40.320
1546.7600, -40.326
1546.7800, -40.321
1546.8000, -40.325
1546.8200, -40.319
1546.8400, -40.319
1546.8600, -40.320
1546.8800, -40.310
1546.9000, -40.314
1546.9200, -40.311
1546.9400, -40.317
1546.9600, -40.315
1546.9800, -40.316
1547.0000, -40.327
1547.0200, -40.325
1547.0400, -40.323
1547.0600, -40.324
1547.0800, -40.324
1547.1000, -40.326
1547.1200, -40.328
1547.1400, -40.324
1547.1600, -40.330
1547.1800, -40.340
1547.2000, -40.336
1547.2200, -40.338
1547.2400, -40.337
1547.2600, -40.344
1547.2800, -40.342
1547.3000, -40.345
1547.3200, -40.341
1547.3400, -40.341
1547.3600, -40.345
1547.3800, -40.351
1547.4000, -40.354
1547.4200, -40.352
1547.4400, -40.352
1547.4600, -40.354
1547.4800, -40.354
1547.5000, -40.348
1547.5200, -40.350
1547.5400, -40.344
1547.5600, -40.348
1547.5800, -40.346
1547.6000, -40.344
1547.6200, -40.346
1547.6400, -40.347
1547.6600, -40.351
1547.6800, -40.362
1547.7000, -40.369
1547.7200, -40.370
1547.7400, -40.370
1547.7600, -40.369
1547.7800, -40.362
1547.8000, -40.360
1547.8200, -40.363
1547.8400, -40.363
1547.8600, -40.360
1547.8800, -40.356
1547.9000, -40.365
1547.9200, -40.366
1547.9400, -40.369
1547.9600, -40.368
1547.9800, -40.369
1548.0000, -40.373
1548.0200, -40.378
1548.0400, -40.382
1548.0600, -40.382
1548.0800, -40.373
1548.1000, -40.374
1548.1200, -40.373
1548.1400, -40.371
1548.1600, -40.373
1548.1800, -40.377
1548.2000, -40.384
1548.2200, -40.381
1548.2400, -40.382
1548.2600, -40.386
1548.2800, -40.389
1548.3000, -40.394
1548.3200, -40.394
1548.3400, -40.394
1548.3600, -40.396
1548.3800, -40.396
1548.4000, -40.395
1548.4200, -40.397
1548.4400, -40.392
1548.4600, -40.396
1548.4800, -40.400
1548.5000, -40.399
1548.5200, -40.398
1548.5400, -40.393
1548.5600, -40.390
1548.5800, -40.402
1548.6000, -40.402
1548.6200, -40.409
1548.6400, -40.408
1548.6600, -40.410
1548.6800, -40.408
1548.7000, -40.408
1548.7200, -40.411
1548.7400, -40.411
1548.7600, -40.414
1548.7800, -40.417
1548.8000, -40.430
1548.8200, -40.435
1548.8400, -40.435
1548.8600, -40.434
1548.8800, -40.433
1548.9000, -40.437
1548.9200, -40.439
1548.9400, -40.434
1548.9600, -40.432
1548.9800, -40.442
1549.0000, -40.437
1549.0200, -40.441
1549.0400, -40.441
1549.0600, -40.448
1549.0800, -40.452
1549.1000, -40.454
1549.1200, -40.452
1549.1400, -40.450
1549.1600, -40.455
1549.1800, -40.459
1549.2000, -40.467
1549.2200, -40.473
1549.2400, -40.478
1549.2600, -40.480
1549.2800, -40.479
1549.3000, -40.476
1549.3200, -40.475
1549.3400, -40.469
1549.3600, -40.468
1549.3800, -40.468
1549.4000, -40.466
1549.4200, -40.475
1549.4400, -40.477
1549.4600, -40.489
1549.4800, -40.498
1549.5000, -40.501
1549.5200, -40.503
1549.5400, -40.507
1549.5600, -40.511
1549.5800, -40.510
1549.6000, -40.507
1549.6200, -40.508
1549.6400, -40.509
1549.6600, -40.511
1549.6800, -40.514
1549.7000, -40.523
1549.7200, -40.529
1549.7400, -40.526
1549.7600, -40.527
1549.7800, -40.529
1549.8000, -40.537
1549.8200, -40.542
1549.8400, -40.545
1549.8600, -40.551
1549.8800, -40.554
1549.9000, -40.546
1549.9200, -40.547
1549.9400, -40.547
1549.9600, -40.544
1549.9800, -40.552
1550.0000, -40.559
1550.0200, -40.558
1550.0400, -40.557
1550.0600, -40.557
1550.0800, -40.558
1550.1000, -40.563
1550.1200, -40.567
1550.1400, -40.569
1550.1600, -40.565
1550.1800, -40.564
1550.2000, -40.563
1550.2200, -40.567
1550.2400, -40.564
1550.2600, -40.566
1550.2800, -40.573
1550.3000, -40.576
1550.3200, -40.582
1550.3400, -40.579
1550.3600, -40.588
1550.3800, -40.597
1550.4000, -40.599
1550.4200, -40.604
1550.4400, -40.604
1550.4600, -40.606
1550.4800, -40.605
1550.5000, -40.605
1550.5200, -40.608
1550.5400, -40.611
1550.5600, -40.611
1550.5800, -40.605
1550.6000, -40.619
1550.6200, -40.626
1550.6400, -40.631
1550.6600, -40.632
1550.6800, -40.638
1550.7000, -40.642
1550.7200, -40.647
1550.7400, -40.652
1550.7600, -40.655
1550.7800, -40.662
1550.8000, -40.661
1550.8200, -40.663
1550.8400, -40.666
1550.8600, -40.674
1550.8800, -40.682
1550.9000, -40.687
1550.9200, -40.683
1550.9400, -40.687
1550.9600, -40.686
1550.9800, -40.691
1551.0000, -40.697
1551.0200, -40.699
1551.0400, -40.701
1551.0600, -40.706
1551.0800, -40.708
1551.1000, -40.706
1551.1200, -40.711
1551.1400, -40.711
1551.1600, -40.714
1551.1800, -40.718
1551.2000, -40.717
1551.2200, -40.722
1551.2400, -40.726
1551.2600, -40.736
1551.2800, -40.746
1551.3000, -40.744
1551.3200, -40.745
1551.3400, -40.749
1551.3600, -40.750
1551.3800, -40.748
1551.4000, -40.745
1551.4200, -40.746
1551.4400, -40.748
1551.4600, -40.745
1551.4800, -40.746
1551.5000, -40.753
1551.5200, -40.763
1551.5400, -40.763
1551.5600, -40.764
1551.5800, -40.768
1551.6000, -40.771
1551.6200, -40.775
1551.6400, -40.774
1551.6600, -40.782
1551.6800, -40.791
1551.7000, -40.785
1551.7200, -40.793
1551.7400, -40.795
1551.7600, -40.797
1551.7800, -40.805
1551.8000, -40.813
1551.8200, -40.813
1551.8400, -40.813
1551.8600, -40.815
1551.8800, -40.815
1551.9000, -40.819
1551.9200, -40.824
1551.9400, -40.824
1551.9600, -40.826
1551.9800, -40.826
1552.0000, -40.827
1552.0200, -40.832
1552.0400, -40.830
1552.0600, -40.835
1552.0800, -40.839
1552.1000, -40.840
1552.1200, -40.851
1552.1400, -40.851
1552.1600, -40.862
1552.1800, -40.869
1552.2000, -40.872
1552.2200, -40.870
1552.2400, -40.873
1552.2600, -40.873
1552.2800, -40.873
1552.3000, -40.874
1552.3200, -40.875
1552.3400, -40.881
1552.3600, -40.876
1552.3800, -40.879
1552.4000, -40.891
1552.4200, -40.893
1552.4400, -40.896
1552.4600, -40.893
1552.4800, -40.898
1552.5000, -40.903
1552.5200, -40.906
1552.5400, -40.906
1552.5600, -40.910
1552.5800, -40.912
1552.6000, -40.912
1552.6200, -40.916
1552.6400, -40.924
1552.6600, -40.933
1552.6800, -40.941
1552.7000, -40.944
1552.7200, -40.945
1552.7400, -40.948
1552.7600, -40.950
1552.7800, -40.953
1552.8000, -40.957
1552.8200, -40.964
1552.8400, -40.964
1552.8600, -40.968
1552.8800, -40.968
1552.9000, -40.971
1552.9200, -40.971
1552.9400, -40.969
1552.9600, -40.972
1552.9800, -40.975
1553.0000, -40.977
1553.0200, -40.979
1553.0400, -40.982
1553.0600, -40.986
1553.0800, -40.991
1553.1000, -40.991
1553.1200, -40.992
1553.1400, -40.995
1553.1600, -40.999
1553.1800, -40.999
1553.2000, -41.004
1553.2200, -41.003
1553.2400, -41.012
1553.2600, -41.012
1553.2800, -41.021
1553.3000, -41.030
1553.3200, -41.032
1553.3400, -41.034
1553.3600, -41.034
1553.3800, -41.035
1553.4000, -41.035
1553.4200, -41.035
1553.4400, -41.039
1553.4600, -41.040
1553.4800, -41.041
1553.5000, -41.036
1553.5200, -41.037
1553.5400, -41.038
1553.5600, -41.046
1553.5800, -41.052
1553.6000, -41.053
1553.6200, -41.056
1553.6400, -41.060
1553.6600, -41.065
1553.6800, -41.067
1553.7000, -41.071
1553.7200, -41.072
1553.7400, -41.073
1553.7600, -41.075
1553.7800, -41.076
1553.8000, -41.078
1553.8200, -41.077
1553.8400, -41.078
1553.8600, -41.078
1553.8800, -41.079
1553.9000, -41.084
1553.9200, -41.083
1553.9400, -41.086
1553.9600, -41.090
1553.9800, -41.096
1554.0000, -41.099
1554.0200, -41.101
1554.0400, -41.107
1554.0600, -41.108
1554.0800, -41.109
1554.1000, -41.114
1554.1200, -41.120
1554.1400, -41.127
1554.1600, -41.121
1554.1800, -41.132
1554.2000, -41.136
1554.2200, -41.138
1554.2400, -41.140
1554.2600, -41.140
1554.2800, -41.143
1554.3000, -41.144
1554.3200, -41.145
1554.3400, -41.145
1554.3600, -41.146
1554.3800, -41.140
1554.4000, -41.140
1554.4200, -41.140
1554.4400, -41.144
1554.4600, -41.148
1554.4800, -41.150
1554.5000, -41.149
1554.5200, -41.149
1554.5400, -41.150
1554.5600, -41.155
1554.5800, -41.160
1554.6000, -41.164
1554.6200, -41.168
1554.6400, -41.170
1554.6600, -41.174
1554.6800, -41.175
1554.7000, -41.180
1554.7200, -41.182
1554.7400, -41.184
1554.7600, -41.183
1554.7800, -41.183
1554.8000, -41.188
1554.8200, -41.187
1554.8400, -41.193
1554.8600, -41.199
1554.8800, -41.202
1554.9000, -41.204
1554.9200, -41.206
1554.9400, -41.207
1554.9600, -41.207
1554.9800, -41.206
1555.0000, -41.206
1555.0200, -41.210
1555.0400, -41.208
1555.0600, -41.213
1555.0800, -41.220
1555.1000, -41.221
1555.1200, -41.222
1555.1400, -41.217
1555.1600, -41.223
1555.1800, -41.229
1555.2000, -41.233
1555.2200, -41.235
1555.2400, -41.234
1555.2600, -41.239
1555.2800, -41.241
1555.3000, -41.244
1555.3200, -41.247
1555.3400, -41.248
1555.3600, -41.251
1555.3800, -41.255
1555.4000, -41.250
1555.4200, -41.252
1555.4400, -41.252
1555.4600, -41.259
1555.4800, -41.262
1555.5000, -41.265
1555.5200, -41.270
1555.5400, -41.272
1555.5600, -41.275
1555.5800, -41.277
1555.6000, -41.279
1555.6200, -41.280
1555.6400, -41.279
1555.6600, -41.287
1555.6800, -41.286
1555.7000, -41.290
1555.7200, -41.290
1555.7400, -41.291
1555.7600, -41.297
1555.7800, -41.298
1555.8000, -41.298
1555.8200, -41.300
1555.8400, -41.303
1555.8600, -41.301
1555.8800, -41.304
1555.9000, -41.302
1555.9200, -41.306
1555.9400, -41.307
1555.9600, -41.312
1555.9800, -41.322
1556.0000, -41.328
1556.0200, -41.330
1556.0400, -41.333
1556.0600, -41.339
1556.0800, -41.345
1556.1000, -41.347
1556.1200, -41.352
1556.1400, -41.353
1556.1600, -41.356
1556.1800, -41.354
1556.2000, -41.356
1556.2200, -41.356
1556.2400, -41.364
1556.2600, -41.367
1556.2800, -41.366
1556.3000, -41.363
1556.3200, -41.365
1556.3400, -41.369
1556.3600, -41.367
1556.3800, -41.375
1556.4000, -41.381
1556.4200, -41.386
1556.4400, -41.392
1556.4600, -41.391
1556.4800, -41.395
1556.5000, -41.395
1556.5200, -41.399
1556.5400, -41.395
1556.5600, -41.397
1556.5800, -41.401
1556.6000, -41.401
1556.6200, -41.406
1556.6400, -41.416
1556.6600, -41.418
1556.6800, -41.424
1556.7000, -41.427
1556.7200, -41.430
1556.7400, -41.432
1556.7600, -41.433
1556.7800, -41.437
1556.8000, -41.439
1556.8200, -41.446
1556.8400, -41.446
1556.8600, -41.454
1556.8800, -41.462
1556.9000, -41.463
1556.9200, -41.467
1556.9400, -41.470
1556.9600, -41.475
1556.9800, -41.476
1557.0000, -41.478
1557.0200, -41.482
1557.0400, -41.485
1557.0600, -41.479
1557.0800, -41.479
1557.1000, -41.479
1557.1200, -41.484
1557.1400, -41.492
1557.1600, -41.496
1557.1800, -41.497
1557.2000, -41.504
1557.2200, -41.509
1557.2400, -41.512
1557.2600, -41.519
1557.2800, -41.525
1557.3000, -41.530
1557.3200, -41.535
1557.3400, -41.539
1557.3600, -41.546
1557.3800, -41.548
1557.4000, -41.556
1557.4200, -41.559
1557.4400, -41.566
1557.4600, -41.572
1557.4800, -41.577
1557.5000, -41.581
1557.5200, -41.590
1557.5400, -41.598
1557.5600, -41.599
1557.5800, -41.598
1557.6000, -41.601
1557.6200, -41.606
1557.6400, -41.607
1557.6600, -41.609
1557.6800, -41.616
1557.7000, -41.625
1557.7200, -41.626
1557.7400, -41.630
1557.7600, -41.643
1557.7800, -41.646
1557.8000, -41.648
1557.8200, -41.649
1557.8400, -41.653
1557.8600, -41.654
1557.8800, -41.656
1557.9000, -41.658
1557.9200, -41.659
1557.9400, -41.663
1557.9600, -41.668
1557.9800, -41.671
1558.0000, -41.677
1558.0200, -41.684
1558.0400, -41.693
1558.0600, -41.702
1558.0800, -41.704
1558.1000, -41.712
1558.1200, -41.719
1558.1400, -41.728
1558.1600, -41.736
1558.1800, -41.738
1558.2000, -41.743
1558.2200, -41.747
1558.2400, -41.749
1558.2600, -41.756
1558.2800, -41.759
1558.3000, -41.762
1558.3200, -41.767
1558.3400, -41.771
1558.3600, -41.780
1558.3800, -41.783
1558.4000, -41.787
1558.4200, -41.798
1558.4400, -41.803
1558.4600, -41.809
1558.4800, -41.812
1558.5000, -41.819
1558.5200, -41.821
1558.5400, -41.824
1558.5600, -41.834
1558.5800, -41.836
1558.6000, -41.845
1558.6200, -41.849
1558.6400, -41.865
1558.6600, -41.873
1558.6800, -41.877
1558.7000, -41.884
1558.7200, -41.890
1558.7400, -41.897
1558.7600, -41.905
1558.7800, -41.911
1558.8000, -41.917
1558.8200, -41.922
1558.8400, -41.927
1558.8600, -41.934
1558.8800, -41.939
1558.9000, -41.945
1558.9200, -41.961
1558.9400, -41.969
1558.9600, -41.973
1558.9800, -41.982
1559.0000, -41.990
1559.0200, -42.001
1559.0400, -42.008
1559.0600, -42.019
1559.0800, -42.024
1559.1000, -42.033
1559.1200, -42.041
1559.1400, -42.048
1559.1600, -42.058
1559.1800, -42.063
1559.2000, -42.071
1559.2200, -42.079
1559.2400, -42.086
1559.2600, -42.092
1559.2800, -42.093
1559.3000, -42.107
1559.3200, -42.118
1559.3400, -42.126
1559.3600, -42.135
1559.3800, -42.141
1559.4000, -42.145
1559.4200, -42.152
1559.4400, -42.158
1559.4600, -42.166
1559.4800, -42.179
1559.5000, -42.184
1559.5200, -42.202
1559.5400, -42.216
1559.5600, -42.224
1559.5800, -42.232
1559.6000, -42.242
1559.6200, -42.250
1559.6400, -42.258
1559.6600, -42.264
1559.6800, -42.274
1559.7000, -42.282
1559.7200, -42.289
1559.7400, -42.297
1559.7600, -42.305
1559.7800, -42.316
1559.8000, -42.328
1559.8200, -42.338
1559.8400, -42.341
1559.8600, -42.347
1559.8800, -42.356
1559.9000, -42.366
1559.9200, -42.378
1559.9400, -42.387
1559.9600, -42.397
1559.9800, -42.407
1560.0000, -42.420
1560.0200, -42.429
1560.0400, -42.440
1560.0600, -42.445
1560.0800, -42.455
1560.1000, -42.465
1560.1200, -42.464
1560.1400, -42.478
1560.1600, -42.489
1560.1800, -42.496
1560.2000, -42.516
1560.2200, -42.528
1560.2400, -42.537
1560.2600, -42.549
1560.2800, -42.564
1560.3000, -42.573
1560.3200, -42.583
1560.3400, -42.589
1560.3600, -42.597
1560.3800, -42.605
1560.4000, -42.614
1560.4200, -42.630
1560.4400, -42.641
1560.4600, -42.650
1560.4800, -42.663
1560.5000, -42.678
1560.5200, -42.690
1560.5400, -42.703
1560.5600, -42.707
1560.5800, -42.727
1560.6000, -42.738
1560.6200, -42.746
1560.6400, -42.764
1560.6600, -42.777
1560.6800, -42.794
1560.7000, -42.808
1560.7200, -42.816
1560.7400, -42.824
1560.7600, -42.835
1560.7800, -42.849
1560.8000, -42.861
1560.8200, -42.872
1560.8400, -42.882
1560.8600, -42.894
1560.8800, -42.905
1560.9000, -42.919
1560.9200, -42.933
1560.9400, -42.942
1560.9600, -42.950
1560.9800, -42.961
1561.0000, -42.972
1561.0200, -42.983
1561.0400, -42.993
1561.0600, -43.007
1561.0800, -43.027
1561.1000, -43.041
1561.1200, -43.053
1561.1400, -43.065
1561.1600, -43.080
1561.1800, -43.088
1561.2000, -43.099
1561.2200, -43.109
1561.2400, -43.118
1561.2600, -43.135
1561.2800, -43.143
1561.3000, -43.167
1561.3200, -43.180
1561.3400, -43.194
1561.3600, -43.211
1561.3800, -43.226
1561.4000, -43.241
1561.4200, -43.254
1561.4400, -43.267
1561.4600, -43.287
1561.4800, -43.294
1561.5000, -43.307
1561.5200, -43.328
1561.5400, -43.340
1561.5600, -43.359
1561.5800, -43.372
1561.6000, -43.383
1561.6200, -43.392
1561.6400, -43.405
1561.6600, -43.425
1561.6800, -43.442
1561.7000, -43.458
1561.7200, -43.474
1561.7400, -43.492
1561.7600, -43.506
1561.7800, -43.517
1561.8000, -43.530
1561.8200, -43.541
1561.8400, -43.556
1561.8600, -43.569
1561.8800, -43.582
1561.9000, -43.592
1561.9200, -43.608
1561.9400, -43.620
1561.9600, -43.636
1561.9800, -43.652
1562.0000, -43.666
1562.0200, -43.683
1562.0400, -43.696
1562.0600, -43.712
1562.0800, -43.727
1562.1000, -43.739
1562.1200, -43.756
1562.1400, -43.775
1562.1600, -43.786
1562.1800, -43.814
1562.2000, -43.831
1562.2200, -43.846
1562.2400, -43.863
1562.2600, -43.879
1562.2800, -43.895
1562.3000, -43.913
1562.3200, -43.928
1562.3400, -43.947
1562.3600, -43.959
1562.3800, -43.971
1562.4000, -43.990
1562.4200, -44.006
1562.4400, -44.023
1562.4600, -44.041
1562.4800, -44.054
1562.5000, -44.067
1562.5200, -44.082
1562.5400, -44.103
1562.5600, -44.118
1562.5800, -44.135
1562.6000, -44.152
1562.6200, -44.172
1562.6400, -44.187
1562.6600, -44.199
1562.6800, -44.209
1562.7000, -44.228
1562.7200, -44.243
1562.7400, -44.258
1562.7600, -44.275
1562.7800, -44.291
1562.8000, -44.307
1562.8200, -44.322
1562.8400, -44.343
1562.8600, -44.357
1562.8800, -44.374
1562.9000, -44.391
1562.9200, -44.408
1562.9400, -44.426
1562.9600, -44.443
1562.9800, -44.458
1563.0000, -44.474
1563.0200, -44.496
1563.0400, -44.507
1563.0600, -44.526
1563.0800, -44.550
1563.1000, -44.570
1563.1200, -44.588
1563.1400, -44.605
1563.1600, -44.624
1563.1800, -44.641
1563.2000, -44.656
1563.2200, -44.674
1563.2400, -44.687
1563.2600, -44.700
1563.2800, -44.718
1563.3000, -44.738
1563.3200, -44.755
1563.3400, -44.776
1563.3600, -44.792
1563.3800, -44.807
1563.4000, -44.826
1563.4200, -44.849
1563.4400, -44.866
1563.4600, -44.883
1563.4800, -44.900
1563.5000, -44.920
1563.5200, -44.938
1563.5400, -44.955
1563.5600, -44.967
1563.5800, -44.985
1563.6000, -45.005
1563.6200, -45.022
1563.6400, -45.039
1563.6600, -45.055
1563.6800, -45.076
1563.7000, -45.095
1563.7200, -45.118
1563.7400, -45.133
1563.7600, -45.155
1563.7800, -45.172
1563.8000, -45.189
1563.8200, -45.208
1563.8400, -45.224
1563.8600, -45.243
1563.8800, -45.263
1563.9000, -45.286
1563.9200, -45.298
1563.9400, -45.321
1563.9600, -45.344
1563.9800, -45.362
1564.0000, -45.379
1564.0200, -45.398
1564.0400, -45.411
1564.0600, -45.430
1564.0800, -45.447
1564.1000, -45.467
1564.1200, -45.482
1564.1400, -45.495
1564.1600, -45.518
1564.1800, -45.539
1564.2000, -45.557
1564.2200, -45.578
1564.2400, -45.592
1564.2600, -45.611
1564.2800, -45.629
1564.3000, -45.651
1564.3200, -45.671
1564.3400, -45.690
1564.3600, -45.711
1564.3800, -45.730
1564.4000, -45.749
1564.4200, -45.765
1564.4400, -45.782
1564.4600, -45.807
1564.4800, -45.822
1564.5000, -45.842
1564.5200, -45.864
1564.5400, -45.883
1564.5600, -45.904
1564.5800, -45.918
1564.6000, -45.941
1564.6200, -45.957
1564.6400, -45.984
1564.6600, -46.002
1564.6800, -46.019
1564.7000, -46.036
1564.7200, -46.057
1564.7400, -46.073
1564.7600, -46.094
1564.7800, -46.115
1564.8000, -46.130
1564.8200, -46.157
1564.8400, -46.176
1564.8600, -46.194
1564.8800, -46.212
1564.9000, -46.231
1564.9200, -46.249
1564.9400, -46.269
1564.9600, -46.290
1564.9800, -46.310
1565.0000, -46.329
1565.0200, -46.346
1565.0400, -46.365
1565.0600, -46.387
1565.0800, -46.407
1565.1000, -46.430
1565.1200, -46.444
1565.1400, -46.461
1565.1600, -46.486
1565.1800, -46.507
1565.2000, -46.525
1565.2200, -46.548
1565.2400, -46.567
1565.2600, -46.592
1565.2800, -46.610
1565.3000, -46.626
1565.3200, -46.643
1565.3400, -46.667
1565.3600, -46.683
1565.3800, -46.704
1565.4000, -46.725
1565.4200, -46.744
1565.4400, -46.766
1565.4600, -46.781
1565.4800, -46.802
1565.5000, -46.826
1565.5200, -46.849
1565.5400, -46.869
1565.5600, -46.884
1565.5800, -46.906
1565.6000, -46.925
1565.6200, -46.944
1565.6400, -46.960
1565.6600, -46.984
1565.6800, -46.996
1565.7000, -47.022
1565.7200, -47.043
1565.7400, -47.064
1565.7600, -47.085
1565.7800, -47.105
1565.8000, -47.124
1565.8200, -47.143
1565.8400, -47.165
1565.8600, -47.183
1565.8800, -47.200
1565.9000, -47.220
1565.9200, -47.242
1565.9400, -47.258
1565.9600, -47.283
1565.9800, -47.302
1566.0000, -47.324
1566.0200, -47.342
1566.0400, -47.362
1566.0600, -47.384
1566.0800, -47.406
1566.1000, -47.425
1566.1200, -47.447
1566.1400, -47.464
1566.1600, -47.482
1566.1800, -47.504
1566.2000, -47.523
1566.2200, -47.543
1566.2400, -47.559
1566.2600, -47.580
1566.2800, -47.598
1566.3000, -47.621
1566.3200, -47.639
1566.3400, -47.660
1566.3600, -47.680
1566.3800, -47.701
1566.4000, -47.722
1566.4200, -47.746
1566.4400, -47.762
1566.4600, -47.781
1566.4800, -47.797
1566.5000, -47.821
1566.5200, -47.844
1566.5400, -47.859
1566.5600, -47.875
1566.5800, -47.900
1566.6000, -47.920
1566.6200, -47.942
1566.6400, -47.964
1566.6600, -47.983
1566.6800, -48.003
1566.7000, -48.020
1566.7200, -48.040
1566.7400, -48.063
1566.7600, -48.079
1566.7800, -48.099
1566.8000, -48.116
1566.8200, -48.139
1566.8400, -48.160
1566.8600, -48.182
1566.8800, -48.200
1566.9000, -48.210
1566.9200, -48.238
1566.9400, -48.258
1566.9600, -48.278
1566.9800, -48.297
1567.0000, -48.317
1567.0200, -48.338
1567.0400, -48.359
1567.0600, -48.378
1567.0800, -48.402
1567.1000, -48.417
1567.1200, -48.439
1567.1400, -48.457
1567.1600, -48.471
1567.1800, -48.497
1567.2000, -48.516
1567.2200, -48.535
1567.2400, -48.560
1567.2600, -48.583
1567.2800, -48.599
1567.3000, -48.619
1567.3200, -48.639
1567.3400, -48.654
1567.3600, -48.673
1567.3800, -48.696
1567.4000, -48.717
1567.4200, -48.734
1567.4400, -48.755
1567.4600, -48.776
1567.4800, -48.798
1567.5000, -48.817
1567.5200, -48.840
1567.5400, -48.858
1567.5600, -48.879
1567.5800, -48.897
1567.6000, -48.923
1567.6200, -48.939
1567.6400, -48.960
1567.6600, -48.975
1567.6800, -48.998
1567.7000, -49.018
1567.7200, -49.044
1567.7400, -49.064
1567.7600, -49.076
1567.7800, -49.094
1567.8000, -49.115
1567.8200, -49.139
1567.8400, -49.160
1567.8600, -49.179
1567.8800, -49.196
1567.9000, -49.226
1567.9200, -49.240
1567.9400, -49.257
1567.9600, -49.277
1567.9800, -49.298
1568.0000, -49.313
1568.0200, -49.329
1568.0400, -49.349
1568.0600, -49.367
1568.0800, -49.394
1568.1000, -49.409
1568.1200, -49.434
1568.1400, -49.455
1568.1600, -49.472
1568.1800, -49.489
1568.2000, -49.507
1568.2200, -49.528
1568.2400, -49.548
1568.2600, -49.561
1568.2800, -49.592
1568.3000, -49.611
1568.3200, -49.628
1568.3400, -49.645
1568.3600, -49.682
1568.3800, -49.696
1568.4000, -49.707
1568.4200, -49.734
1568.4400, -49.749
1568.4600, -49.767
1568.4800, -49.794
1568.5000, -49.807
1568.5200, -49.823
1568.5400, -49.842
1568.5600, -49.862
1568.5800, -49.887
1568.6000, -49.908
1568.6200, -49.926
1568.6400, -49.944
1568.6600, -49.964
1568.6800, -49.985
1568.7000, -50.007
1568.7200, -50.027
1568.7400, -50.041
1568.7600, -50.062
1568.7800, -50.082
1568.8000, -50.106
1568.8200, -50.122
1568.8400, -50.142
1568.8600, -50.159
1568.8800, -50.178
1568.9000, -50.199
1568.9200, -50.220
1568.9400, -50.234
1568.9600, -50.255
1568.9800, -50.270
1569.0000, -50.297
1569.0200, -50.316
1569.0400, -50.338
1569.0600, -50.357
1569.0800, -50.374
1569.1000, -50.391
1569.1200, -50.411
1569.1400, -50.429
1569.1600, -50.451
1569.1800, -50.472
1569.2000, -50.486
1569.2200, -50.513
1569.2400, -50.529
1569.2600, -50.551
1569.2800, -50.569
1569.3000, -50.587
1569.3200, -50.606
1569.3400, -50.626
1569.3600, -50.642
1569.3800, -50.663
1569.4000, -50.678
1569.4200, -50.702
1569.4400, -50.718
1569.4600, -50.735
1569.4800, -50.759
1569.5000, -50.776
1569.5200, -50.794
1569.5400, -50.810
1569.5600, -50.831
1569.5800, -50.851
1569.6000, -50.871
1569.6200, -50.889
1569.6400, -50.911
1569.6600, -50.931
1569.6800, -50.954
1569.7000, -50.969
1569.7200, -50.985
1569.7400, -51.005
1569.7600, -51.020
1569.7800, -51.038
1569.8000, -51.064
1569.8200, -51.080
1569.8400, -51.096
1569.8600, -51.112
1569.8800, -51.139
1569.9000, -51.150
1569.9200, -51.172
1569.9400, -51.192
1569.9600, -51.209
1569.9800, -51.224
1570.0000, -51.246
1570.0200, -51.261
1570.0400, -51.282
1570.0600, -51.300
1570.0800, -51.318
1570.1000, -51.344
1570.1200, -51.361
1570.1400, -51.379
1570.1600, -51.399
1570.1800, -51.418
1570.2000, -51.440
1570.2200, -51.455
1570.2400, -51.468
1570.2600, -51.486
1570.2800, -51.511
1570.3000, -51.524
1570.3200, -51.549
1570.3400, -51.568
1570.3600, -51.584
1570.3800, -51.604
1570.4000, -51.616
1570.4200, -51.640
1570.4400, -51.660
1570.4600, -51.675
1570.4800, -51.700
1570.5000, -51.716
1570.5200, -51.732
1570.5400, -51.751
1570.5600, -51.771
1570.5800, -51.790
1570.6000, -51.803
1570.6200, -51.824
1570.6400, -51.836
1570.6600, -51.858
1570.6800, -51.877
1570.7000, -51.897
1570.7200, -51.915
1570.7400, -51.931
1570.7600, -51.955
1570.7800, -51.976
1570.8000, -51.995
1570.8200, -52.006
1570.8400, -52.029
1570.8600, -52.047
1570.8800, -52.061
1570.9000, -52.080
1570.9200, -52.094
1570.9400, -52.115
1570.9600, -52.137
1570.9800, -52.153
1571.0000, -52.172
1571.0200, -52.191
1571.0400, -52.210
1571.0600, -52.227
1571.0800, -52.243
1571.1000, -52.261
1571.1200, -52.273
1571.1400, -52.292
1571.1600, -52.317
1571.1800, -52.325
1571.2000, -52.350
1571.2200, -52.371
1571.2400, -52.385
1571.2600, -52.398
1571.2800, -52.420
1571.3000, -52.442
1571.3200, -52.464
1571.3400, -52.480
1571.3600, -52.496
1571.3800, -52.517
1571.4000, -52.531
1571.4200, -52.550
1571.4400, -52.568
1571.4600, -52.589
1571.4800, -52.603
1571.5000, -52.624
1571.5200, -52.641
1571.5400, -52.659
1571.5600, -52.675
1571.5800, -52.688
1571.6000, -52.710
1571.6200, -52.737
1571.6400, -52.739
1571.6600, -52.768
1571.6800, -52.778
1571.7000, -52.790
1571.7200, -52.811
1571.7400, -52.830
1571.7600, -52.847
1571.7800, -52.864
1571.8000, -52.884
1571.8200, -52.899
1571.8400, -52.918
1571.8600, -52.941
1571.8800, -52.953
1571.9000, -52.976
1571.9200, -52.991
1571.9400, -53.011
1571.9600, -53.025
1571.9800, -53.045
1572.0000, -53.050
1572.0200, -53.079
1572.0400, -53.089
1572.0600, -53.113
1572.0800, -53.137
1572.1000, -53.143
1572.1200, -53.164
1572.1400, -53.178
1572.1600, -53.192
1572.1800, -53.209
1572.2000, -53.234
1572.2200, -53.254
1572.2400, -53.262
1572.2600, -53.291
1572.2800, -53.300
1572.3000, -53.318
1572.3200, -53.329
1572.3400, -53.345
1572.3600, -53.363
1572.3800, -53.384
1572.4000, -53.399
1572.4200, -53.414
1572.4400, -53.423
1572.4600, -53.448
1572.4800, -53.462
1572.5000, -53.483
1572.5200, -53.502
1572.5400, -53.516
1572.5600, -53.535
1572.5800, -53.552
1572.6000, -53.561
1572.6200, -53.578
1572.6400, -53.595
1572.6600, -53.608
1572.6800, -53.628
1572.7000, -53.642
1572.7200, -53.663
1572.7400, -53.675
1572.7600, -53.693
1572.7800, -53.710
1572.8000, -53.726
1572.8200, -53.743
1572.8400, -53.760
1572.8600, -53.769
1572.8800, -53.787
1572.9000, -53.810
1572.9200, -53.823
1572.9400, -53.846
1572.9600, -53.860
1572.9800, -53.874
1573.0000, -53.893
1573.0200, -53.903
1573.0400, -53.923
1573.0600, -53.942
1573.0800, -53.960
1573.1000, -53.973
1573.1200, -53.995
1573.1400, -54.005
1573.1600, -54.025
1573.1800, -54.041
1573.2000, -54.052
1573.2200, -54.066
1573.2400, -54.085
1573.2600, -54.103
1573.2800, -54.110
1573.3000, -54.130
1573.3200, -54.144
1573.3400, -54.168
1573.3600, -54.171
1573.3800, -54.191
1573.4000, -54.205
1573.4200, -54.233
1573.4400, -54.232
1573.4600, -54.247
1573.4800, -54.273
1573.5000, -54.273
1573.5200, -54.293
1573.5400, -54.318
1573.5600, -54.335
1573.5800, -54.352
1573.6000, -54.362
1573.6200, -54.384
1573.6400, -54.394
1573.6600, -54.411
1573.6800, -54.438
1573.7000, -54.441
1573.7200, -54.462
1573.7400, -54.463
1573.7600, -54.491
1573.7800, -54.506
1573.8000, -54.514
1573.8200, -54.535
1573.8400, -54.554
1573.8600, -54.556
1573.8800, -54.577
1573.9000, -54.584
1573.9200, -54.610
1573.9400, -54.626
1573.9600, -54.639
1573.9800, -54.655
1574.0000, -54.665
1574.0200, -54.677
1574.0400, -54.692
1574.0600, -54.714
1574.0800, -54.728
1574.1000, -54.749
1574.1200, -54.750
1574.1400, -54.775
1574.1600, -54.784
1574.1800, -54.792
1574.2000, -54.828
1574.2200, -54.831
1574.2400, -54.847
1574.2600, -54.852
1574.2800, -54.881
1574.3000, -54.888
1574.3200, -54.899
1574.3400, -54.921
1574.3600, -54.931
1574.3800, -54.935
1574.4000, -54.954
1574.4200, -54.974
1574.4400, -54.987
1574.4600, -55.003
1574.4800, -55.019
1574.5000, -55.045
1574.5200, -55.053
1574.5400, -55.064
1574.5600, -55.081
1574.5800, -55.094
1574.6000, -55.105
1574.6200, -55.121
1574.6400, -55.136
1574.6600, -55.148
1574.6800, -55.171
1574.7000, -55.179
1574.7200, -55.188
1574.7400, -55.204
1574.7600, -55.227
1574.7800, -55.233
1574.8000, -55.259
1574.8200, -55.262
1574.8400, -55.283
1574.8600, -55.302
1574.8800, -55.297
1574.9000, -55.327
1574.9200, -55.337
1574.9400, -55.350
1574.9600, -55.368
1574.9800, -55.381
1575.0000, -55.391
1575.0200, -55.401
1575.0400, -55.415
1575.0600, -55.434
1575.0800, -55.447
1575.1000, -55.463
1575.1200, -55.483
1575.1400, -55.497
1575.1600, -55.500
1575.1800, -55.520
1575.2000, -55.536
1575.2200, -55.542
1575.2400, -55.565
1575.2600, -55.562
1575.2800, -55.583
1575.3000, -55.605
1575.3200, -55.618
1575.3400, -55.624
1575.3600, -55.646
1575.3800, -55.650
1575.4000, -55.668
1575.4200, -55.681
1575.4400, -55.694
1575.4600, -55.712
1575.4800, -55.718
1575.5000, -55.732
1575.5200, -55.748
1575.5400, -55.768
1575.5600, -55.777
1575.5800, -55.776
1575.6000, -55.791
1575.6200, -55.808
1575.6400, -55.827
1575.6600, -55.842
1575.6800, -55.847
1575.7000, -55.869
1575.7200, -55.877
1575.7400, -55.888
1575.7600, -55.913
1575.7800, -55.925
1575.8000, -55.935
1575.8200, -55.936
1575.8400, -55.961
1575.8600, -55.972
1575.8800, -55.985
1575.9000, -55.998
1575.9200, -56.011
1575.9400, -56.025
1575.9600, -56.043
1575.9800, -56.047
1576.0000, -56.057
1576.0200, -56.080
1576.0400, -56.090
1576.0600, -56.093
1576.0800, -56.113
1576.1000, -56.124
1576.1200, -56.135
1576.1400, -56.151
1576.1600, -56.157
1576.1800, -56.183
1576.2000, -56.200
1576.2200, -56.201
1576.2400, -56.209
1576.2600, -56.231
1576.2800, -56.245
1576.3000, -56.257
1576.3200, -56.253
1576.3400, -56.277
1576.3600, -56.285
1576.3800, -56.297
1576.4000, -56.314
1576.4200, -56.310
1576.4400, -56.338
1576.4600, -56.349
1576.4800, -56.350
1576.5000, -56.369
1576.5200, -56.389
1576.5400, -56.399
1576.5600, -56.415
1576.5800, -56.416
1576.6000, -56.426
1576.6200, -56.444
1576.6400, -56.456
1576.6600, -56.462
1576.6800, -56.474
1576.7000, -56.484
1576.7200, -56.498
1576.7400, -56.516
1576.7600, -56.513
1576.7800, -56.528
1576.8000, -56.548
1576.8200, -56.562
1576.8400, -56.572
1576.8600, -56.580
1576.8800, -56.596
1576.9000, -56.598
1576.9200, -56.614
1576.9400, -56.625
1576.9600, -56.632
1576.9800, -56.642
1577.0000, -56.664
1577.0200, -56.685
1577.0400, -56.688
1577.0600, -56.719
1577.0800, -56.701
1577.1000, -56.709
1577.1200, -56.733
1577.1400, -56.740
1577.1600, -56.748
1577.1800, -56.762
1577.2000, -56.768
1577.2200, -56.781
1577.2400, -56.789
1577.2600, -56.819
1577.2800, -56.826
1577.3000, -56.827
1577.3200, -56.836
1577.3400, -56.877
1577.3600, -56.860
1577.3800, -56.880
1577.4000, -56.889
1577.4200, -56.891
1577.4400, -56.918
1577.4600, -56.921
1577.4800, -56.936
1577.5000, -56.939
1577.5200, -56.963
1577.5400, -56.967
1577.5600, -56.979
1577.5800, -56.992
1577.6000, -56.992
1577.6200, -57.015
1577.6400, -57.021
1577.6600, -57.030
1577.6800, -57.042
1577.7000, -57.064
1577.7200, -57.051
1577.7400, -57.085
1577.7600, -57.097
1577.7800, -57.083
1577.8000, -57.107
1577.8200, -57.127
1577.8400, -57.123
1577.8600, -57.135
1577.8800, -57.157
1577.9000, -57.139
1577.9200, -57.189
1577.9400, -57.182
1577.9600, -57.186
1577.9800, -57.215
1578.0000, -57.214
1578.0200, -57.220
1578.0400, -57.221
1578.0600, -57.254
1578.0800, -57.255
1578.1000, -57.263
1578.1200, -57.291
1578.1400, -57.278
1578.1600, -57.298
1578.1800, -57.307
1578.2000, -57.317
1578.2200, -57.345
1578.2400, -57.337
1578.2600, -57.352
1578.2800, -57.340
1578.3000, -57.387
1578.3200, -57.388
1578.3400, -57.385
1578.3600, -57.410
1578.3800, -57.411
1578.4000, -57.421
1578.4200, -57.447
1578.4400, -57.440
1578.4600, -57.449
1578.4800, -57.460
1578.5000, -57.467
1578.5200, -57.493
1578.5400, -57.487
1578.5600, -57.515
1578.5800, -57.504
1578.6000, -57.522
1578.6200, -57.536
1578.6400, -57.546
1578.6600, -57.550
1578.6800, -57.570
1578.7000, -57.554
1578.7200, -57.586
1578.7400, -57.593
1578.7600, -57.590
1578.7800, -57.625
1578.8000, -57.629
1578.8200, -57.623
1578.8400, -57.632
1578.8600, -57.651
1578.8800, -57.665
1578.9000, -57.667
1578.9200, -57.683
1578.9400, -57.705
1578.9600, -57.714
1578.9800, -57.714
1579.0000, -57.719
1579.0200, -57.742
1579.0400, -57.728
1579.0600, -57.751
1579.0800, -57.741
1579.1000, -57.769
1579.1200, -57.770
1579.1400, -57.792
1579.1600, -57.799
1579.1800, -57.813
1579.2000, -57.812
1579.2200, -57.835
1579.2400, -57.832
1579.2600, -57.838
1579.2800, -57.855
1579.3000, -57.863
1579.3200, -57.864
1579.3400, -57.870
1579.3600, -57.894
1579.3800, -57.906
1579.4000, -57.910
1579.4200, -57.914
1579.4400, -57.933
1579.4600, -57.946
1579.4800, -57.941
1579.5000, -57.947
1579.5200, -57.959
1579.5400, -57.972
1579.5600, -57.991
1579.5800, -57.991
1579.6000, -57.992
1579.6200, -58.004
1579.6400, -58.016
1579.6600, -58.037
1579.6800, -58.039
1579.7000, -58.054
1579.7200, -58.057
1579.7400, -58.071
1579.7600, -58.080
1579.7800, -58.073
1579.8000, -58.106
1579.8200, -58.088
1579.8400, -58.114
1579.8600, -58.120
1579.8800, -58.134
1579.9000, -58.127
1579.9200, -58.158
1579.9400, -58.146
1579.9600, -58.163
1579.9800, -58.173
1580.0000, -58.178
1580.0200, -58.194
1580.0400, -58.209
1580.0600, -58.213
1580.0800, -58.214
1580.1000, -58.198
1580.1200, -58.243
1580.1400, -58.243
1580.1600, -58.239
1580.1800, -58.260
1580.2000, -58.267
1580.2200, -58.286
1580.2400, -58.265
1580.2600, -58.295
1580.2800, -58.317
1580.3000, -58.302
1580.3200, -58.310
1580.3400, -58.332
1580.3600, -58.339
1580.3800, -58.344
1580.4000, -58.348
1580.4200, -58.350
1580.4400, -58.363
1580.4600, -58.371
1580.4800, -58.397
1580.5000, -58.374
1580.5200, -58.387
1580.5400, -58.400
1580.5600, -58.416
1580.5800, -58.427
1580.6000, -58.438
1580.6200, -58.433
1580.6400, -58.453
1580.6600, -58.464
1580.6800, -58.458
1580.7000, -58.464
1580.7200, -58.478
1580.7400, -58.490
1580.7600, -58.510
1580.7800, -58.512
1580.8000, -58.521
1580.8200, -58.511
1580.8400, -58.541
1580.8600, -58.543
1580.8800, -58.542
1580.9000, -58.555
1580.9200, -58.558
1580.9400, -58.582
1580.9600, -58.567
1580.9800, -58.587
1581.0000, -58.580
1581.0200, -58.615
1581.0400, -58.616
1581.0600, -58.619
1581.0800, -58.623
1581.1000, -58.639
1581.1200, -58.659
1581.1400, -58.647
1581.1600, -58.662
1581.1800, -58.657
1581.2000, -58.663
1581.2200, -58.699
1581.2400, -58.674
1581.2600, -58.704
1581.2800, -58.700
1581.3000, -58.697
1581.3200, -58.735
1581.3400, -58.728
1581.3600, -58.726
1581.3800, -58.745
1581.4000, -58.739
1581.4200, -58.754
1581.4400, -58.762
1581.4600, -58.759
1581.4800, -58.777
1581.5000, -58.781
1581.5200, -58.785
1581.5400, -58.796
1581.5600, -58.807
1581.5800, -58.805
1581.6000, -58.843
1581.6200, -58.814
1581.6400, -58.841
1581.6600, -58.840
1581.6800, -58.845
1581.7000, -58.855
1581.7200, -58.878
1581.7400, -58.873
1581.7600, -58.861
1581.7800, -58.880
1581.8000, -58.900
1581.8200, -58.914
1581.8400, -58.892
1581.8600, -58.901
1581.8800, -58.921
1581.9000, -58.932
1581.9200, -58.943
1581.9400, -58.935
1581.9600, -58.947
1581.9800, -58.963
1582.0000, -58.967
1582.0200, -58.971
1582.0400, -58.973
1582.0600, -58.996
1582.0800, -58.995
1582.1000, -59.012
1582.1200, -59.038
1582.1400, -59.009
1582.1600, -59.018
1582.1800, -59.035
1582.2000, -59.041
1582.2200, -59.055
1582.2400, -59.070
1582.2600, -59.055
1582.2800, -59.062
1582.3000, -59.079
1582.3200, -59.072
1582.3400, -59.104
1582.3600, -59.104
1582.3800, -59.090
1582.4000, -59.108
1582.4200, -59.119
1582.4400, -59.119
1582.4600, -59.141
1582.4800, -59.146
1582.5000, -59.137
1582.5200, -59.139
1582.5400, -59.155
1582.5600, -59.168
1582.5800, -59.178
1582.6000, -59.166
1582.6200, -59.188
1582.6400, -59.208
1582.6600, -59.221
1582.6800, -59.217
1582.7000, -59.183
1582.7200, -59.239
1582.7400, -59.223
1582.7600, -59.210
1582.7800, -59.264
1582.8000, -59.221
1582.8200, -59.256
1582.8400, -59.275
1582.8600, -59.277
1582.8800, -59.262
1582.9000, -59.287
1582.9200, -59.286
1582.9400, -59.301
1582.9600, -59.294
1582.9800, -59.316
1583.0000, -59.315
1583.0200, -59.317
1583.0400, -59.339
1583.0600, -59.352
1583.0800, -59.319
1583.1000, -59.351
1583.1200, -59.346
1583.1400, -59.350
1583.1600, -59.384
1583.1800, -59.366
1583.2000, -59.387
1583.2200, -59.404
1583.2400, -59.388
1583.2600, -59.397
1583.2800, -59.416
1583.3000, -59.400
1583.3200, -59.443
1583.3400, -59.422
1583.3600, -59.432
1583.3800, -59.445
1583.4000, -59.445
1583.4200, -59.443
1583.4400, -59.478
1583.4600, -59.457
1583.4800, -59.464
1583.5000, -59.487
1583.5200, -59.487
1583.5400, -59.505
1583.5600, -59.484
1583.5800, -59.507
1583.6000, -59.513
1583.6200, -59.512
1583.6400, -59.508
1583.6600, -59.534
1583.6800, -59.551
1583.7000, -59.560
1583.7200, -59.538
1583.7400, -59.554
1583.7600, -59.543
1583.7800, -59.578
1583.8000, -59.569
1583.8200, -59.589
1583.8400, -59.577
1583.8600, -59.588
1583.8800, -59.585
1583.9000, -59.601
1583.9200, -59.623
1583.9400, -59.619
1583.9600, -59.610
1583.9800, -59.643
1584.0000, -59.635
1584.0200, -59.663
1584.0400, -59.613
1584.0600, -59.658
1584.0800, -59.651
1584.1000, -59.677
1584.1200, -59.666
1584.1400, -59.666
1584.1600, -59.677
1584.1800, -59.695
1584.2000, -59.695
1584.2200, -59.695
1584.2400, -59.701
1584.2600, -59.716
1584.2800, -59.726
1584.3000, -59.743
1584.3200, -59.728
1584.3400, -59.752
1584.3600, -59.739
1584.3800, -59.725
1584.4000, -59.767
1584.4200, -59.764
1584.4400, -59.745
1584.4600, -59.780
1584.4800, -59.799
1584.5000, -59.778
1584.5200, -59.775
1584.5400, -59.793
1584.5600, -59.800
1584.5800, -59.827
1584.6000, -59.797
1584.6200, -59.820
1584.6400, -59.833
1584.6600, -59.819
1584.6800, -59.845
1584.7000, -59.856
1584.7200, -59.825
1584.7400, -59.847
1584.7600, -59.871
1584.7800, -59.868
1584.8000, -59.866
1584.8200, -59.872
1584.8400, -59.863
1584.8600, -59.881
1584.8800, -59.863
1584.9000, -59.915
1584.9200, -59.917
1584.9400, -59.905
1584.9600, -59.888
1584.9800, -59.898
1585.0000, -59.933
1585.0200, -59.922
1585.0400, -59.942
1585.0600, -59.962
1585.0800, -59.941
1585.1000, -59.958
1585.1200, -59.950
1585.1400, -59.959
1585.1600, -59.982
1585.1800, -59.946
1585.2000, -59.986
1585.2200, -59.966
1585.2400, -60.012
1585.2600, -59.971
1585.2800, -60.013
1585.3000, -60.003
1585.3200, -60.019
1585.3400, -60.019
1585.3600, -60.009
1585.3800, -60.033
1585.4000, -60.030
1585.4200, -60.056
1585.4400, -60.024
1585.4600, -60.047
1585.4800, -60.047
1585.5000, -60.063
1585.5200, -60.032
1585.5400, -60.101
1585.5600, -60.042
1585.5800, -60.088
1585.6000, -60.065
1585.6200, -60.080
1585.6400, -60.094
1585.6600, -60.103
1585.6800, -60.107
1585.7000, -60.127
1585.7200, -60.105
1585.7400, -60.126
1585.7600, -60.129
1585.7800, -60.122
1585.8000, -60.133
1585.8200, -60.132
1585.8400, -60.148
1585.8600, -60.137
1585.8800, -60.164
1585.9000, -60.138
1585.9200, -60.184
1585.9400, -60.171
1585.9600, -60.163
1585.9800, -60.190
1586.0000, -60.170
1586.0200, -60.193
1586.0400, -60.186
1586.0600, -60.203
1586.0800, -60.209
1586.1000, -60.207
1586.1200, -60.227
1586.1400, -60.212
1586.1600, -60.229
1586.1800, -60.250
1586.2000, -60.252
1586.2200, -60.202
1586.2400, -60.231
1586.2600, -60.266
1586.2800, -60.264
1586.3000, -60.269
1586.3200, -60.258
1586.3400, -60.253
1586.3600, -60.308
1586.3800, -60.297
1586.4000, -60.252
1586.4200, -60.277
1586.4400, -60.288
1586.4600, -60.305
1586.4800, -60.302
1586.5000, -60.303
1586.5200, -60.319
1586.5400, -60.349
1586.5600, -60.322
1586.5800, -60.365
1586.6000, -60.318
1586.6200, -60.337
1586.6400, -60.361
1586.6600, -60.367
1586.6800, -60.342
1586.7000, -60.367
1586.7200, -60.365
1586.7400, -60.390
1586.7600, -60.351
1586.7800, -60.386
1586.8000, -60.393
1586.8200, -60.417
1586.8400, -60.392
1586.8600, -60.409
1586.8800, -60.425
1586.9000, -60.427
1586.9200, -60.425
1586.9400, -60.410
1586.9600, -60.473
1586.9800, -60.442
1587.0000, -60.452
1587.0200, -60.445
1587.0400, -60.436
1587.0600, -60.430
1587.0800, -60.458
1587.1000, -60.475
1587.1200, -60.472
1587.1400, -60.467
1587.1600, -60.479
1587.1800, -60.486
1587.2000, -60.494
1587.2200, -60.495
1587.2400, -60.517
1587.2600, -60.511
1587.2800, -60.522
1587.3000, -60.518
1587.3200, -60.528
1587.3400, -60.515
1587.3600, -60.507
1587.3800, -60.538
1587.4000, -60.550
1587.4200, -60.560
1587.4400, -60.514
1587.4600, -60.574
1587.4800, -60.566
1587.5000, -60.572
1587.5200, -60.552
1587.5400, -60.547
1587.5600, -60.578
1587.5800, -60.593
1587.6000, -60.590
1587.6200, -60.589
1587.6400, -60.591
1587.6600, -60.623
1587.6800, -60.611
1587.7000, -60.630
1587.7200, -60.609
1587.7400, -60.631
1587.7600, -60.621
1587.7800, -60.651
1587.8000, -60.648
1587.8200, -60.645
1587.8400, -60.651
1587.8600, -60.661
1587.8800, -60.664
1587.9000, -60.684
1587.9200, -60.662
1587.9400, -60.675
1587.9600, -60.684
1587.9800, -60.680
1588.0000, -60.685
1588.0200, -60.685
1588.0400, -60.745
1588.0600, -60.676
1588.0800, -60.714
1588.1000, -60.726
1588.1200, -60.717
1588.1400, -60.709
1588.1600, -60.722
1588.1800, -60.750
1588.2000, -60.697
1588.2200, -60.732
1588.2400, -60.751
1588.2600, -60.737
1588.2800, -60.775
1588.3000, -60.767
1588.3200, -60.745
1588.3400, -60.785
1588.3600, -60.768
1588.3800, -60.779
1588.4000, -60.748
1588.4200, -60.768
1588.4400, -60.774
1588.4600, -60.820
1588.4800, -60.774
1588.5000, -60.790
1588.5200, -60.784
1588.5400, -60.811
1588.5600, -60.819
1588.5800, -60.821
1588.6000, -60.835
1588.6200, -60.842
1588.6400, -60.839
1588.6600, -60.840
1588.6800, -60.861
1588.7000, -60.854
1588.7200, -60.853
1588.7400, -60.867
1588.7600, -60.839
1588.7800, -60.869
1588.8000, -60.878
1588.8200, -60.897
1588.8400, -60.861
1588.8600, -60.866
1588.8800, -60.879
1588.9000, -60.886
1588.9200, -60.912
1588.9400, -60.899
1588.9600, -60.888
1588.9800, -60.929
1589.0000, -60.912
1589.0200, -60.922
1589.0400, -60.960
1589.0600, -60.887
1589.0800, -60.928
1589.1000, -60.928
1589.1200, -60.930
1589.1400, -60.970
1589.1600, -60.953
1589.1800, -60.918
1589.2000, -60.966
1589.2200, -60.950
1589.2400, -60.970
1589.2600, -60.961
1589.2800, -60.980
1589.3000, -60.961
1589.3200, -61.007
1589.3400, -60.972
1589.3600, -60.987
1589.3800, -60.993
1589.4000, -60.981
1589.4200, -61.015
1589.4400, -61.007
1589.4600, -61.052
1589.4800, -61.034
1589.5000, -61.032
1589.5200, -61.001
1589.5400, -61.035
1589.5600, -61.058
1589.5800, -61.030
1589.6000, -61.051
1589.6200, -61.039
1589.6400, -61.067
1589.6600, -61.014
1589.6800, -61.056
1589.7000, -61.106
1589.7200, -61.033
1589.7400, -61.057
1589.7600, -61.087
1589.7800, -61.090
1589.8000, -61.090
1589.8200, -61.084
1589.8400, -61.090
1589.8600, -61.097
1589.8800, -61.108
1589.9000, -61.120
1589.9200, -61.122
1589.9400, -61.105
1589.9600, -61.117
1589.9800, -61.107
1590.0000, -61.137
1590.0200, -61.150
1590.0400, -61.148
1590.0600, -61.134
1590.0800, -61.165
1590.1000, -61.129
1590.1200, -61.162
1590.1400, -61.165
1590.1600, -61.172
1590.1800, -61.192
1590.2000, -61.163
1590.2200, -61.176
1590.2400, -61.206
1590.2600, -61.185
1590.2800, -61.159
1590.3000, -61.207
1590.3200, -61.204
1590.3400, -61.174
1590.3600, -61.178
1590.3800, -61.203
1590.4000, -61.208
1590.4200, -61.225
1590.4400, -61.240
1590.4600, -61.216
1590.4800, -61.221
1590.5000, -61.243
1590.5200, -61.239
1590.5400, -61.263
1590.5600, -61.245
1590.5800, -61.292
1590.6000, -61.275
1590.6200, -61.265
1590.6400, -61.246
1590.6600, -61.293
1590.6800, -61.283
1590.7000, -61.264
1590.7200, -61.325
1590.7400, -61.294
1590.7600, -61.305
1590.7800, -61.287
1590.8000, -61.278
1590.8200, -61.310
1590.8400, -61.308
1590.8600, -61.307
1590.8800, -61.314
1590.9000, -61.326
1590.9200, -61.339
1590.9400, -61.338
1590.9600, -61.363
1590.9800, -61.353
1591.0000, -61.382
1591.0200, -61.327
1591.0400, -61.357
1591.0600, -61.361
1591.0800, -61.367
1591.1000, -61.383
1591.1200, -61.362
1591.1400, -61.376
1591.1600, -61.393
1591.1800, -61.396
1591.2000, -61.392
1591.2200, -61.407
1591.2400, -61.439
1591.2600, -61.419
1591.2800, -61.427
1591.3000, -61.401
1591.3200, -61.442
1591.3400, -61.430
1591.3600, -61.443
1591.3800, -61.404
1591.4000, -61.448
1591.4200, -61.481
1591.4400, -61.462
1591.4600, -61.430
1591.4800, -61.484
1591.5000, -61.451
1591.5200, -61.467
1591.5400, -61.492
1591.5600, -61.469
1591.5800, -61.495
1591.6000, -61.489
1591.6200, -61.489
1591.6400, -61.484
1591.6600, -61.518
1591.6800, -61.503
1591.7000, -61.493
1591.7200, -61.545
1591.7400, -61.512
1591.7600, -61.580
1591.7800, -61.486
1591.8000, -61.577
1591.8200, -61.514
1591.8400, -61.539
1591.8600, -61.580
1591.8800, -61.536
1591.9000, -61.559
1591.9200, -61.592
1591.9400, -61.559
1591.9600, -61.539
1591.9800, -61.604
1592.0000, -61.548
1592.0200, -61.611
1592.0400, -61.575
1592.0600, -61.558
1592.0800, -61.563
1592.1000, -61.593
1592.1200, -61.613
1592.1400, -61.603
1592.1600, -61.621
1592.1800, -61.649
1592.2000, -61.651
1592.2200, -61.620
1592.2400, -61.620
1592.2600, -61.651
1592.2800, -61.628
1592.3000, -61.640
1592.3200, -61.614
1592.3400, -61.660
1592.3600, -61.658
1592.3800, -61.648
1592.4000, -61.662
1592.4200, -61.666
1592.4400, -61.674
1592.4600, -61.665
1592.4800, -61.710
1592.5000, -61.674
1592.5200, -61.663
1592.5400, -61.714
1592.5600, -61.708
1592.5800, -61.665
1592.6000, -61.723
1592.6200, -61.710
1592.6400, -61.696
1592.6600, -61.690
1592.6800, -61.743
1592.7000, -61.671
1592.7200, -61.767
1592.7400, -61.701
1592.7600, -61.751
1592.7800, -61.772
1592.8000, -61.710
1592.8200, -61.790
1592.8400, -61.724
1592.8600, -61.761
1592.8800, -61.771
1592.9000, -61.759
1592.9200, -61.790
1592.9400, -61.759
1592.9600, -61.845
1592.9800, -61.784
1593.0000, -61.790
1593.0200, -61.756
1593.0400, -61.835
1593.0600, -61.754
1593.0800, -61.832
1593.1000, -61.807
1593.1200, -61.795
1593.1400, -61.801
1593.1600, -61.797
1593.1800, -61.840
1593.2000, -61.828
1593.2200, -61.820
1593.2400, -61.837
1593.2600, -61.820
1593.2800, -61.842
1593.3000, -61.855
1593.3200, -61.823
1593.3400, -61.875
1593.3600, -61.846
1593.3800, -61.843
1593.4000, -61.848
1593.4200, -61.915
1593.4400, -61.895
1593.4600, -61.836
1593.4800, -61.897
1593.5000, -61.881
1593.5200, -61.926
1593.5400, -61.855
1593.5600, -61.921
1593.5800, -61.878
1593.6000, -61.935
1593.6200, -61.857
1593.6400, -61.901
1593.6600, -61.906
1593.6800, -61.926
1593.7000, -61.928
1593.7200, -61.910
1593.7400, -61.933
1593.7600, -61.966
1593.7800, -61.945
1593.8000, -61.968
1593.8200, -61.944
1593.8400, -61.966
1593.8600, -61.924
1593.8800, -61.934
1593.9000, -61.987
1593.9200, -61.951
1593.9400, -61.987
1593.9600, -61.941
1593.9800, -62.063
1594.0000, -61.974
1594.0200, -61.975
1594.0400, -61.972
1594.0600, -62.028
1594.0800, -61.990
1594.1000, -62.063
1594.1200, -62.004
1594.1400, -62.024
1594.1600, -61.980
1594.1800, -62.024
1594.2000, -62.047
1594.2200, -62.079
1594.2400, -62.040
1594.2600, -62.024
1594.2800, -62.073
1594.3000, -62.025
1594.3200, -62.020
1594.3400, -62.074
1594.3600, -62.067
1594.3800, -61.999
1594.4000, -62.091
1594.4200, -62.098
1594.4400, -62.081
1594.4600, -62.083
1594.4800, -62.072
1594.5000, -62.138
1594.5200, -62.082
1594.5400, -62.129
1594.5600, -62.077
1594.5800, -62.094
1594.6000, -62.108
1594.6200, -62.093
1594.6400, -62.145
1594.6600, -62.156
1594.6800, -62.085
1594.7000, -62.200
1594.7200, -62.083
1594.7400, -62.176
1594.7600, -62.175
1594.7800, -62.107
1594.8000, -62.174
1594.8200, -62.134
1594.8400, -62.143
1594.8600, -62.170
1594.8800, -62.165
1594.9000, -62.177
1594.9200, -62.187
1594.9400, -62.158
1594.9600, -62.254
1594.9800, -62.138
1595.0000, -62.251
1595.0200, -62.178
1595.0400, -62.240
1595.0600, -62.156
1595.0800, -62.232
1595.1000, -62.201
1595.1200, -62.216
1595.1400, -62.261
1595.1600, -62.187
1595.1800, -62.301
1595.2000, -62.202
1595.2200, -62.248
1595.2400, -62.245
1595.2600, -62.233
1595.2800, -62.239
1595.3000, -62.249
1595.3200, -62.256
1595.3400, -62.250
1595.3600, -62.246
1595.3800, -62.288
1595.4000, -62.248
1595.4200, -62.317
1595.4400, -62.264
1595.4600, -62.262
1595.4800, -62.346
1595.5000, -62.330
1595.5200, -62.317
1595.5400, -62.283
1595.5600, -62.341
1595.5800, -62.300
1595.6000, -62.325
1595.6200, -62.320
1595.6400, -62.381
1595.6600, -62.316
1595.6800, -62.330
1595.7000, -62.309
1595.7200, -62.356
1595.7400, -62.412
1595.7600, -62.341
1595.7800, -62.363
1595.8000, -62.345
1595.8200, -62.387
1595.8400, -62.383
1595.8600, -62.378
1595.8800, -62.427
1595.9000, -62.339
1595.9200, -62.362
1595.9400, -62.425
1595.9600, -62.349
1595.9800, -62.428
1596.0000, -62.443
1596.0200, -62.420
1596.0400, -62.416
1596.0600, -62.436
1596.0800, -62.406
1596.1000, -62.424
1596.1200, -62.416
1596.1400, -62.395
1596.1600, -62.403
1596.1800, -62.479
1596.2000, -62.390
1596.2200, -62.490
1596.2400, -62.446
1596.2600, -62.501
1596.2800, -62.471
1596.3000, -62.463
1596.3200, -62.483
1596.3400, -62.467
1596.3600, -62.483
1596.3800, -62.466
1596.4000, -62.488
1596.4200, -62.495
1596.4400, -62.508
1596.4600, -62.496
1596.4800, -62.461
1596.5000, -62.527
1596.5200, -62.482
1596.5400, -62.508
1596.5600, -62.541
1596.5800, -62.534
1596.6000, -62.523
1596.6200, -62.544
1596.6400, -62.570
1596.6600, -62.509
1596.6800, -62.557
1596.7000, -62.543
1596.7200, -62.564
1596.7400, -62.547
1596.7600, -62.587
1596.7800, -62.518
1596.8000, -62.622
1596.8200, -62.570
1596.8400, -62.586
1596.8600, -62.543
1596.8800, -62.644
1596.9000, -62.578
1596.9200, -62.594
1596.9400, -62.586
1596.9600, -62.576
1596.9800, -62.671
1597.0000, -62.620
1597.0200, -62.611
1597.0400, -62.595
1597.0600, -62.599
1597.0800, -62.627
1597.1000, -62.605
1597.1200, -62.611
1597.1400, -62.685
1597.1600, -62.587
1597.1800, -62.647
1597.2000, -62.655
1597.2200, -62.654
1597.2400, -62.650
1597.2600, -62.639
1597.2800, -62.695
1597.3000, -62.666
1597.3200, -62.673
1597.3400, -62.660
1597.3600, -62.657
1597.3800, -62.729
1597.4000, -62.645
1597.4200, -62.698
1597.4400, -62.722
1597.4600, -62.712
1597.4800, -62.707
1597.5000, -62.712
1597.5200, -62.714
1597.5400, -62.712
1597.5600, -62.679
1597.5800, -62.745
1597.6000, -62.702
1597.6200, -62.714
1597.6400, -62.695
1597.6600, -62.781
1597.6800, -62.738
1597.7000, -62.758
1597.7200, -62.729
1597.7400, -62.749
1597.7600, -62.747
1597.7800, -62.812
1597.8000, -62.768
1597.8200, -62.732
1597.8400, -62.783
1597.8600, -62.799
1597.8800, -62.787
1597.9000, -62.782
1597.9200, -62.765
1597.9400, -62.763
1597.9600, -62.800
1597.9800, -62.817
1598.0000, -62.843
1598.0200, -62.797
1598.0400, -62.807
1598.0600, -62.816
1598.0800, -62.810
1598.1000, -62.840
1598.1200, -62.787
1598.1400, -62.825
1598.1600, -62.917
1598.1800, -62.821
1598.2000, -62.798
1598.2200, -62.896
1598.2400, -62.882
1598.2600, -62.844
1598.2800, -62.852
1598.3000, -62.835
1598.3200, -62.845
1598.3400, -62.880
1598.3600, -62.945
1598.3800, -62.889
1598.4000, -62.903
1598.4200, -62.920
1598.4400, -62.932
1598.4600, -62.878
1598.4800, -62.901
1598.5000, -62.924
1598.5200, -62.927
1598.5400, -62.916
1598.5600, -62.927
1598.5800, -62.931
1598.6000, -62.924
1598.6200, -62.949
1598.6400, -62.897
1598.6600, -62.981
1598.6800, -62.927
1598.7000, -62.971
1598.7200, -62.932
1598.7400, -62.988
1598.7600, -62.940
1598.7800, -62.964
1598.8000, -62.981
1598.8200, -62.989
1598.8400, -63.003
1598.8600, -63.008
1598.8800, -62.970
1598.9000, -62.987
1598.9200, -63.032
1598.9400, -63.011
1598.9600, -63.004
1598.9800, -63.010
1599.0000, -62.990
1599.0200, -63.105
1599.0400, -63.005
1599.0600, -63.047
1599.0800, -62.995
1599.1000, -63.068
1599.1200, -63.037
1599.1400, -63.050
1599.1600, -63.026
1599.1800, -63.113
1599.2000, -63.026
1599.2200, -63.143
1599.2400, -63.067
1599.2600, -63.084
1599.2800, -63.060
1599.3000, -63.032
1599.3200, -63.065
1599.3400, -63.096
1599.3600, -63.106
1599.3800, -63.079
1599.4000, -63.094
1599.4200, -63.110
1599.4400, -63.110
1599.4600, -63.113
1599.4800, -63.124
1599.5000, -63.098
1599.5200, -63.116
1599.5400, -63.140
1599.5600, -63.088
1599.5800, -63.120
1599.6000, -63.212
1599.6200, -63.166
1599.6400, -63.123
1599.6600, -63.195
1599.6800, -63.113
1599.7000, -63.177
1599.7200, -63.166
1599.7400, -63.163
1599.7600, -63.196
1599.7800, -63.162
1599.8000, -63.192
1599.8200, -63.163
1599.8400, -63.233
1599.8600, -63.185
1599.8800, -63.185
1599.9000, -63.192
1599.9200, -63.203
1599.9400, -63.243
1599.9600, -63.198
1599.9800, -63.213
1600.0000, -63.279
