70BCSV 	
// AQ6370B OPTICAL SPECTRUM ANALYZER //                 
25
"CTRWL",1550.000000
"SPAN", 100.000000
"START WL",1500.000000
"STOP WL",1600.000000
"WLFREQ", 0
"REFL",-28.8
"LSCL", 5.0
"RESLN",0.100
"AVG",   1
"SMPLAUTO",      0
"SMPL",       5001
"SMPLINTVL",0.0200
"HIGH1"
"MEAS"
"LSUNT",0
"NMSKH","OFF"
"RESCOR",0
"RESPARM", 9050
"FREQPARM", 9050






"[TRACE DATA]"
1500.0000, -61.762
1500.0200, -61.762
1500.0400, -61.719
1500.0600, -61.730
1500.0800, -61.724
1500.1000, -61.723
1500.1200, -61.725
1500.1400, -61.719
1500.1600, -61.704
1500.1800, -61.681
1500.2000, -61.713
1500.2200, -61.752
1500.2400, -61.662
1500.2600, -61.657
1500.2800, -61.654
1500.3000, -61.685
1500.3200, -61.667
1500.3400, -61.638
1500.3600, -61.642
1500.3800, -61.638
1500.4000, -61.600
1500.4200, -61.668
1500.4400, -61.639
1500.4600, -61.609
1500.4800, -61.614
1500.5000, -61.607
1500.5200, -61.612
1500.5400, -61.579
1500.5600, -61.564
1500.5800, -61.579
1500.6000, -61.608
1500.6200, -61.555
1500.6400, -61.573
1500.6600, -61.569
1500.6800, -61.576
1500.7000, -61.549
1500.7200, -61.567
1500.7400, -61.566
1500.7600, -61.543
1500.7800, -61.508
1500.8000, -61.512
1500.8200, -61.525
1500.8400, -61.538
1500.8600, -61.501
1500.8800, -61.515
1500.9000, -61.477
1500.9200, -61.482
1500.9400, -61.453
1500.9600, -61.486
1500.9800, -61.500
1501.0000, -61.484
1501.0200, -61.434
1501.0400, -61.456
1501.0600, -61.484
1501.0800, -61.443
1501.1000, -61.423
1501.1200, -61.437
1501.1400, -61.423
1501.1600, -61.456
1501.1800, -61.411
1501.2000, -61.411
1501.2200, -61.384
1501.2400, -61.434
1501.2600, -61.366
1501.2800, -61.399
1501.3000, -61.388
1501.3200, -61.373
1501.3400, -61.378
1501.3600, -61.360
1501.3800, -61.358
1501.4000, -61.364
1501.4200, -61.345
1501.4400, -61.333
1501.4600, -61.350
1501.4800, -61.309
1501.5000, -61.317
1501.5200, -61.337
1501.5400, -61.303
1501.5600, -61.293
1501.5800, -61.301
1501.6000, -61.300
1501.6200, -61.298
1501.6400, -61.309
1501.6600, -61.265
1501.6800, -61.266
1501.7000, -61.261
1501.7200, -61.258
1501.7400, -61.292
1501.7600, -61.256
1501.7800, -61.225
1501.8000, -61.225
1501.8200, -61.227
1501.8400, -61.259
1501.8600, -61.234
1501.8800, -61.262
1501.9000, -61.231
1501.9200, -61.187
1501.9400, -61.201
1501.9600, -61.202
1501.9800, -61.208
1502.0000, -61.191
1502.0200, -61.171
1502.0400, -61.158
1502.0600, -61.186
1502.0800, -61.166
1502.1000, -61.165
1502.1200, -61.109
1502.1400, -61.158
1502.1600, -61.116
1502.1800, -61.127
1502.2000, -61.123
1502.2200, -61.098
1502.2400, -61.113
1502.2600, -61.093
1502.2800, -61.071
1502.3000, -61.092
1502.3200, -61.079
1502.3400, -61.045
1502.3600, -61.071
1502.3800, -61.065
1502.4000, -61.050
1502.4200, -61.035
1502.4400, -61.044
1502.4600, -61.036
1502.4800, -60.998
1502.5000, -61.030
1502.5200, -60.989
1502.5400, -61.019
1502.5600, -61.009
1502.5800, -61.000
1502.6000, -60.943
1502.6200, -60.958
1502.6400, -60.989
1502.6600, -60.955
1502.6800, -60.976
1502.7000, -60.961
1502.7200, -60.977
1502.7400, -60.914
1502.7600, -60.914
1502.7800, -60.935
1502.8000, -60.950
1502.8200, -60.938
1502.8400, -60.894
1502.8600, -60.900
1502.8800, -60.886
1502.9000, -60.903
1502.9200, -60.907
1502.9400, -60.873
1502.9600, -60.872
1502.9800, -60.883
1503.0000, -60.836
1503.0200, -60.865
1503.0400, -60.836
1503.0600, -60.825
1503.0800, -60.814
1503.1000, -60.813
1503.1200, -60.810
1503.1400, -60.832
1503.1600, -60.806
1503.1800, -60.784
1503.2000, -60.790
1503.2200, -60.772
1503.2400, -60.776
1503.2600, -60.777
1503.2800, -60.755
1503.3000, -60.741
1503.3200, -60.749
1503.3400, -60.739
1503.3600, -60.740
1503.3800, -60.746
1503.4000, -60.706
1503.4200, -60.707
1503.4400, -60.694
1503.4600, -60.718
1503.4800, -60.661
1503.5000, -60.698
1503.5200, -60.680
1503.5400, -60.662
1503.5600, -60.669
1503.5800, -60.655
1503.6000, -60.672
1503.6200, -60.631
1503.6400, -60.632
1503.6600, -60.642
1503.6800, -60.623
1503.7000, -60.633
1503.7200, -60.602
1503.7400, -60.642
1503.7600, -60.590
1503.7800, -60.564
1503.8000, -60.590
1503.8200, -60.593
1503.8400, -60.581
1503.8600, -60.595
1503.8800, -60.548
1503.9000, -60.572
1503.9200, -60.537
1503.9400, -60.560
1503.9600, -60.537
1503.9800, -60.534
1504.0000, -60.514
1504.0200, -60.519
1504.0400, -60.518
1504.0600, -60.517
1504.0800, -60.486
1504.1000, -60.475
1504.1200, -60.492
1504.1400, -60.443
1504.1600, -60.442
1504.1800, -60.441
1504.2000, -60.444
1504.2200, -60.424
1504.2400, -60.422
1504.2600, -60.431
1504.2800, -60.409
1504.3000, -60.401
1504.3200, -60.397
1504.3400, -60.394
1504.3600, -60.372
1504.3800, -60.378
1504.4000, -60.371
1504.4200, -60.358
1504.4400, -60.360
1504.4600, -60.347
1504.4800, -60.350
1504.5000, -60.335
1504.5200, -60.354
1504.5400, -60.314
1504.5600, -60.276
1504.5800, -60.302
1504.6000, -60.293
1504.6200, -60.283
1504.6400, -60.281
1504.6600, -60.264
1504.6800, -60.259
1504.7000, -60.268
1504.7200, -60.268
1504.7400, -60.253
1504.7600, -60.213
1504.7800, -60.258
1504.8000, -60.237
1504.8200, -60.237
1504.8400, -60.207
1504.8600, -60.196
1504.8800, -60.182
1504.9000, -60.179
1504.9200, -60.200
1504.9400, -60.159
1504.9600, -60.160
1504.9800, -60.161
1505.0000, -60.139
1505.0200, -60.141
1505.0400, -60.105
1505.0600, -60.140
1505.0800, -60.080
1505.1000, -60.120
1505.1200, -60.097
1505.1400, -60.063
1505.1600, -60.084
1505.1800, -60.106
1505.2000, -60.077
1505.2200, -60.051
1505.2400, -60.033
1505.2600, -60.044
1505.2800, -60.055
1505.3000, -60.008
1505.3200, -60.030
1505.3400, -59.987
1505.3600, -59.998
1505.3800, -60.001
1505.4000, -59.983
1505.4200, -59.971
1505.4400, -59.975
1505.4600, -59.976
1505.4800, -59.966
1505.5000, -59.949
1505.5200, -59.941
1505.5400, -59.930
1505.5600, -59.921
1505.5800, -59.937
1505.6000, -59.923
1505.6200, -59.899
1505.6400, -59.903
1505.6600, -59.887
1505.6800, -59.880
1505.7000, -59.879
1505.7200, -59.871
1505.7400, -59.865
1505.7600, -59.836
1505.7800, -59.830
1505.8000, -59.835
1505.8200, -59.847
1505.8400, -59.814
1505.8600, -59.820
1505.8800, -59.817
1505.9000, -59.818
1505.9200, -59.781
1505.9400, -59.783
1505.9600, -59.774
1505.9800, -59.768
1506.0000, -59.780
1506.0200, -59.756
1506.0400, -59.734
1506.0600, -59.713
1506.0800, -59.701
1506.1000, -59.738
1506.1200, -59.721
1506.1400, -59.693
1506.1600, -59.687
1506.1800, -59.692
1506.2000, -59.672
1506.2200, -59.672
1506.2400, -59.673
1506.2600, -59.645
1506.2800, -59.638
1506.3000, -59.620
1506.3200, -59.653
1506.3400, -59.610
1506.3600, -59.609
1506.3800, -59.598
1506.4000, -59.596
1506.4200, -59.600
1506.4400, -59.590
1506.4600, -59.577
1506.4800, -59.566
1506.5000, -59.574
1506.5200, -59.549
1506.5400, -59.558
1506.5600, -59.538
1506.5800, -59.538
1506.6000, -59.518
1506.6200, -59.491
1506.6400, -59.508
1506.6600, -59.471
1506.6800, -59.497
1506.7000, -59.475
1506.7200, -59.473
1506.7400, -59.469
1506.7600, -59.451
1506.7800, -59.448
1506.8000, -59.446
1506.8200, -59.443
1506.8400, -59.445
1506.8600, -59.425
1506.8800, -59.413
1506.9000, -59.410
1506.9200, -59.394
1506.9400, -59.375
1506.9600, -59.371
1506.9800, -59.360
1507.0000, -59.360
1507.0200, -59.349
1507.0400, -59.347
1507.0600, -59.316
1507.0800, -59.323
1507.1000, -59.315
1507.1200, -59.323
1507.1400, -59.295
1507.1600, -59.295
1507.1800, -59.287
1507.2000, -59.276
1507.2200, -59.263
1507.2400, -59.261
1507.2600, -59.263
1507.2800, -59.261
1507.3000, -59.237
1507.3200, -59.243
1507.3400, -59.224
1507.3600, -59.233
1507.3800, -59.191
1507.4000, -59.203
1507.4200, -59.189
1507.4400, -59.180
1507.4600, -59.178
1507.4800, -59.151
1507.5000, -59.150
1507.5200, -59.156
1507.5400, -59.128
1507.5600, -59.116
1507.5800, -59.116
1507.6000, -59.103
1507.6200, -59.108
1507.6400, -59.086
1507.6600, -59.073
1507.6800, -59.083
1507.7000, -59.076
1507.7200, -59.057
1507.7400, -59.067
1507.7600, -59.042
1507.7800, -59.036
1507.8000, -59.039
1507.8200, -59.020
1507.8400, -59.018
1507.8600, -58.995
1507.8800, -58.996
1507.9000, -58.975
1507.9200, -58.961
1507.9400, -58.967
1507.9600, -58.952
1507.9800, -58.946
1508.0000, -58.945
1508.0200, -58.942
1508.0400, -58.910
1508.0600, -58.919
1508.0800, -58.924
1508.1000, -58.908
1508.1200, -58.883
1508.1400, -58.885
1508.1600, -58.872
1508.1800, -58.863
1508.2000, -58.860
1508.2200, -58.842
1508.2400, -58.833
1508.2600, -58.843
1508.2800, -58.822
1508.3000, -58.833
1508.3200, -58.829
1508.3400, -58.801
1508.3600, -58.804
1508.3800, -58.775
1508.4000, -58.785
1508.4200, -58.782
1508.4400, -58.752
1508.4600, -58.759
1508.4800, -58.741
1508.5000, -58.742
1508.5200, -58.723
1508.5400, -58.719
1508.5600, -58.726
1508.5800, -58.692
1508.6000, -58.704
1508.6200, -58.683
1508.6400, -58.666
1508.6600, -58.658
1508.6800, -58.654
1508.7000, -58.660
1508.7200, -58.648
1508.7400, -58.642
1508.7600, -58.627
1508.7800, -58.615
1508.8000, -58.622
1508.8200, -58.623
1508.8400, -58.599
1508.8600, -58.586
1508.8800, -58.576
1508.9000, -58.573
1508.9200, -58.545
1508.9400, -58.535
1508.9600, -58.518
1508.9800, -58.523
1509.0000, -58.518
1509.0200, -58.510
1509.0400, -58.507
1509.0600, -58.499
1509.0800, -58.497
1509.1000, -58.486
1509.1200, -58.474
1509.1400, -58.469
1509.1600, -58.443
1509.1800, -58.412
1509.2000, -58.422
1509.2200, -58.424
1509.2400, -58.414
1509.2600, -58.415
1509.2800, -58.387
1509.3000, -58.384
1509.3200, -58.385
1509.3400, -58.368
1509.3600, -58.360
1509.3800, -58.351
1509.4000, -58.343
1509.4200, -58.340
1509.4400, -58.315
1509.4600, -58.302
1509.4800, -58.303
1509.5000, -58.290
1509.5200, -58.290
1509.5400, -58.282
1509.5600, -58.269
1509.5800, -58.261
1509.6000, -58.264
1509.6200, -58.244
1509.6400, -58.229
1509.6600, -58.219
1509.6800, -58.238
1509.7000, -58.207
1509.7200, -58.188
1509.7400, -58.202
1509.7600, -58.161
1509.7800, -58.171
1509.8000, -58.167
1509.8200, -58.145
1509.8400, -58.132
1509.8600, -58.124
1509.8800, -58.128
1509.9000, -58.109
1509.9200, -58.095
1509.9400, -58.090
1509.9600, -58.082
1509.9800, -58.087
1510.0000, -58.070
1510.0200, -58.056
1510.0400, -58.070
1510.0600, -58.027
1510.0800, -58.034
1510.1000, -58.007
1510.1200, -57.988
1510.1400, -58.002
1510.1600, -57.992
1510.1800, -57.965
1510.2000, -57.969
1510.2200, -57.962
1510.2400, -57.945
1510.2600, -57.947
1510.2800, -57.924
1510.3000, -57.919
1510.3200, -57.918
1510.3400, -57.885
1510.3600, -57.891
1510.3800, -57.875
1510.4000, -57.857
1510.4200, -57.863
1510.4400, -57.830
1510.4600, -57.820
1510.4800, -57.820
1510.5000, -57.805
1510.5200, -57.796
1510.5400, -57.798
1510.5600, -57.779
1510.5800, -57.750
1510.6000, -57.772
1510.6200, -57.742
1510.6400, -57.732
1510.6600, -57.731
1510.6800, -57.713
1510.7000, -57.724
1510.7200, -57.690
1510.7400, -57.673
1510.7600, -57.687
1510.7800, -57.654
1510.8000, -57.652
1510.8200, -57.643
1510.8400, -57.616
1510.8600, -57.610
1510.8800, -57.600
1510.9000, -57.588
1510.9200, -57.598
1510.9400, -57.577
1510.9600, -57.560
1510.9800, -57.570
1511.0000, -57.547
1511.0200, -57.524
1511.0400, -57.516
1511.0600, -57.509
1511.0800, -57.492
1511.1000, -57.480
1511.1200, -57.468
1511.1400, -57.454
1511.1600, -57.453
1511.1800, -57.449
1511.2000, -57.430
1511.2200, -57.426
1511.2400, -57.407
1511.2600, -57.411
1511.2800, -57.383
1511.3000, -57.376
1511.3200, -57.366
1511.3400, -57.354
1511.3600, -57.327
1511.3800, -57.332
1511.4000, -57.312
1511.4200, -57.304
1511.4400, -57.293
1511.4600, -57.289
1511.4800, -57.265
1511.5000, -57.257
1511.5200, -57.253
1511.5400, -57.229
1511.5600, -57.223
1511.5800, -57.217
1511.6000, -57.215
1511.6200, -57.201
1511.6400, -57.184
1511.6600, -57.166
1511.6800, -57.162
1511.7000, -57.157
1511.7200, -57.143
1511.7400, -57.126
1511.7600, -57.116
1511.7800, -57.096
1511.8000, -57.098
1511.8200, -57.070
1511.8400, -57.070
1511.8600, -57.061
1511.8800, -57.037
1511.9000, -57.026
1511.9200, -57.022
1511.9400, -57.013
1511.9600, -56.993
1511.9800, -56.986
1512.0000, -56.967
1512.0200, -56.954
1512.0400, -56.947
1512.0600, -56.936
1512.0800, -56.927
1512.1000, -56.935
1512.1200, -56.893
1512.1400, -56.895
1512.1600, -56.902
1512.1800, -56.880
1512.2000, -56.847
1512.2200, -56.864
1512.2400, -56.833
1512.2600, -56.841
1512.2800, -56.811
1512.3000, -56.816
1512.3200, -56.795
1512.3400, -56.784
1512.3600, -56.762
1512.3800, -56.758
1512.4000, -56.754
1512.4200, -56.744
1512.4400, -56.723
1512.4600, -56.714
1512.4800, -56.708
1512.5000, -56.700
1512.5200, -56.682
1512.5400, -56.671
1512.5600, -56.664
1512.5800, -56.645
1512.6000, -56.635
1512.6200, -56.631
1512.6400, -56.619
1512.6600, -56.605
1512.6800, -56.587
1512.7000, -56.574
1512.7200, -56.570
1512.7400, -56.546
1512.7600, -56.541
1512.7800, -56.536
1512.8000, -56.509
1512.8200, -56.508
1512.8400, -56.498
1512.8600, -56.488
1512.8800, -56.473
1512.9000, -56.473
1512.9200, -56.459
1512.9400, -56.438
1512.9600, -56.411
1512.9800, -56.403
1513.0000, -56.389
1513.0200, -56.376
1513.0400, -56.370
1513.0600, -56.371
1513.0800, -56.341
1513.1000, -56.338
1513.1200, -56.323
1513.1400, -56.318
1513.1600, -56.309
1513.1800, -56.296
1513.2000, -56.285
1513.2200, -56.264
1513.2400, -56.262
1513.2600, -56.243
1513.2800, -56.229
1513.3000, -56.226
1513.3200, -56.208
1513.3400, -56.205
1513.3600, -56.172
1513.3800, -56.169
1513.4000, -56.148
1513.4200, -56.146
1513.4400, -56.136
1513.4600, -56.122
1513.4800, -56.110
1513.5000, -56.103
1513.5200, -56.079
1513.5400, -56.080
1513.5600, -56.054
1513.5800, -56.048
1513.6000, -56.040
1513.6200, -56.035
1513.6400, -56.003
1513.6600, -55.994
1513.6800, -55.985
1513.7000, -55.964
1513.7200, -55.957
1513.7400, -55.947
1513.7600, -55.935
1513.7800, -55.930
1513.8000, -55.907
1513.8200, -55.907
1513.8400, -55.890
1513.8600, -55.864
1513.8800, -55.853
1513.9000, -55.852
1513.9200, -55.819
1513.9400, -55.813
1513.9600, -55.816
1513.9800, -55.793
1514.0000, -55.777
1514.0200, -55.773
1514.0400, -55.757
1514.0600, -55.741
1514.0800, -55.724
1514.1000, -55.715
1514.1200, -55.707
1514.1400, -55.700
1514.1600, -55.675
1514.1800, -55.669
1514.2000, -55.652
1514.2200, -55.630
1514.2400, -55.627
1514.2600, -55.621
1514.2800, -55.601
1514.3000, -55.580
1514.3200, -55.576
1514.3400, -55.567
1514.3600, -55.538
1514.3800, -55.531
1514.4000, -55.528
1514.4200, -55.508
1514.4400, -55.495
1514.4600, -55.492
1514.4800, -55.471
1514.5000, -55.460
1514.5200, -55.447
1514.5400, -55.437
1514.5600, -55.420
1514.5800, -55.401
1514.6000, -55.389
1514.6200, -55.373
1514.6400, -55.367
1514.6600, -55.338
1514.6800, -55.351
1514.7000, -55.313
1514.7200, -55.302
1514.7400, -55.300
1514.7600, -55.290
1514.7800, -55.267
1514.8000, -55.254
1514.8200, -55.236
1514.8400, -55.232
1514.8600, -55.223
1514.8800, -55.199
1514.9000, -55.185
1514.9200, -55.179
1514.9400, -55.161
1514.9600, -55.137
1514.9800, -55.132
1515.0000, -55.120
1515.0200, -55.094
1515.0400, -55.092
1515.0600, -55.073
1515.0800, -55.059
1515.1000, -55.038
1515.1200, -55.023
1515.1400, -55.019
1515.1600, -54.995
1515.1800, -54.984
1515.2000, -54.968
1515.2200, -54.955
1515.2400, -54.945
1515.2600, -54.926
1515.2800, -54.908
1515.3000, -54.896
1515.3200, -54.883
1515.3400, -54.865
1515.3600, -54.858
1515.3800, -54.848
1515.4000, -54.837
1515.4200, -54.821
1515.4400, -54.811
1515.4600, -54.781
1515.4800, -54.767
1515.5000, -54.760
1515.5200, -54.736
1515.5400, -54.721
1515.5600, -54.700
1515.5800, -54.698
1515.6000, -54.681
1515.6200, -54.673
1515.6400, -54.655
1515.6600, -54.636
1515.6800, -54.631
1515.7000, -54.614
1515.7200, -54.592
1515.7400, -54.583
1515.7600, -54.565
1515.7800, -54.548
1515.8000, -54.533
1515.8200, -54.512
1515.8400, -54.506
1515.8600, -54.500
1515.8800, -54.470
1515.9000, -54.450
1515.9200, -54.447
1515.9400, -54.429
1515.9600, -54.406
1515.9800, -54.393
1516.0000, -54.381
1516.0200, -54.361
1516.0400, -54.350
1516.0600, -54.339
1516.0800, -54.321
1516.1000, -54.303
1516.1200, -54.278
1516.1400, -54.264
1516.1600, -54.251
1516.1800, -54.234
1516.2000, -54.229
1516.2200, -54.203
1516.2400, -54.182
1516.2600, -54.174
1516.2800, -54.167
1516.3000, -54.146
1516.3200, -54.134
1516.3400, -54.120
1516.3600, -54.096
1516.3800, -54.085
1516.4000, -54.069
1516.4200, -54.045
1516.4400, -54.025
1516.4600, -54.005
1516.4800, -54.000
1516.5000, -53.970
1516.5200, -53.957
1516.5400, -53.934
1516.5600, -53.929
1516.5800, -53.895
1516.6000, -53.889
1516.6200, -53.884
1516.6400, -53.867
1516.6600, -53.845
1516.6800, -53.821
1516.7000, -53.811
1516.7200, -53.792
1516.7400, -53.773
1516.7600, -53.750
1516.7800, -53.733
1516.8000, -53.718
1516.8200, -53.700
1516.8400, -53.680
1516.8600, -53.673
1516.8800, -53.655
1516.9000, -53.632
1516.9200, -53.615
1516.9400, -53.600
1516.9600, -53.582
1516.9800, -53.568
1517.0000, -53.534
1517.0200, -53.527
1517.0400, -53.512
1517.0600, -53.485
1517.0800, -53.466
1517.1000, -53.444
1517.1200, -53.437
1517.1400, -53.409
1517.1600, -53.395
1517.1800, -53.377
1517.2000, -53.358
1517.2200, -53.345
1517.2400, -53.326
1517.2600, -53.306
1517.2800, -53.291
1517.3000, -53.266
1517.3200, -53.246
1517.3400, -53.233
1517.3600, -53.217
1517.3800, -53.204
1517.4000, -53.170
1517.4200, -53.159
1517.4400, -53.132
1517.4600, -53.111
1517.4800, -53.094
1517.5000, -53.073
1517.5200, -53.050
1517.5400, -53.044
1517.5600, -53.013
1517.5800, -53.005
1517.6000, -52.992
1517.6200, -52.969
1517.6400, -52.955
1517.6600, -52.930
1517.6800, -52.903
1517.7000, -52.874
1517.7200, -52.861
1517.7400, -52.834
1517.7600, -52.816
1517.7800, -52.801
1517.8000, -52.765
1517.8200, -52.767
1517.8400, -52.746
1517.8600, -52.725
1517.8800, -52.706
1517.9000, -52.686
1517.9200, -52.667
1517.9400, -52.647
1517.9600, -52.631
1517.9800, -52.596
1518.0000, -52.577
1518.0200, -52.554
1518.0400, -52.535
1518.0600, -52.518
1518.0800, -52.499
1518.1000, -52.478
1518.1200, -52.461
1518.1400, -52.427
1518.1600, -52.412
1518.1800, -52.395
1518.2000, -52.377
1518.2200, -52.354
1518.2400, -52.333
1518.2600, -52.315
1518.2800, -52.294
1518.3000, -52.267
1518.3200, -52.250
1518.3400, -52.227
1518.3600, -52.203
1518.3800, -52.178
1518.4000, -52.156
1518.4200, -52.130
1518.4400, -52.118
1518.4600, -52.075
1518.4800, -52.059
1518.5000, -52.044
1518.5200, -52.026
1518.5400, -52.000
1518.5600, -51.973
1518.5800, -51.953
1518.6000, -51.929
1518.6200, -51.905
1518.6400, -51.882
1518.6600, -51.852
1518.6800, -51.829
1518.7000, -51.796
1518.7200, -51.791
1518.7400, -51.752
1518.7600, -51.744
1518.7800, -51.721
1518.8000, -51.695
1518.8200, -51.672
1518.8400, -51.652
1518.8600, -51.629
1518.8800, -51.604
1518.9000, -51.585
1518.9200, -51.556
1518.9400, -51.528
1518.9600, -51.506
1518.9800, -51.480
1519.0000, -51.459
1519.0200, -51.432
1519.0400, -51.420
1519.0600, -51.393
1519.0800, -51.364
1519.1000, -51.331
1519.1200, -51.311
1519.1400, -51.284
1519.1600, -51.264
1519.1800, -51.239
1519.2000, -51.217
1519.2200, -51.183
1519.2400, -51.161
1519.2600, -51.140
1519.2800, -51.113
1519.3000, -51.076
1519.3200, -51.051
1519.3400, -51.023
1519.3600, -50.997
1519.3800, -50.979
1519.4000, -50.951
1519.4200, -50.909
1519.4400, -50.882
1519.4600, -50.862
1519.4800, -50.843
1519.5000, -50.814
1519.5200, -50.779
1519.5400, -50.768
1519.5600, -50.732
1519.5800, -50.696
1519.6000, -50.668
1519.6200, -50.650
1519.6400, -50.621
1519.6600, -50.587
1519.6800, -50.565
1519.7000, -50.543
1519.7200, -50.516
1519.7400, -50.485
1519.7600, -50.455
1519.7800, -50.428
1519.8000, -50.404
1519.8200, -50.374
1519.8400, -50.350
1519.8600, -50.304
1519.8800, -50.283
1519.9000, -50.249
1519.9200, -50.222
1519.9400, -50.199
1519.9600, -50.170
1519.9800, -50.140
1520.0000, -50.102
1520.0200, -50.080
1520.0400, -50.047
1520.0600, -50.020
1520.0800, -49.991
1520.1000, -49.963
1520.1200, -49.931
1520.1400, -49.900
1520.1600, -49.873
1520.1800, -49.842
1520.2000, -49.803
1520.2200, -49.778
1520.2400, -49.740
1520.2600, -49.712
1520.2800, -49.675
1520.3000, -49.640
1520.3200, -49.612
1520.3400, -49.574
1520.3600, -49.554
1520.3800, -49.512
1520.4000, -49.491
1520.4200, -49.464
1520.4400, -49.429
1520.4600, -49.394
1520.4800, -49.366
1520.5000, -49.332
1520.5200, -49.297
1520.5400, -49.259
1520.5600, -49.223
1520.5800, -49.192
1520.6000, -49.162
1520.6200, -49.123
1520.6400, -49.103
1520.6600, -49.068
1520.6800, -49.034
1520.7000, -49.001
1520.7200, -48.969
1520.7400, -48.932
1520.7600, -48.900
1520.7800, -48.867
1520.8000, -48.833
1520.8200, -48.789
1520.8400, -48.751
1520.8600, -48.720
1520.8800, -48.685
1520.9000, -48.653
1520.9200, -48.619
1520.9400, -48.574
1520.9600, -48.550
1520.9800, -48.512
1521.0000, -48.478
1521.0200, -48.445
1521.0400, -48.409
1521.0600, -48.379
1521.0800, -48.342
1521.1000, -48.306
1521.1200, -48.271
1521.1400, -48.231
1521.1600, -48.197
1521.1800, -48.154
1521.2000, -48.110
1521.2200, -48.078
1521.2400, -48.038
1521.2600, -47.997
1521.2800, -47.961
1521.3000, -47.939
1521.3200, -47.883
1521.3400, -47.862
1521.3600, -47.827
1521.3800, -47.781
1521.4000, -47.743
1521.4200, -47.706
1521.4400, -47.656
1521.4600, -47.627
1521.4800, -47.586
1521.5000, -47.542
1521.5200, -47.494
1521.5400, -47.478
1521.5600, -47.435
1521.5800, -47.410
1521.6000, -47.369
1521.6200, -47.329
1521.6400, -47.290
1521.6600, -47.256
1521.6800, -47.214
1521.7000, -47.171
1521.7200, -47.137
1521.7400, -47.090
1521.7600, -47.040
1521.7800, -47.006
1521.8000, -46.961
1521.8200, -46.931
1521.8400, -46.892
1521.8600, -46.855
1521.8800, -46.803
1521.9000, -46.772
1521.9200, -46.728
1521.9400, -46.688
1521.9600, -46.660
1521.9800, -46.620
1522.0000, -46.578
1522.0200, -46.538
1522.0400, -46.494
1522.0600, -46.458
1522.0800, -46.412
1522.1000, -46.374
1522.1200, -46.329
1522.1400, -46.283
1522.1600, -46.248
1522.1800, -46.210
1522.2000, -46.170
1522.2200, -46.141
1522.2400, -46.095
1522.2600, -46.035
1522.2800, -46.013
1522.3000, -45.973
1522.3200, -45.928
1522.3400, -45.885
1522.3600, -45.844
1522.3800, -45.786
1522.4000, -45.747
1522.4200, -45.700
1522.4400, -45.657
1522.4600, -45.644
1522.4800, -45.594
1522.5000, -45.550
1522.5200, -45.515
1522.5400, -45.468
1522.5600, -45.424
1522.5800, -45.380
1522.6000, -45.341
1522.6200, -45.300
1522.6400, -45.257
1522.6600, -45.217
1522.6800, -45.165
1522.7000, -45.116
1522.7200, -45.075
1522.7400, -45.033
1522.7600, -44.998
1522.7800, -44.959
1522.8000, -44.921
1522.8200, -44.869
1522.8400, -44.836
1522.8600, -44.791
1522.8800, -44.749
1522.9000, -44.708
1522.9200, -44.668
1522.9400, -44.633
1522.9600, -44.592
1522.9800, -44.547
1523.0000, -44.503
1523.0200, -44.457
1523.0400, -44.414
1523.0600, -44.363
1523.0800, -44.323
1523.1000, -44.285
1523.1200, -44.236
1523.1400, -44.201
1523.1600, -44.164
1523.1800, -44.113
1523.2000, -44.069
1523.2200, -44.037
1523.2400, -43.993
1523.2600, -43.951
1523.2800, -43.908
1523.3000, -43.860
1523.3200, -43.810
1523.3400, -43.770
1523.3600, -43.726
1523.3800, -43.685
1523.4000, -43.637
1523.4200, -43.599
1523.4400, -43.560
1523.4600, -43.523
1523.4800, -43.476
1523.5000, -43.434
1523.5200, -43.389
1523.5400, -43.347
1523.5600, -43.308
1523.5800, -43.265
1523.6000, -43.228
1523.6200, -43.184
1523.6400, -43.134
1523.6600, -43.090
1523.6800, -43.052
1523.7000, -43.009
1523.7200, -42.973
1523.7400, -42.933
1523.7600, -42.887
1523.7800, -42.850
1523.8000, -42.807
1523.8200, -42.763
1523.8400, -42.723
1523.8600, -42.684
1523.8800, -42.640
1523.9000, -42.600
1523.9200, -42.559
1523.9400, -42.517
1523.9600, -42.474
1523.9800, -42.432
1524.0000, -42.387
1524.0200, -42.349
1524.0400, -42.309
1524.0600, -42.265
1524.0800, -42.223
1524.1000, -42.181
1524.1200, -42.140
1524.1400, -42.099
1524.1600, -42.059
1524.1800, -42.016
1524.2000, -41.977
1524.2200, -41.935
1524.2400, -41.894
1524.2600, -41.850
1524.2800, -41.812
1524.3000, -41.769
1524.3200, -41.727
1524.3400, -41.684
1524.3600, -41.646
1524.3800, -41.609
1524.4000, -41.568
1524.4200, -41.528
1524.4400, -41.488
1524.4600, -41.448
1524.4800, -41.407
1524.5000, -41.364
1524.5200, -41.322
1524.5400, -41.286
1524.5600, -41.246
1524.5800, -41.204
1524.6000, -41.167
1524.6200, -41.127
1524.6400, -41.086
1524.6600, -41.042
1524.6800, -41.001
1524.7000, -40.961
1524.7200, -40.921
1524.7400, -40.884
1524.7600, -40.845
1524.7800, -40.807
1524.8000, -40.764
1524.8200, -40.721
1524.8400, -40.684
1524.8600, -40.643
1524.8800, -40.603
1524.9000, -40.561
1524.9200, -40.521
1524.9400, -40.477
1524.9600, -40.435
1524.9800, -40.396
1525.0000, -40.355
1525.0200, -40.317
1525.0400, -40.276
1525.0600, -40.233
1525.0800, -40.191
1525.1000, -40.148
1525.1200, -40.112
1525.1400, -40.071
1525.1600, -40.029
1525.1800, -39.991
1525.2000, -39.952
1525.2200, -39.914
1525.2400, -39.873
1525.2600, -39.834
1525.2800, -39.794
1525.3000, -39.756
1525.3200, -39.716
1525.3400, -39.676
1525.3600, -39.639
1525.3800, -39.602
1525.4000, -39.563
1525.4200, -39.526
1525.4400, -39.483
1525.4600, -39.441
1525.4800, -39.400
1525.5000, -39.361
1525.5200, -39.319
1525.5400, -39.279
1525.5600, -39.244
1525.5800, -39.202
1525.6000, -39.163
1525.6200, -39.124
1525.6400, -39.086
1525.6600, -39.049
1525.6800, -39.010
1525.7000, -38.972
1525.7200, -38.930
1525.7400, -38.891
1525.7600, -38.850
1525.7800, -38.808
1525.8000, -38.767
1525.8200, -38.724
1525.8400, -38.686
1525.8600, -38.647
1525.8800, -38.607
1525.9000, -38.567
1525.9200, -38.526
1525.9400, -38.487
1525.9600, -38.446
1525.9800, -38.416
1526.0000, -38.380
1526.0200, -38.347
1526.0400, -38.312
1526.0600, -38.270
1526.0800, -38.229
1526.1000, -38.193
1526.1200, -38.153
1526.1400, -38.112
1526.1600, -38.068
1526.1800, -38.030
1526.2000, -37.988
1526.2200, -37.949
1526.2400, -37.905
1526.2600, -37.865
1526.2800, -37.827
1526.3000, -37.791
1526.3200, -37.757
1526.3400, -37.724
1526.3600, -37.690
1526.3800, -37.654
1526.4000, -37.617
1526.4200, -37.577
1526.4400, -37.534
1526.4600, -37.496
1526.4800, -37.463
1526.5000, -37.428
1526.5200, -37.390
1526.5400, -37.357
1526.5600, -37.308
1526.5800, -37.270
1526.6000, -37.227
1526.6200, -37.193
1526.6400, -37.157
1526.6600, -37.121
1526.6800, -37.087
1526.7000, -37.048
1526.7200, -37.009
1526.7400, -36.969
1526.7600, -36.927
1526.7800, -36.888
1526.8000, -36.843
1526.8200, -36.809
1526.8400, -36.774
1526.8600, -36.729
1526.8800, -36.688
1526.9000, -36.652
1526.9200, -36.610
1526.9400, -36.570
1526.9600, -36.534
1526.9800, -36.493
1527.0000, -36.456
1527.0200, -36.416
1527.0400, -36.374
1527.0600, -36.327
1527.0800, -36.287
1527.1000, -36.236
1527.1200, -36.204
1527.1400, -36.172
1527.1600, -36.128
1527.1800, -36.101
1527.2000, -36.068
1527.2200, -36.024
1527.2400, -35.987
1527.2600, -35.950
1527.2800, -35.910
1527.3000, -35.876
1527.3200, -35.837
1527.3400, -35.798
1527.3600, -35.746
1527.3800, -35.715
1527.4000, -35.669
1527.4200, -35.631
1527.4400, -35.593
1527.4600, -35.557
1527.4800, -35.512
1527.5000, -35.467
1527.5200, -35.411
1527.5400, -35.369
1527.5600, -35.327
1527.5800, -35.287
1527.6000, -35.249
1527.6200, -35.207
1527.6400, -35.170
1527.6600, -35.127
1527.6800, -35.075
1527.7000, -35.038
1527.7200, -34.991
1527.7400, -34.942
1527.7600, -34.907
1527.7800, -34.853
1527.8000, -34.809
1527.8200, -34.770
1527.8400, -34.735
1527.8600, -34.673
1527.8800, -34.645
1527.9000, -34.596
1527.9200, -34.548
1527.9400, -34.510
1527.9600, -34.464
1527.9800, -34.417
1528.0000, -34.369
1528.0200, -34.317
1528.0400, -34.252
1528.0600, -34.233
1528.0800, -34.185
1528.1000, -34.150
1528.1200, -34.115
1528.1400, -34.061
1528.1600, -34.012
1528.1800, -33.968
1528.2000, -33.925
1528.2200, -33.881
1528.2400, -33.834
1528.2600, -33.792
1528.2800, -33.746
1528.3000, -33.688
1528.3200, -33.667
1528.3400, -33.627
1528.3600, -33.593
1528.3800, -33.553
1528.4000, -33.506
1528.4200, -33.462
1528.4400, -33.432
1528.4600, -33.391
1528.4800, -33.363
1528.5000, -33.324
1528.5200, -33.288
1528.5400, -33.251
1528.5600, -33.214
1528.5800, -33.177
1528.6000, -33.128
1528.6200, -33.099
1528.6400, -33.055
1528.6600, -33.004
1528.6800, -32.963
1528.7000, -32.897
1528.7200, -32.862
1528.7400, -32.824
1528.7600, -32.800
1528.7800, -32.730
1528.8000, -32.685
1528.8200, -32.651
1528.8400, -32.600
1528.8600, -32.555
1528.8800, -32.505
1528.9000, -32.459
1528.9200, -32.407
1528.9400, -32.346
1528.9600, -32.283
1528.9800, -32.232
1529.0000, -32.208
1529.0200, -32.136
1529.0400, -32.109
1529.0600, -32.058
1529.0800, -32.017
1529.1000, -31.961
1529.1200, -31.921
1529.1400, -31.879
1529.1600, -31.827
1529.1800, -31.794
1529.2000, -31.721
1529.2200, -31.642
1529.2400, -31.615
1529.2600, -31.558
1529.2800, -31.507
1529.3000, -31.487
1529.3200, -31.469
1529.3400, -31.396
1529.3600, -31.339
1529.3800, -31.242
1529.4000, -31.294
1529.4200, -31.230
1529.4400, -31.117
1529.4600, -31.108
1529.4800, -31.140
1529.5000, -31.024
1529.5200, -31.053
1529.5400, -30.965
1529.5600, -30.950
1529.5800, -30.860
1529.6000, -30.901
1529.6200, -30.849
1529.6400, -30.678
1529.6600, -30.630
1529.6800, -30.559
1529.7000, -30.578
1529.7200, -30.474
1529.7400, -30.488
1529.7600, -30.470
1529.7800, -30.460
1529.8000, -30.395
1529.8200, -30.338
1529.8400, -30.253
1529.8600, -30.149
1529.8800, -30.118
1529.9000, -30.026
1529.9200, -30.112
1529.9400, -29.995
1529.9600, -29.936
1529.9800, -29.979
1530.0000, -29.949
1530.0200, -29.932
1530.0400, -29.877
1530.0600, -29.901
1530.0800, -29.805
1530.1000, -29.855
1530.1200, -29.853
1530.1400, -29.700
1530.1600, -29.608
1530.1800, -29.638
1530.2000, -29.581
1530.2200, -29.608
1530.2400, -29.558
1530.2600, -29.522
1530.2800, -29.571
1530.3000, -29.455
1530.3200, -29.491
1530.3400, -29.631
1530.3600, -29.481
1530.3800, -29.412
1530.4000, -29.303
1530.4200, -29.194
1530.4400, -29.160
1530.4600, -29.119
1530.4800, -29.205
1530.5000, -28.924
1530.5200, -29.038
1530.5400, -29.044
1530.5600, -28.935
1530.5800, -28.841
1530.6000, -28.821
1530.6200, -28.962
1530.6400, -28.848
1530.6600, -28.682
1530.6800, -28.624
1530.7000, -28.604
1530.7200, -28.534
1530.7400, -28.470
1530.7600, -28.490
1530.7800, -28.607
1530.8000, -28.520
1530.8200, -28.461
1530.8400, -28.459
1530.8600, -28.407
1530.8800, -28.458
1530.9000, -28.515
1530.9200, -28.384
1530.9400, -28.323
1530.9600, -28.330
1530.9800, -28.501
1531.0000, -28.594
1531.0200, -28.473
1531.0400, -28.487
1531.0600, -28.410
1531.0800, -28.472
1531.1000, -28.563
1531.1200, -28.326
1531.1400, -28.301
1531.1600, -28.390
1531.1800, -28.474
1531.2000, -28.372
1531.2200, -28.371
1531.2400, -28.191
1531.2600, -28.199
1531.2800, -28.265
1531.3000, -28.047
1531.3200, -27.992
1531.3400, -27.953
1531.3600, -27.846
1531.3800, -27.602
1531.4000, -27.908
1531.4200, -27.879
1531.4400, -27.664
1531.4600, -27.787
1531.4800, -27.407
1531.5000, -27.496
1531.5200, -27.825
1531.5400, -27.943
1531.5600, -27.605
1531.5800, -26.984
1531.6000, -27.006
1531.6200, -27.347
1531.6400, -27.651
1531.6600, -27.392
1531.6800, -27.777
1531.7000, -27.002
1531.7200, -27.848
1531.7400, -27.343
1531.7600, -27.771
1531.7800, -27.004
1531.8000, -27.878
1531.8200, -27.657
1531.8400, -27.404
1531.8600, -25.689
1531.8800, -27.367
1531.9000, -27.147
1531.9200, -27.340
1531.9400, -27.297
1531.9600, -26.587
1531.9800, -26.234
1532.0000, -26.312
1532.0200, -26.108
1532.0400, -25.784
1532.0600, -27.090
1532.0800, -26.880
1532.1000, -26.198
1532.1200, -26.212
1532.1400, -26.709
1532.1600, -25.780
1532.1800, -25.751
1532.2000, -25.181
1532.2200, -24.939
1532.2400, -26.357
1532.2600, -27.415
1532.2800, -27.280
1532.3000, -27.373
1532.3200, -26.538
1532.3400, -26.705
1532.3600, -26.370
1532.3800, -26.699
1532.4000, -24.283
1532.4200, -22.136
1532.4400, -19.624
1532.4600, -20.678
1532.4800, -22.182
1532.5000, -23.290
1532.5200, -26.583
1532.5400, -27.312
1532.5600, -26.538
1532.5800, -25.322
1532.6000, -27.451
1532.6200, -28.160
1532.6400, -27.872
1532.6600, -28.242
1532.6800, -26.428
1532.7000, -27.085
1532.7200, -27.671
1532.7400, -27.998
1532.7600, -28.116
1532.7800, -27.875
1532.8000, -26.259
1532.8200, -26.563
1532.8400, -27.527
1532.8600, -28.531
1532.8800, -28.453
1532.9000, -28.369
1532.9200, -28.633
1532.9400, -28.513
1532.9600, -28.508
1532.9800, -28.533
1533.0000, -28.359
1533.0200, -28.577
1533.0400, -28.695
1533.0600, -28.821
1533.0800, -28.323
1533.1000, -27.368
1533.1200, -28.483
1533.1400, -28.743
1533.1600, -27.731
1533.1800, -28.922
1533.2000, -28.460
1533.2200, -28.809
1533.2400, -28.697
1533.2600, -28.468
1533.2800, -28.150
1533.3000, -28.380
1533.3200, -28.647
1533.3400, -28.163
1533.3600, -28.675
1533.3800, -28.537
1533.4000, -29.004
1533.4200, -28.987
1533.4400, -29.170
1533.4600, -28.816
1533.4800, -29.089
1533.5000, -29.191
1533.5200, -29.145
1533.5400, -29.285
1533.5600, -29.385
1533.5800, -29.431
1533.6000, -29.488
1533.6200, -29.630
1533.6400, -29.711
1533.6600, -29.796
1533.6800, -29.818
1533.7000, -29.870
1533.7200, -29.992
1533.7400, -30.138
1533.7600, -30.342
1533.7800, -30.487
1533.8000, -30.371
1533.8200, -30.479
1533.8400, -30.503
1533.8600, -30.585
1533.8800, -30.608
1533.9000, -30.743
1533.9200, -31.005
1533.9400, -30.953
1533.9600, -30.990
1533.9800, -31.018
1534.0000, -31.115
1534.0200, -31.210
1534.0400, -31.177
1534.0600, -31.335
1534.0800, -31.542
1534.1000, -31.474
1534.1200, -31.658
1534.1400, -31.722
1534.1600, -31.650
1534.1800, -31.685
1534.2000, -31.771
1534.2200, -31.776
1534.2400, -31.877
1534.2600, -31.861
1534.2800, -31.971
1534.3000, -32.003
1534.3200, -32.124
1534.3400, -32.196
1534.3600, -32.381
1534.3800, -32.389
1534.4000, -32.451
1534.4200, -32.551
1534.4400, -32.606
1534.4600, -32.748
1534.4800, -32.699
1534.5000, -32.763
1534.5200, -32.872
1534.5400, -32.862
1534.5600, -33.005
1534.5800, -32.983
1534.6000, -33.032
1534.6200, -33.110
1534.6400, -33.148
1534.6600, -33.198
1534.6800, -33.245
1534.7000, -33.319
1534.7200, -33.405
1534.7400, -33.428
1534.7600, -33.512
1534.7800, -33.597
1534.8000, -33.643
1534.8200, -33.639
1534.8400, -33.758
1534.8600, -33.805
1534.8800, -33.910
1534.9000, -34.037
1534.9200, -34.004
1534.9400, -34.110
1534.9600, -34.074
1534.9800, -34.173
1535.0000, -34.228
1535.0200, -34.308
1535.0400, -34.381
1535.0600, -34.456
1535.0800, -34.500
1535.1000, -34.597
1535.1200, -34.605
1535.1400, -34.660
1535.1600, -34.711
1535.1800, -34.738
1535.2000, -34.768
1535.2200, -34.826
1535.2400, -34.886
1535.2600, -34.937
1535.2800, -35.009
1535.3000, -35.067
1535.3200, -35.135
1535.3400, -35.185
1535.3600, -35.247
1535.3800, -35.299
1535.4000, -35.346
1535.4200, -35.392
1535.4400, -35.433
1535.4600, -35.491
1535.4800, -35.567
1535.5000, -35.622
1535.5200, -35.688
1535.5400, -35.742
1535.5600, -35.789
1535.5800, -35.848
1535.6000, -35.904
1535.6200, -35.959
1535.6400, -36.013
1535.6600, -36.070
1535.6800, -36.128
1535.7000, -36.183
1535.7200, -36.233
1535.7400, -36.284
1535.7600, -36.350
1535.7800, -36.411
1535.8000, -36.469
1535.8200, -36.512
1535.8400, -36.555
1535.8600, -36.608
1535.8800, -36.666
1535.9000, -36.717
1535.9200, -36.766
1535.9400, -36.819
1535.9600, -36.870
1535.9800, -36.919
1536.0000, -36.961
1536.0200, -37.006
1536.0400, -37.055
1536.0600, -37.096
1536.0800, -37.138
1536.1000, -37.186
1536.1200, -37.222
1536.1400, -37.268
1536.1600, -37.329
1536.1800, -37.370
1536.2000, -37.419
1536.2200, -37.466
1536.2400, -37.506
1536.2600, -37.542
1536.2800, -37.578
1536.3000, -37.611
1536.3200, -37.648
1536.3400, -37.690
1536.3600, -37.720
1536.3800, -37.766
1536.4000, -37.816
1536.4200, -37.857
1536.4400, -37.902
1536.4600, -37.938
1536.4800, -37.976
1536.5000, -38.017
1536.5200, -38.060
1536.5400, -38.105
1536.5600, -38.144
1536.5800, -38.181
1536.6000, -38.212
1536.6200, -38.237
1536.6400, -38.268
1536.6600, -38.305
1536.6800, -38.344
1536.7000, -38.382
1536.7200, -38.420
1536.7400, -38.450
1536.7600, -38.478
1536.7800, -38.517
1536.8000, -38.552
1536.8200, -38.592
1536.8400, -38.627
1536.8600, -38.662
1536.8800, -38.700
1536.9000, -38.731
1536.9200, -38.759
1536.9400, -38.788
1536.9600, -38.818
1536.9800, -38.847
1537.0000, -38.883
1537.0200, -38.911
1537.0400, -38.939
1537.0600, -38.976
1537.0800, -39.014
1537.1000, -39.035
1537.1200, -39.071
1537.1400, -39.105
1537.1600, -39.131
1537.1800, -39.160
1537.2000, -39.183
1537.2200, -39.207
1537.2400, -39.227
1537.2600, -39.252
1537.2800, -39.273
1537.3000, -39.307
1537.3200, -39.329
1537.3400, -39.358
1537.3600, -39.391
1537.3800, -39.416
1537.4000, -39.443
1537.4200, -39.471
1537.4400, -39.495
1537.4600, -39.519
1537.4800, -39.543
1537.5000, -39.566
1537.5200, -39.590
1537.5400, -39.602
1537.5600, -39.627
1537.5800, -39.656
1537.6000, -39.683
1537.6200, -39.714
1537.6400, -39.737
1537.6600, -39.752
1537.6800, -39.775
1537.7000, -39.796
1537.7200, -39.821
1537.7400, -39.843
1537.7600, -39.866
1537.7800, -39.890
1537.8000, -39.912
1537.8200, -39.933
1537.8400, -39.951
1537.8600, -39.971
1537.8800, -39.991
1537.9000, -40.003
1537.9200, -40.025
1537.9400, -40.044
1537.9600, -40.058
1537.9800, -40.077
1538.0000, -40.096
1538.0200, -40.118
1538.0400, -40.133
1538.0600, -40.157
1538.0800, -40.175
1538.1000, -40.192
1538.1200, -40.210
1538.1400, -40.221
1538.1600, -40.241
1538.1800, -40.256
1538.2000, -40.268
1538.2200, -40.285
1538.2400, -40.306
1538.2600, -40.319
1538.2800, -40.338
1538.3000, -40.350
1538.3200, -40.364
1538.3400, -40.376
1538.3600, -40.389
1538.3800, -40.402
1538.4000, -40.413
1538.4200, -40.432
1538.4400, -40.437
1538.4600, -40.451
1538.4800, -40.457
1538.5000, -40.475
1538.5200, -40.488
1538.5400, -40.506
1538.5600, -40.521
1538.5800, -40.529
1538.6000, -40.542
1538.6200, -40.551
1538.6400, -40.564
1538.6600, -40.576
1538.6800, -40.590
1538.7000, -40.599
1538.7200, -40.606
1538.7400, -40.614
1538.7600, -40.621
1538.7800, -40.633
1538.8000, -40.643
1538.8200, -40.642
1538.8400, -40.658
1538.8600, -40.664
1538.8800, -40.666
1538.9000, -40.680
1538.9200, -40.689
1538.9400, -40.696
1538.9600, -40.712
1538.9800, -40.719
1539.0000, -40.720
1539.0200, -40.732
1539.0400, -40.736
1539.0600, -40.740
1539.0800, -40.747
1539.1000, -40.751
1539.1200, -40.757
1539.1400, -40.770
1539.1600, -40.773
1539.1800, -40.781
1539.2000, -40.790
1539.2200, -40.794
1539.2400, -40.799
1539.2600, -40.802
1539.2800, -40.810
1539.3000, -40.819
1539.3200, -40.823
1539.3400, -40.834
1539.3600, -40.834
1539.3800, -40.835
1539.4000, -40.835
1539.4200, -40.845
1539.4400, -40.854
1539.4600, -40.859
1539.4800, -40.868
1539.5000, -40.865
1539.5200, -40.870
1539.5400, -40.882
1539.5600, -40.886
1539.5800, -40.897
1539.6000, -40.906
1539.6200, -40.912
1539.6400, -40.918
1539.6600, -40.920
1539.6800, -40.919
1539.7000, -40.920
1539.7200, -40.918
1539.7400, -40.919
1539.7600, -40.921
1539.7800, -40.928
1539.8000, -40.927
1539.8200, -40.929
1539.8400, -40.935
1539.8600, -40.936
1539.8800, -40.943
1539.9000, -40.950
1539.9200, -40.951
1539.9400, -40.954
1539.9600, -40.955
1539.9800, -40.946
1540.0000, -40.954
1540.0200, -40.945
1540.0400, -40.949
1540.0600, -40.956
1540.0800, -40.959
1540.1000, -40.972
1540.1200, -40.974
1540.1400, -40.969
1540.1600, -40.974
1540.1800, -40.975
1540.2000, -40.977
1540.2200, -40.979
1540.2400, -40.982
1540.2600, -40.980
1540.2800, -40.973
1540.3000, -40.965
1540.3200, -40.964
1540.3400, -40.962
1540.3600, -40.963
1540.3800, -40.965
1540.4000, -40.961
1540.4200, -40.954
1540.4400, -40.950
1540.4600, -40.951
1540.4800, -40.955
1540.5000, -40.953
1540.5200, -40.952
1540.5400, -40.952
1540.5600, -40.953
1540.5800, -40.950
1540.6000, -40.947
1540.6200, -40.946
1540.6400, -40.938
1540.6600, -40.933
1540.6800, -40.938
1540.7000, -40.933
1540.7200, -40.931
1540.7400, -40.933
1540.7600, -40.929
1540.7800, -40.928
1540.8000, -40.931
1540.8200, -40.927
1540.8400, -40.922
1540.8600, -40.915
1540.8800, -40.912
1540.9000, -40.907
1540.9200, -40.908
1540.9400, -40.898
1540.9600, -40.904
1540.9800, -40.904
1541.0000, -40.904
1541.0200, -40.911
1541.0400, -40.909
1541.0600, -40.906
1541.0800, -40.902
1541.1000, -40.898
1541.1200, -40.895
1541.1400, -40.891
1541.1600, -40.890
1541.1800, -40.888
1541.2000, -40.880
1541.2200, -40.876
1541.2400, -40.874
1541.2600, -40.878
1541.2800, -40.877
1541.3000, -40.878
1541.3200, -40.866
1541.3400, -40.860
1541.3600, -40.862
1541.3800, -40.862
1541.4000, -40.861
1541.4200, -40.859
1541.4400, -40.857
1541.4600, -40.854
1541.4800, -40.850
1541.5000, -40.845
1541.5200, -40.841
1541.5400, -40.837
1541.5600, -40.831
1541.5800, -40.831
1541.6000, -40.826
1541.6200, -40.825
1541.6400, -40.820
1541.6600, -40.821
1541.6800, -40.810
1541.7000, -40.813
1541.7200, -40.811
1541.7400, -40.805
1541.7600, -40.802
1541.7800, -40.795
1541.8000, -40.788
1541.8200, -40.781
1541.8400, -40.780
1541.8600, -40.783
1541.8800, -40.775
1541.9000, -40.774
1541.9200, -40.774
1541.9400, -40.775
1541.9600, -40.769
1541.9800, -40.765
1542.0000, -40.763
1542.0200, -40.758
1542.0400, -40.751
1542.0600, -40.745
1542.0800, -40.744
1542.1000, -40.736
1542.1200, -40.728
1542.1400, -40.723
1542.1600, -40.720
1542.1800, -40.723
1542.2000, -40.725
1542.2200, -40.718
1542.2400, -40.712
1542.2600, -40.706
1542.2800, -40.703
1542.3000, -40.703
1542.3200, -40.701
1542.3400, -40.697
1542.3600, -40.693
1542.3800, -40.688
1542.4000, -40.682
1542.4200, -40.675
1542.4400, -40.670
1542.4600, -40.664
1542.4800, -40.659
1542.5000, -40.653
1542.5200, -40.651
1542.5400, -40.644
1542.5600, -40.643
1542.5800, -40.635
1542.6000, -40.635
1542.6200, -40.634
1542.6400, -40.626
1542.6600, -40.621
1542.6800, -40.615
1542.7000, -40.611
1542.7200, -40.600
1542.7400, -40.600
1542.7600, -40.590
1542.7800, -40.589
1542.8000, -40.583
1542.8200, -40.591
1542.8400, -40.587
1542.8600, -40.583
1542.8800, -40.571
1542.9000, -40.569
1542.9200, -40.563
1542.9400, -40.556
1542.9600, -40.552
1542.9800, -40.550
1543.0000, -40.544
1543.0200, -40.536
1543.0400, -40.528
1543.0600, -40.522
1543.0800, -40.518
1543.1000, -40.517
1543.1200, -40.516
1543.1400, -40.509
1543.1600, -40.505
1543.1800, -40.501
1543.2000, -40.498
1543.2200, -40.496
1543.2400, -40.495
1543.2600, -40.496
1543.2800, -40.496
1543.3000, -40.492
1543.3200, -40.485
1543.3400, -40.483
1543.3600, -40.484
1543.3800, -40.479
1543.4000, -40.478
1543.4200, -40.473
1543.4400, -40.468
1543.4600, -40.473
1543.4800, -40.466
1543.5000, -40.462
1543.5200, -40.463
1543.5400, -40.461
1543.5600, -40.451
1543.5800, -40.449
1543.6000, -40.450
1543.6200, -40.447
1543.6400, -40.445
1543.6600, -40.445
1543.6800, -40.445
1543.7000, -40.439
1543.7200, -40.434
1543.7400, -40.429
1543.7600, -40.432
1543.7800, -40.421
1543.8000, -40.415
1543.8200, -40.411
1543.8400, -40.415
1543.8600, -40.416
1543.8800, -40.413
1543.9000, -40.415
1543.9200, -40.406
1543.9400, -40.403
1543.9600, -40.402
1543.9800, -40.404
1544.0000, -40.408
1544.0200, -40.407
1544.0400, -40.403
1544.0600, -40.395
1544.0800, -40.391
1544.1000, -40.392
1544.1200, -40.389
1544.1400, -40.385
1544.1600, -40.381
1544.1800, -40.378
1544.2000, -40.377
1544.2200, -40.376
1544.2400, -40.377
1544.2600, -40.375
1544.2800, -40.371
1544.3000, -40.369
1544.3200, -40.364
1544.3400, -40.362
1544.3600, -40.355
1544.3800, -40.351
1544.4000, -40.358
1544.4200, -40.347
1544.4400, -40.353
1544.4600, -40.348
1544.4800, -40.342
1544.5000, -40.341
1544.5200, -40.341
1544.5400, -40.337
1544.5600, -40.331
1544.5800, -40.326
1544.6000, -40.319
1544.6200, -40.320
1544.6400, -40.319
1544.6600, -40.329
1544.6800, -40.324
1544.7000, -40.324
1544.7200, -40.319
1544.7400, -40.321
1544.7600, -40.321
1544.7800, -40.323
1544.8000, -40.323
1544.8200, -40.324
1544.8400, -40.316
1544.8600, -40.313
1544.8800, -40.314
1544.9000, -40.318
1544.9200, -40.314
1544.9400, -40.315
1544.9600, -40.309
1544.9800, -40.311
1545.0000, -40.313
1545.0200, -40.313
1545.0400, -40.316
1545.0600, -40.316
1545.0800, -40.317
1545.1000, -40.318
1545.1200, -40.317
1545.1400, -40.319
1545.1600, -40.314
1545.1800, -40.312
1545.2000, -40.312
1545.2200, -40.307
1545.2400, -40.310
1545.2600, -40.314
1545.2800, -40.303
1545.3000, -40.310
1545.3200, -40.305
1545.3400, -40.313
1545.3600, -40.315
1545.3800, -40.315
1545.4000, -40.310
1545.4200, -40.313
1545.4400, -40.314
1545.4600, -40.307
1545.4800, -40.302
1545.5000, -40.297
1545.5200, -40.297
1545.5400, -40.294
1545.5600, -40.288
1545.5800, -40.289
1545.6000, -40.288
1545.6200, -40.289
1545.6400, -40.295
1545.6600, -40.300
1545.6800, -40.301
1545.7000, -40.300
1545.7200, -40.299
1545.7400, -40.298
1545.7600, -40.290
1545.7800, -40.290
1545.8000, -40.291
1545.8200, -40.291
1545.8400, -40.292
1545.8600, -40.282
1545.8800, -40.289
1545.9000, -40.292
1545.9200, -40.295
1545.9400, -40.296
1545.9600, -40.296
1545.9800, -40.294
1546.0000, -40.294
1546.0200, -40.293
1546.0400, -40.290
1546.0600, -40.286
1546.0800, -40.281
1546.1000, -40.280
1546.1200, -40.275
1546.1400, -40.276
1546.1600, -40.272
1546.1800, -40.274
1546.2000, -40.276
1546.2200, -40.282
1546.2400, -40.276
1546.2600, -40.282
1546.2800, -40.281
1546.3000, -40.278
1546.3200, -40.279
1546.3400, -40.276
1546.3600, -40.269
1546.3800, -40.271
1546.4000, -40.272
1546.4200, -40.273
1546.4400, -40.276
1546.4600, -40.270
1546.4800, -40.286
1546.5000, -40.287
1546.5200, -40.287
1546.5400, -40.286
1546.5600, -40.290
1546.5800, -40.291
1546.6000, -40.293
1546.6200, -40.294
1546.6400, -40.285
1546.6600, -40.292
1546.6800, -40.295
1546.7000, -40.295
1546.7200, -40.296
1546.7400, -40.295
1546.7600, -40.288
1546.7800, -40.286
1546.8000, -40.286
1546.8200, -40.284
1546.8400, -40.288
1546.8600, -40.291
1546.8800, -40.287
1546.9000, -40.291
1546.9200, -40.289
1546.9400, -40.289
1546.9600, -40.291
1546.9800, -40.291
1547.0000, -40.290
1547.0200, -40.284
1547.0400, -40.278
1547.0600, -40.285
1547.0800, -40.283
1547.1000, -40.281
1547.1200, -40.287
1547.1400, -40.281
1547.1600, -40.294
1547.1800, -40.300
1547.2000, -40.299
1547.2200, -40.303
1547.2400, -40.302
1547.2600, -40.300
1547.2800, -40.300
1547.3000, -40.301
1547.3200, -40.299
1547.3400, -40.302
1547.3600, -40.300
1547.3800, -40.311
1547.4000, -40.309
1547.4200, -40.306
1547.4400, -40.299
1547.4600, -40.309
1547.4800, -40.307
1547.5000, -40.305
1547.5200, -40.306
1547.5400, -40.296
1547.5600, -40.300
1547.5800, -40.299
1547.6000, -40.300
1547.6200, -40.306
1547.6400, -40.310
1547.6600, -40.311
1547.6800, -40.314
1547.7000, -40.317
1547.7200, -40.323
1547.7400, -40.329
1547.7600, -40.330
1547.7800, -40.329
1547.8000, -40.330
1547.8200, -40.331
1547.8400, -40.330
1547.8600, -40.331
1547.8800, -40.329
1547.9000, -40.328
1547.9200, -40.327
1547.9400, -40.321
1547.9600, -40.324
1547.9800, -40.330
1548.0000, -40.330
1548.0200, -40.338
1548.0400, -40.340
1548.0600, -40.340
1548.0800, -40.343
1548.1000, -40.341
1548.1200, -40.341
1548.1400, -40.337
1548.1600, -40.335
1548.1800, -40.334
1548.2000, -40.337
1548.2200, -40.338
1548.2400, -40.341
1548.2600, -40.345
1548.2800, -40.348
1548.3000, -40.354
1548.3200, -40.353
1548.3400, -40.349
1548.3600, -40.347
1548.3800, -40.358
1548.4000, -40.360
1548.4200, -40.361
1548.4400, -40.359
1548.4600, -40.360
1548.4800, -40.361
1548.5000, -40.366
1548.5200, -40.367
1548.5400, -40.364
1548.5600, -40.364
1548.5800, -40.359
1548.6000, -40.371
1548.6200, -40.374
1548.6400, -40.375
1548.6600, -40.381
1548.6800, -40.381
1548.7000, -40.381
1548.7200, -40.387
1548.7400, -40.387
1548.7600, -40.395
1548.7800, -40.395
1548.8000, -40.397
1548.8200, -40.401
1548.8400, -40.398
1548.8600, -40.401
1548.8800, -40.402
1548.9000, -40.401
1548.9200, -40.403
1548.9400, -40.404
1548.9600, -40.399
1548.9800, -40.409
1549.0000, -40.409
1549.0200, -40.412
1549.0400, -40.412
1549.0600, -40.418
1549.0800, -40.415
1549.1000, -40.414
1549.1200, -40.408
1549.1400, -40.409
1549.1600, -40.410
1549.1800, -40.419
1549.2000, -40.429
1549.2200, -40.428
1549.2400, -40.433
1549.2600, -40.437
1549.2800, -40.440
1549.3000, -40.436
1549.3200, -40.431
1549.3400, -40.434
1549.3600, -40.438
1549.3800, -40.432
1549.4000, -40.434
1549.4200, -40.444
1549.4400, -40.446
1549.4600, -40.452
1549.4800, -40.458
1549.5000, -40.458
1549.5200, -40.464
1549.5400, -40.471
1549.5600, -40.476
1549.5800, -40.476
1549.6000, -40.478
1549.6200, -40.480
1549.6400, -40.482
1549.6600, -40.484
1549.6800, -40.486
1549.7000, -40.487
1549.7200, -40.489
1549.7400, -40.485
1549.7600, -40.489
1549.7800, -40.499
1549.8000, -40.499
1549.8200, -40.503
1549.8400, -40.509
1549.8600, -40.515
1549.8800, -40.519
1549.9000, -40.520
1549.9200, -40.518
1549.9400, -40.516
1549.9600, -40.513
1549.9800, -40.513
1550.0000, -40.517
1550.0200, -40.522
1550.0400, -40.517
1550.0600, -40.520
1550.0800, -40.518
1550.1000, -40.527
1550.1200, -40.530
1550.1400, -40.528
1550.1600, -40.529
1550.1800, -40.527
1550.2000, -40.530
1550.2200, -40.533
1550.2400, -40.533
1550.2600, -40.530
1550.2800, -40.535
1550.3000, -40.542
1550.3200, -40.548
1550.3400, -40.552
1550.3600, -40.556
1550.3800, -40.557
1550.4000, -40.562
1550.4200, -40.565
1550.4400, -40.568
1550.4600, -40.572
1550.4800, -40.575
1550.5000, -40.578
1550.5200, -40.579
1550.5400, -40.582
1550.5600, -40.582
1550.5800, -40.581
1550.6000, -40.584
1550.6200, -40.589
1550.6400, -40.591
1550.6600, -40.599
1550.6800, -40.603
1550.7000, -40.603
1550.7200, -40.612
1550.7400, -40.618
1550.7600, -40.618
1550.7800, -40.628
1550.8000, -40.631
1550.8200, -40.634
1550.8400, -40.637
1550.8600, -40.642
1550.8800, -40.641
1550.9000, -40.649
1550.9200, -40.648
1550.9400, -40.648
1550.9600, -40.646
1550.9800, -40.648
1551.0000, -40.660
1551.0200, -40.664
1551.0400, -40.665
1551.0600, -40.661
1551.0800, -40.665
1551.1000, -40.665
1551.1200, -40.670
1551.1400, -40.680
1551.1600, -40.679
1551.1800, -40.681
1551.2000, -40.686
1551.2200, -40.692
1551.2400, -40.700
1551.2600, -40.705
1551.2800, -40.710
1551.3000, -40.709
1551.3200, -40.712
1551.3400, -40.718
1551.3600, -40.722
1551.3800, -40.724
1551.4000, -40.727
1551.4200, -40.727
1551.4400, -40.726
1551.4600, -40.730
1551.4800, -40.731
1551.5000, -40.729
1551.5200, -40.732
1551.5400, -40.731
1551.5600, -40.734
1551.5800, -40.742
1551.6000, -40.739
1551.6200, -40.740
1551.6400, -40.742
1551.6600, -40.753
1551.6800, -40.759
1551.7000, -40.756
1551.7200, -40.763
1551.7400, -40.768
1551.7600, -40.769
1551.7800, -40.769
1551.8000, -40.774
1551.8200, -40.779
1551.8400, -40.784
1551.8600, -40.786
1551.8800, -40.788
1551.9000, -40.790
1551.9200, -40.792
1551.9400, -40.794
1551.9600, -40.796
1551.9800, -40.794
1552.0000, -40.796
1552.0200, -40.800
1552.0400, -40.802
1552.0600, -40.806
1552.0800, -40.806
1552.1000, -40.810
1552.1200, -40.819
1552.1400, -40.826
1552.1600, -40.830
1552.1800, -40.830
1552.2000, -40.836
1552.2200, -40.837
1552.2400, -40.842
1552.2600, -40.844
1552.2800, -40.848
1552.3000, -40.852
1552.3200, -40.856
1552.3400, -40.857
1552.3600, -40.855
1552.3800, -40.855
1552.4000, -40.860
1552.4200, -40.859
1552.4400, -40.861
1552.4600, -40.863
1552.4800, -40.863
1552.5000, -40.867
1552.5200, -40.868
1552.5400, -40.869
1552.5600, -40.877
1552.5800, -40.880
1552.6000, -40.885
1552.6200, -40.889
1552.6400, -40.894
1552.6600, -40.899
1552.6800, -40.904
1552.7000, -40.907
1552.7200, -40.908
1552.7400, -40.910
1552.7600, -40.919
1552.7800, -40.923
1552.8000, -40.925
1552.8200, -40.926
1552.8400, -40.924
1552.8600, -40.932
1552.8800, -40.938
1552.9000, -40.938
1552.9200, -40.941
1552.9400, -40.942
1552.9600, -40.937
1552.9800, -40.943
1553.0000, -40.943
1553.0200, -40.945
1553.0400, -40.952
1553.0600, -40.957
1553.0800, -40.954
1553.1000, -40.957
1553.1200, -40.959
1553.1400, -40.965
1553.1600, -40.972
1553.1800, -40.977
1553.2000, -40.983
1553.2200, -40.985
1553.2400, -40.989
1553.2600, -40.994
1553.2800, -40.998
1553.3000, -41.000
1553.3200, -41.002
1553.3400, -41.001
1553.3600, -41.005
1553.3800, -41.004
1553.4000, -41.005
1553.4200, -41.005
1553.4400, -41.006
1553.4600, -41.012
1553.4800, -41.012
1553.5000, -41.015
1553.5200, -41.013
1553.5400, -41.015
1553.5600, -41.020
1553.5800, -41.021
1553.6000, -41.026
1553.6200, -41.031
1553.6400, -41.029
1553.6600, -41.038
1553.6800, -41.043
1553.7000, -41.046
1553.7200, -41.039
1553.7400, -41.039
1553.7600, -41.041
1553.7800, -41.049
1553.8000, -41.054
1553.8200, -41.056
1553.8400, -41.057
1553.8600, -41.054
1553.8800, -41.059
1553.9000, -41.063
1553.9200, -41.063
1553.9400, -41.068
1553.9600, -41.069
1553.9800, -41.070
1554.0000, -41.072
1554.0200, -41.076
1554.0400, -41.082
1554.0600, -41.088
1554.0800, -41.093
1554.1000, -41.095
1554.1200, -41.100
1554.1400, -41.104
1554.1600, -41.106
1554.1800, -41.108
1554.2000, -41.110
1554.2200, -41.109
1554.2400, -41.114
1554.2600, -41.111
1554.2800, -41.114
1554.3000, -41.116
1554.3200, -41.110
1554.3400, -41.116
1554.3600, -41.119
1554.3800, -41.115
1554.4000, -41.115
1554.4200, -41.116
1554.4400, -41.114
1554.4600, -41.112
1554.4800, -41.113
1554.5000, -41.115
1554.5200, -41.118
1554.5400, -41.118
1554.5600, -41.120
1554.5800, -41.127
1554.6000, -41.129
1554.6200, -41.131
1554.6400, -41.136
1554.6600, -41.140
1554.6800, -41.145
1554.7000, -41.148
1554.7200, -41.154
1554.7400, -41.151
1554.7600, -41.152
1554.7800, -41.152
1554.8000, -41.156
1554.8200, -41.162
1554.8400, -41.163
1554.8600, -41.166
1554.8800, -41.167
1554.9000, -41.173
1554.9200, -41.179
1554.9400, -41.179
1554.9600, -41.176
1554.9800, -41.176
1555.0000, -41.178
1555.0200, -41.180
1555.0400, -41.181
1555.0600, -41.188
1555.0800, -41.189
1555.1000, -41.194
1555.1200, -41.191
1555.1400, -41.189
1555.1600, -41.193
1555.1800, -41.199
1555.2000, -41.206
1555.2200, -41.199
1555.2400, -41.208
1555.2600, -41.216
1555.2800, -41.218
1555.3000, -41.221
1555.3200, -41.224
1555.3400, -41.223
1555.3600, -41.223
1555.3800, -41.224
1555.4000, -41.228
1555.4200, -41.232
1555.4400, -41.226
1555.4600, -41.234
1555.4800, -41.236
1555.5000, -41.239
1555.5200, -41.238
1555.5400, -41.246
1555.5600, -41.253
1555.5800, -41.253
1555.6000, -41.251
1555.6200, -41.260
1555.6400, -41.261
1555.6600, -41.264
1555.6800, -41.265
1555.7000, -41.268
1555.7200, -41.270
1555.7400, -41.271
1555.7600, -41.266
1555.7800, -41.275
1555.8000, -41.278
1555.8200, -41.278
1555.8400, -41.279
1555.8600, -41.276
1555.8800, -41.279
1555.9000, -41.281
1555.9200, -41.282
1555.9400, -41.287
1555.9600, -41.297
1555.9800, -41.299
1556.0000, -41.302
1556.0200, -41.307
1556.0400, -41.307
1556.0600, -41.312
1556.0800, -41.323
1556.1000, -41.318
1556.1200, -41.320
1556.1400, -41.331
1556.1600, -41.330
1556.1800, -41.330
1556.2000, -41.334
1556.2200, -41.334
1556.2400, -41.338
1556.2600, -41.337
1556.2800, -41.339
1556.3000, -41.336
1556.3200, -41.338
1556.3400, -41.342
1556.3600, -41.343
1556.3800, -41.345
1556.4000, -41.345
1556.4200, -41.355
1556.4400, -41.360
1556.4600, -41.362
1556.4800, -41.360
1556.5000, -41.359
1556.5200, -41.367
1556.5400, -41.366
1556.5600, -41.368
1556.5800, -41.373
1556.6000, -41.374
1556.6200, -41.373
1556.6400, -41.381
1556.6600, -41.388
1556.6800, -41.394
1556.7000, -41.400
1556.7200, -41.404
1556.7400, -41.403
1556.7600, -41.404
1556.7800, -41.410
1556.8000, -41.412
1556.8200, -41.421
1556.8400, -41.433
1556.8600, -41.431
1556.8800, -41.432
1556.9000, -41.438
1556.9200, -41.440
1556.9400, -41.443
1556.9600, -41.444
1556.9800, -41.447
1557.0000, -41.448
1557.0200, -41.455
1557.0400, -41.458
1557.0600, -41.453
1557.0800, -41.457
1557.1000, -41.463
1557.1200, -41.461
1557.1400, -41.464
1557.1600, -41.467
1557.1800, -41.470
1557.2000, -41.476
1557.2200, -41.478
1557.2400, -41.489
1557.2600, -41.496
1557.2800, -41.498
1557.3000, -41.495
1557.3200, -41.510
1557.3400, -41.516
1557.3600, -41.519
1557.3800, -41.517
1557.4000, -41.528
1557.4200, -41.533
1557.4400, -41.544
1557.4600, -41.548
1557.4800, -41.555
1557.5000, -41.557
1557.5200, -41.560
1557.5400, -41.565
1557.5600, -41.571
1557.5800, -41.578
1557.6000, -41.579
1557.6200, -41.581
1557.6400, -41.578
1557.6600, -41.585
1557.6800, -41.591
1557.7000, -41.599
1557.7200, -41.607
1557.7400, -41.619
1557.7600, -41.618
1557.7800, -41.619
1557.8000, -41.626
1557.8200, -41.626
1557.8400, -41.624
1557.8600, -41.627
1557.8800, -41.627
1557.9000, -41.636
1557.9200, -41.640
1557.9400, -41.645
1557.9600, -41.642
1557.9800, -41.651
1558.0000, -41.657
1558.0200, -41.659
1558.0400, -41.667
1558.0600, -41.674
1558.0800, -41.680
1558.1000, -41.688
1558.1200, -41.699
1558.1400, -41.703
1558.1600, -41.705
1558.1800, -41.707
1558.2000, -41.717
1558.2200, -41.713
1558.2400, -41.719
1558.2600, -41.725
1558.2800, -41.731
1558.3000, -41.739
1558.3200, -41.741
1558.3400, -41.751
1558.3600, -41.761
1558.3800, -41.766
1558.4000, -41.767
1558.4200, -41.776
1558.4400, -41.780
1558.4600, -41.785
1558.4800, -41.789
1558.5000, -41.796
1558.5200, -41.796
1558.5400, -41.801
1558.5600, -41.809
1558.5800, -41.812
1558.6000, -41.820
1558.6200, -41.835
1558.6400, -41.840
1558.6600, -41.844
1558.6800, -41.851
1558.7000, -41.861
1558.7200, -41.864
1558.7400, -41.871
1558.7600, -41.883
1558.7800, -41.884
1558.8000, -41.894
1558.8200, -41.902
1558.8400, -41.903
1558.8600, -41.913
1558.8800, -41.921
1558.9000, -41.922
1558.9200, -41.929
1558.9400, -41.937
1558.9600, -41.946
1558.9800, -41.953
1559.0000, -41.961
1559.0200, -41.975
1559.0400, -41.982
1559.0600, -41.984
1559.0800, -41.981
1559.1000, -42.002
1559.1200, -42.014
1559.1400, -42.024
1559.1600, -42.030
1559.1800, -42.044
1559.2000, -42.047
1559.2200, -42.057
1559.2400, -42.066
1559.2600, -42.076
1559.2800, -42.075
1559.3000, -42.081
1559.3200, -42.091
1559.3400, -42.101
1559.3600, -42.110
1559.3800, -42.120
1559.4000, -42.125
1559.4200, -42.134
1559.4400, -42.142
1559.4600, -42.152
1559.4800, -42.159
1559.5000, -42.164
1559.5200, -42.178
1559.5400, -42.190
1559.5600, -42.199
1559.5800, -42.208
1559.6000, -42.216
1559.6200, -42.222
1559.6400, -42.229
1559.6600, -42.235
1559.6800, -42.248
1559.7000, -42.255
1559.7200, -42.270
1559.7400, -42.272
1559.7600, -42.285
1559.7800, -42.293
1559.8000, -42.300
1559.8200, -42.308
1559.8400, -42.312
1559.8600, -42.319
1559.8800, -42.330
1559.9000, -42.343
1559.9200, -42.349
1559.9400, -42.361
1559.9600, -42.367
1559.9800, -42.382
1560.0000, -42.395
1560.0200, -42.406
1560.0400, -42.411
1560.0600, -42.423
1560.0800, -42.437
1560.1000, -42.444
1560.1200, -42.450
1560.1400, -42.463
1560.1600, -42.469
1560.1800, -42.481
1560.2000, -42.496
1560.2200, -42.505
1560.2400, -42.518
1560.2600, -42.531
1560.2800, -42.545
1560.3000, -42.552
1560.3200, -42.562
1560.3400, -42.571
1560.3600, -42.579
1560.3800, -42.590
1560.4000, -42.603
1560.4200, -42.613
1560.4400, -42.621
1560.4600, -42.634
1560.4800, -42.642
1560.5000, -42.656
1560.5200, -42.670
1560.5400, -42.682
1560.5600, -42.691
1560.5800, -42.708
1560.6000, -42.721
1560.6200, -42.728
1560.6400, -42.747
1560.6600, -42.759
1560.6800, -42.770
1560.7000, -42.785
1560.7200, -42.794
1560.7400, -42.803
1560.7600, -42.813
1560.7800, -42.829
1560.8000, -42.842
1560.8200, -42.848
1560.8400, -42.857
1560.8600, -42.862
1560.8800, -42.883
1560.9000, -42.899
1560.9200, -42.907
1560.9400, -42.919
1560.9600, -42.934
1560.9800, -42.941
1561.0000, -42.953
1561.0200, -42.968
1561.0400, -42.977
1561.0600, -42.992
1561.0800, -43.005
1561.1000, -43.014
1561.1200, -43.030
1561.1400, -43.045
1561.1600, -43.059
1561.1800, -43.067
1561.2000, -43.077
1561.2200, -43.089
1561.2400, -43.105
1561.2600, -43.120
1561.2800, -43.141
1561.3000, -43.150
1561.3200, -43.159
1561.3400, -43.175
1561.3600, -43.191
1561.3800, -43.205
1561.4000, -43.221
1561.4200, -43.231
1561.4400, -43.245
1561.4600, -43.269
1561.4800, -43.277
1561.5000, -43.291
1561.5200, -43.307
1561.5400, -43.323
1561.5600, -43.334
1561.5800, -43.348
1561.6000, -43.361
1561.6200, -43.374
1561.6400, -43.391
1561.6600, -43.401
1561.6800, -43.423
1561.7000, -43.436
1561.7200, -43.447
1561.7400, -43.465
1561.7600, -43.484
1561.7800, -43.498
1561.8000, -43.510
1561.8200, -43.525
1561.8400, -43.537
1561.8600, -43.547
1561.8800, -43.559
1561.9000, -43.577
1561.9200, -43.592
1561.9400, -43.605
1561.9600, -43.619
1561.9800, -43.632
1562.0000, -43.645
1562.0200, -43.663
1562.0400, -43.679
1562.0600, -43.697
1562.0800, -43.714
1562.1000, -43.730
1562.1200, -43.745
1562.1400, -43.762
1562.1600, -43.782
1562.1800, -43.793
1562.2000, -43.810
1562.2200, -43.827
1562.2400, -43.844
1562.2600, -43.858
1562.2800, -43.878
1562.3000, -43.896
1562.3200, -43.907
1562.3400, -43.928
1562.3600, -43.945
1562.3800, -43.957
1562.4000, -43.974
1562.4200, -43.992
1562.4400, -44.006
1562.4600, -44.020
1562.4800, -44.037
1562.5000, -44.053
1562.5200, -44.066
1562.5400, -44.083
1562.5600, -44.102
1562.5800, -44.119
1562.6000, -44.131
1562.6200, -44.151
1562.6400, -44.171
1562.6600, -44.188
1562.6800, -44.200
1562.7000, -44.211
1562.7200, -44.231
1562.7400, -44.243
1562.7600, -44.261
1562.7800, -44.278
1562.8000, -44.295
1562.8200, -44.314
1562.8400, -44.330
1562.8600, -44.342
1562.8800, -44.364
1562.9000, -44.377
1562.9200, -44.398
1562.9400, -44.416
1562.9600, -44.427
1562.9800, -44.442
1563.0000, -44.460
1563.0200, -44.478
1563.0400, -44.501
1563.0600, -44.520
1563.0800, -44.538
1563.1000, -44.557
1563.1200, -44.572
1563.1400, -44.588
1563.1600, -44.605
1563.1800, -44.626
1563.2000, -44.637
1563.2200, -44.658
1563.2400, -44.676
1563.2600, -44.691
1563.2800, -44.706
1563.3000, -44.723
1563.3200, -44.739
1563.3400, -44.755
1563.3600, -44.771
1563.3800, -44.790
1563.4000, -44.804
1563.4200, -44.829
1563.4400, -44.848
1563.4600, -44.868
1563.4800, -44.881
1563.5000, -44.901
1563.5200, -44.920
1563.5400, -44.937
1563.5600, -44.954
1563.5800, -44.972
1563.6000, -44.990
1563.6200, -45.007
1563.6400, -45.023
1563.6600, -45.043
1563.6800, -45.062
1563.7000, -45.082
1563.7200, -45.103
1563.7400, -45.117
1563.7600, -45.137
1563.7800, -45.155
1563.8000, -45.174
1563.8200, -45.194
1563.8400, -45.214
1563.8600, -45.234
1563.8800, -45.256
1563.9000, -45.274
1563.9200, -45.291
1563.9400, -45.308
1563.9600, -45.326
1563.9800, -45.344
1564.0000, -45.366
1564.0200, -45.383
1564.0400, -45.398
1564.0600, -45.421
1564.0800, -45.429
1564.1000, -45.452
1564.1200, -45.471
1564.1400, -45.484
1564.1600, -45.504
1564.1800, -45.523
1564.2000, -45.541
1564.2200, -45.558
1564.2400, -45.577
1564.2600, -45.595
1564.2800, -45.616
1564.3000, -45.630
1564.3200, -45.654
1564.3400, -45.675
1564.3600, -45.693
1564.3800, -45.711
1564.4000, -45.734
1564.4200, -45.753
1564.4400, -45.768
1564.4600, -45.789
1564.4800, -45.812
1564.5000, -45.828
1564.5200, -45.850
1564.5400, -45.867
1564.5600, -45.891
1564.5800, -45.910
1564.6000, -45.932
1564.6200, -45.945
1564.6400, -45.968
1564.6600, -45.988
1564.6800, -46.008
1564.7000, -46.028
1564.7200, -46.047
1564.7400, -46.066
1564.7600, -46.089
1564.7800, -46.105
1564.8000, -46.125
1564.8200, -46.143
1564.8400, -46.161
1564.8600, -46.177
1564.8800, -46.197
1564.9000, -46.215
1564.9200, -46.235
1564.9400, -46.258
1564.9600, -46.277
1564.9800, -46.299
1565.0000, -46.319
1565.0200, -46.336
1565.0400, -46.354
1565.0600, -46.378
1565.0800, -46.393
1565.1000, -46.408
1565.1200, -46.432
1565.1400, -46.453
1565.1600, -46.474
1565.1800, -46.490
1565.2000, -46.513
1565.2200, -46.534
1565.2400, -46.553
1565.2600, -46.571
1565.2800, -46.593
1565.3000, -46.615
1565.3200, -46.630
1565.3400, -46.653
1565.3600, -46.674
1565.3800, -46.693
1565.4000, -46.713
1565.4200, -46.732
1565.4400, -46.755
1565.4600, -46.776
1565.4800, -46.795
1565.5000, -46.811
1565.5200, -46.836
1565.5400, -46.854
1565.5600, -46.874
1565.5800, -46.898
1565.6000, -46.916
1565.6200, -46.931
1565.6400, -46.954
1565.6600, -46.970
1565.6800, -46.990
1565.7000, -47.009
1565.7200, -47.030
1565.7400, -47.048
1565.7600, -47.072
1565.7800, -47.090
1565.8000, -47.111
1565.8200, -47.127
1565.8400, -47.146
1565.8600, -47.171
1565.8800, -47.188
1565.9000, -47.207
1565.9200, -47.228
1565.9400, -47.247
1565.9600, -47.265
1565.9800, -47.281
1566.0000, -47.305
1566.0200, -47.328
1566.0400, -47.347
1566.0600, -47.366
1566.0800, -47.389
1566.1000, -47.410
1566.1200, -47.429
1566.1400, -47.446
1566.1600, -47.468
1566.1800, -47.491
1566.2000, -47.507
1566.2200, -47.531
1566.2400, -47.552
1566.2600, -47.567
1566.2800, -47.584
1566.3000, -47.607
1566.3200, -47.630
1566.3400, -47.647
1566.3600, -47.668
1566.3800, -47.685
1566.4000, -47.706
1566.4200, -47.728
1566.4400, -47.755
1566.4600, -47.772
1566.4800, -47.793
1566.5000, -47.811
1566.5200, -47.835
1566.5400, -47.851
1566.5600, -47.874
1566.5800, -47.893
1566.6000, -47.910
1566.6200, -47.928
1566.6400, -47.953
1566.6600, -47.970
1566.6800, -47.987
1566.7000, -48.012
1566.7200, -48.024
1566.7400, -48.049
1566.7600, -48.070
1566.7800, -48.088
1566.8000, -48.108
1566.8200, -48.129
1566.8400, -48.146
1566.8600, -48.163
1566.8800, -48.183
1566.9000, -48.205
1566.9200, -48.226
1566.9400, -48.237
1566.9600, -48.265
1566.9800, -48.287
1567.0000, -48.304
1567.0200, -48.318
1567.0400, -48.346
1567.0600, -48.365
1567.0800, -48.389
1567.1000, -48.410
1567.1200, -48.428
1567.1400, -48.439
1567.1600, -48.461
1567.1800, -48.483
1567.2000, -48.506
1567.2200, -48.525
1567.2400, -48.548
1567.2600, -48.572
1567.2800, -48.587
1567.3000, -48.607
1567.3200, -48.623
1567.3400, -48.649
1567.3600, -48.666
1567.3800, -48.689
1567.4000, -48.705
1567.4200, -48.727
1567.4400, -48.745
1567.4600, -48.762
1567.4800, -48.785
1567.5000, -48.805
1567.5200, -48.830
1567.5400, -48.847
1567.5600, -48.865
1567.5800, -48.883
1567.6000, -48.905
1567.6200, -48.930
1567.6400, -48.945
1567.6600, -48.967
1567.6800, -48.988
1567.7000, -49.008
1567.7200, -49.028
1567.7400, -49.050
1567.7600, -49.063
1567.7800, -49.087
1567.8000, -49.106
1567.8200, -49.124
1567.8400, -49.145
1567.8600, -49.163
1567.8800, -49.188
1567.9000, -49.206
1567.9200, -49.227
1567.9400, -49.248
1567.9600, -49.262
1567.9800, -49.284
1568.0000, -49.301
1568.0200, -49.319
1568.0400, -49.340
1568.0600, -49.360
1568.0800, -49.380
1568.1000, -49.399
1568.1200, -49.420
1568.1400, -49.439
1568.1600, -49.457
1568.1800, -49.480
1568.2000, -49.498
1568.2200, -49.516
1568.2400, -49.539
1568.2600, -49.560
1568.2800, -49.581
1568.3000, -49.601
1568.3200, -49.611
1568.3400, -49.638
1568.3600, -49.654
1568.3800, -49.680
1568.4000, -49.699
1568.4200, -49.714
1568.4400, -49.736
1568.4600, -49.756
1568.4800, -49.778
1568.5000, -49.798
1568.5200, -49.816
1568.5400, -49.832
1568.5600, -49.853
1568.5800, -49.870
1568.6000, -49.891
1568.6200, -49.908
1568.6400, -49.933
1568.6600, -49.959
1568.6800, -49.972
1568.7000, -49.991
1568.7200, -50.013
1568.7400, -50.025
1568.7600, -50.053
1568.7800, -50.072
1568.8000, -50.092
1568.8200, -50.111
1568.8400, -50.130
1568.8600, -50.148
1568.8800, -50.164
1568.9000, -50.186
1568.9200, -50.205
1568.9400, -50.223
1568.9600, -50.246
1568.9800, -50.267
1569.0000, -50.281
1569.0200, -50.300
1569.0400, -50.323
1569.0600, -50.341
1569.0800, -50.363
1569.1000, -50.383
1569.1200, -50.399
1569.1400, -50.424
1569.1600, -50.443
1569.1800, -50.459
1569.2000, -50.486
1569.2200, -50.497
1569.2400, -50.517
1569.2600, -50.540
1569.2800, -50.558
1569.3000, -50.576
1569.3200, -50.593
1569.3400, -50.608
1569.3600, -50.631
1569.3800, -50.657
1569.4000, -50.669
1569.4200, -50.685
1569.4400, -50.705
1569.4600, -50.728
1569.4800, -50.745
1569.5000, -50.761
1569.5200, -50.784
1569.5400, -50.797
1569.5600, -50.817
1569.5800, -50.839
1569.6000, -50.857
1569.6200, -50.874
1569.6400, -50.898
1569.6600, -50.918
1569.6800, -50.941
1569.7000, -50.960
1569.7200, -50.976
1569.7400, -50.992
1569.7600, -51.010
1569.7800, -51.032
1569.8000, -51.049
1569.8200, -51.069
1569.8400, -51.086
1569.8600, -51.108
1569.8800, -51.124
1569.9000, -51.139
1569.9200, -51.158
1569.9400, -51.182
1569.9600, -51.204
1569.9800, -51.218
1570.0000, -51.234
1570.0200, -51.257
1570.0400, -51.274
1570.0600, -51.293
1570.0800, -51.315
1570.1000, -51.330
1570.1200, -51.349
1570.1400, -51.371
1570.1600, -51.388
1570.1800, -51.401
1570.2000, -51.425
1570.2200, -51.439
1570.2400, -51.465
1570.2600, -51.487
1570.2800, -51.500
1570.3000, -51.521
1570.3200, -51.535
1570.3400, -51.558
1570.3600, -51.575
1570.3800, -51.588
1570.4000, -51.607
1570.4200, -51.628
1570.4400, -51.644
1570.4600, -51.668
1570.4800, -51.675
1570.5000, -51.699
1570.5200, -51.721
1570.5400, -51.737
1570.5600, -51.760
1570.5800, -51.778
1570.6000, -51.793
1570.6200, -51.810
1570.6400, -51.825
1570.6600, -51.854
1570.6800, -51.869
1570.7000, -51.885
1570.7200, -51.904
1570.7400, -51.927
1570.7600, -51.943
1570.7800, -51.960
1570.8000, -51.980
1570.8200, -52.002
1570.8400, -52.019
1570.8600, -52.033
1570.8800, -52.061
1570.9000, -52.073
1570.9200, -52.089
1570.9400, -52.109
1570.9600, -52.126
1570.9800, -52.142
1571.0000, -52.165
1571.0200, -52.178
1571.0400, -52.203
1571.0600, -52.211
1571.0800, -52.226
1571.1000, -52.252
1571.1200, -52.266
1571.1400, -52.286
1571.1600, -52.304
1571.1800, -52.320
1571.2000, -52.339
1571.2200, -52.354
1571.2400, -52.377
1571.2600, -52.391
1571.2800, -52.408
1571.3000, -52.429
1571.3200, -52.451
1571.3400, -52.469
1571.3600, -52.487
1571.3800, -52.506
1571.4000, -52.514
1571.4200, -52.539
1571.4400, -52.556
1571.4600, -52.579
1571.4800, -52.593
1571.5000, -52.617
1571.5200, -52.631
1571.5400, -52.650
1571.5600, -52.666
1571.5800, -52.687
1571.6000, -52.699
1571.6200, -52.719
1571.6400, -52.735
1571.6600, -52.755
1571.6800, -52.768
1571.7000, -52.795
1571.7200, -52.806
1571.7400, -52.828
1571.7600, -52.838
1571.7800, -52.861
1571.8000, -52.876
1571.8200, -52.892
1571.8400, -52.914
1571.8600, -52.922
1571.8800, -52.947
1571.9000, -52.957
1571.9200, -52.978
1571.9400, -52.995
1571.9600, -53.019
1571.9800, -53.029
1572.0000, -53.052
1572.0200, -53.066
1572.0400, -53.084
1572.0600, -53.102
1572.0800, -53.126
1572.1000, -53.132
1572.1200, -53.151
1572.1400, -53.173
1572.1600, -53.187
1572.1800, -53.202
1572.2000, -53.222
1572.2200, -53.232
1572.2400, -53.253
1572.2600, -53.271
1572.2800, -53.289
1572.3000, -53.302
1572.3200, -53.326
1572.3400, -53.336
1572.3600, -53.352
1572.3800, -53.372
1572.4000, -53.385
1572.4200, -53.410
1572.4400, -53.421
1572.4600, -53.439
1572.4800, -53.451
1572.5000, -53.467
1572.5200, -53.497
1572.5400, -53.507
1572.5600, -53.519
1572.5800, -53.549
1572.6000, -53.560
1572.6200, -53.571
1572.6400, -53.592
1572.6600, -53.607
1572.6800, -53.612
1572.7000, -53.637
1572.7200, -53.651
1572.7400, -53.663
1572.7600, -53.681
1572.7800, -53.698
1572.8000, -53.721
1572.8200, -53.736
1572.8400, -53.757
1572.8600, -53.767
1572.8800, -53.778
1572.9000, -53.801
1572.9200, -53.817
1572.9400, -53.829
1572.9600, -53.850
1572.9800, -53.869
1573.0000, -53.875
1573.0200, -53.902
1573.0400, -53.909
1573.0600, -53.930
1573.0800, -53.947
1573.1000, -53.962
1573.1200, -53.973
1573.1400, -53.998
1573.1600, -54.010
1573.1800, -54.027
1573.2000, -54.035
1573.2200, -54.061
1573.2400, -54.071
1573.2600, -54.090
1573.2800, -54.110
1573.3000, -54.121
1573.3200, -54.140
1573.3400, -54.154
1573.3600, -54.158
1573.3800, -54.182
1573.4000, -54.198
1573.4200, -54.223
1573.4400, -54.226
1573.4600, -54.241
1573.4800, -54.264
1573.5000, -54.275
1573.5200, -54.292
1573.5400, -54.310
1573.5600, -54.319
1573.5800, -54.336
1573.6000, -54.359
1573.6200, -54.374
1573.6400, -54.399
1573.6600, -54.393
1573.6800, -54.421
1573.7000, -54.431
1573.7200, -54.455
1573.7400, -54.469
1573.7600, -54.475
1573.7800, -54.502
1573.8000, -54.502
1573.8200, -54.519
1573.8400, -54.535
1573.8600, -54.547
1573.8800, -54.569
1573.9000, -54.581
1573.9200, -54.600
1573.9400, -54.619
1573.9600, -54.627
1573.9800, -54.645
1574.0000, -54.664
1574.0200, -54.669
1574.0400, -54.684
1574.0600, -54.707
1574.0800, -54.725
1574.1000, -54.736
1574.1200, -54.745
1574.1400, -54.757
1574.1600, -54.782
1574.1800, -54.790
1574.2000, -54.808
1574.2200, -54.821
1574.2400, -54.841
1574.2600, -54.855
1574.2800, -54.861
1574.3000, -54.887
1574.3200, -54.892
1574.3400, -54.908
1574.3600, -54.925
1574.3800, -54.950
1574.4000, -54.951
1574.4200, -54.968
1574.4400, -54.983
1574.4600, -54.996
1574.4800, -55.010
1574.5000, -55.028
1574.5200, -55.044
1574.5400, -55.057
1574.5600, -55.065
1574.5800, -55.100
1574.6000, -55.092
1574.6200, -55.128
1574.6400, -55.124
1574.6600, -55.146
1574.6800, -55.164
1574.7000, -55.165
1574.7200, -55.189
1574.7400, -55.199
1574.7600, -55.224
1574.7800, -55.219
1574.8000, -55.250
1574.8200, -55.257
1574.8400, -55.273
1574.8600, -55.285
1574.8800, -55.296
1574.9000, -55.313
1574.9200, -55.324
1574.9400, -55.354
1574.9600, -55.356
1574.9800, -55.358
1575.0000, -55.386
1575.0200, -55.395
1575.0400, -55.406
1575.0600, -55.426
1575.0800, -55.437
1575.1000, -55.460
1575.1200, -55.468
1575.1400, -55.482
1575.1600, -55.504
1575.1800, -55.515
1575.2000, -55.519
1575.2200, -55.549
1575.2400, -55.559
1575.2600, -55.559
1575.2800, -55.582
1575.3000, -55.593
1575.3200, -55.603
1575.3400, -55.617
1575.3600, -55.629
1575.3800, -55.641
1575.4000, -55.660
1575.4200, -55.679
1575.4400, -55.684
1575.4600, -55.702
1575.4800, -55.710
1575.5000, -55.725
1575.5200, -55.747
1575.5400, -55.753
1575.5600, -55.770
1575.5800, -55.775
1575.6000, -55.791
1575.6200, -55.809
1575.6400, -55.807
1575.6600, -55.826
1575.6800, -55.849
1575.7000, -55.859
1575.7200, -55.865
1575.7400, -55.888
1575.7600, -55.897
1575.7800, -55.908
1575.8000, -55.918
1575.8200, -55.946
1575.8400, -55.939
1575.8600, -55.964
1575.8800, -55.982
1575.9000, -55.993
1575.9200, -56.004
1575.9400, -56.007
1575.9600, -56.031
1575.9800, -56.045
1576.0000, -56.062
1576.0200, -56.060
1576.0400, -56.081
1576.0600, -56.097
1576.0800, -56.117
1576.1000, -56.118
1576.1200, -56.129
1576.1400, -56.145
1576.1600, -56.166
1576.1800, -56.164
1576.2000, -56.180
1576.2200, -56.195
1576.2400, -56.200
1576.2600, -56.212
1576.2800, -56.246
1576.3000, -56.247
1576.3200, -56.246
1576.3400, -56.271
1576.3600, -56.270
1576.3800, -56.295
1576.4000, -56.294
1576.4200, -56.318
1576.4400, -56.326
1576.4600, -56.325
1576.4800, -56.351
1576.5000, -56.357
1576.5200, -56.370
1576.5400, -56.400
1576.5600, -56.389
1576.5800, -56.403
1576.6000, -56.422
1576.6200, -56.434
1576.6400, -56.438
1576.6600, -56.461
1576.6800, -56.480
1576.7000, -56.475
1576.7200, -56.493
1576.7400, -56.506
1576.7600, -56.517
1576.7800, -56.546
1576.8000, -56.533
1576.8200, -56.553
1576.8400, -56.563
1576.8600, -56.575
1576.8800, -56.597
1576.9000, -56.596
1576.9200, -56.598
1576.9400, -56.621
1576.9600, -56.627
1576.9800, -56.646
1577.0000, -56.653
1577.0200, -56.667
1577.0400, -56.683
1577.0600, -56.675
1577.0800, -56.698
1577.1000, -56.713
1577.1200, -56.723
1577.1400, -56.735
1577.1600, -56.749
1577.1800, -56.749
1577.2000, -56.764
1577.2200, -56.783
1577.2400, -56.778
1577.2600, -56.806
1577.2800, -56.804
1577.3000, -56.813
1577.3200, -56.835
1577.3400, -56.843
1577.3600, -56.862
1577.3800, -56.869
1577.4000, -56.881
1577.4200, -56.891
1577.4400, -56.904
1577.4600, -56.912
1577.4800, -56.921
1577.5000, -56.954
1577.5200, -56.936
1577.5400, -56.960
1577.5600, -56.960
1577.5800, -56.991
1577.6000, -56.989
1577.6200, -56.997
1577.6400, -57.008
1577.6600, -57.023
1577.6800, -57.051
1577.7000, -57.046
1577.7200, -57.061
1577.7400, -57.066
1577.7600, -57.079
1577.7800, -57.099
1577.8000, -57.106
1577.8200, -57.099
1577.8400, -57.124
1577.8600, -57.128
1577.8800, -57.136
1577.9000, -57.163
1577.9200, -57.160
1577.9400, -57.178
1577.9600, -57.202
1577.9800, -57.197
1578.0000, -57.211
1578.0200, -57.206
1578.0400, -57.226
1578.0600, -57.241
1578.0800, -57.253
1578.1000, -57.263
1578.1200, -57.275
1578.1400, -57.278
1578.1600, -57.287
1578.1800, -57.293
1578.2000, -57.312
1578.2200, -57.311
1578.2400, -57.338
1578.2600, -57.330
1578.2800, -57.359
1578.3000, -57.355
1578.3200, -57.375
1578.3400, -57.396
1578.3600, -57.388
1578.3800, -57.400
1578.4000, -57.408
1578.4200, -57.434
1578.4400, -57.425
1578.4600, -57.436
1578.4800, -57.447
1578.5000, -57.463
1578.5200, -57.473
1578.5400, -57.496
1578.5600, -57.496
1578.5800, -57.504
1578.6000, -57.522
1578.6200, -57.526
1578.6400, -57.540
1578.6600, -57.546
1578.6800, -57.556
1578.7000, -57.565
1578.7200, -57.577
1578.7400, -57.577
1578.7600, -57.590
1578.7800, -57.599
1578.8000, -57.620
1578.8200, -57.629
1578.8400, -57.635
1578.8600, -57.654
1578.8800, -57.643
1578.9000, -57.666
1578.9200, -57.680
1578.9400, -57.689
1578.9600, -57.693
1578.9800, -57.712
1579.0000, -57.719
1579.0200, -57.718
1579.0400, -57.722
1579.0600, -57.739
1579.0800, -57.755
1579.1000, -57.760
1579.1200, -57.776
1579.1400, -57.760
1579.1600, -57.791
1579.1800, -57.800
1579.2000, -57.822
1579.2200, -57.803
1579.2400, -57.824
1579.2600, -57.839
1579.2800, -57.859
1579.3000, -57.854
1579.3200, -57.862
1579.3400, -57.873
1579.3600, -57.880
1579.3800, -57.884
1579.4000, -57.910
1579.4200, -57.903
1579.4400, -57.924
1579.4600, -57.939
1579.4800, -57.935
1579.5000, -57.947
1579.5200, -57.958
1579.5400, -57.974
1579.5600, -57.985
1579.5800, -57.985
1579.6000, -58.000
1579.6200, -58.005
1579.6400, -58.018
1579.6600, -58.030
1579.6800, -58.027
1579.7000, -58.039
1579.7200, -58.049
1579.7400, -58.058
1579.7600, -58.071
1579.7800, -58.090
1579.8000, -58.098
1579.8200, -58.093
1579.8400, -58.095
1579.8600, -58.115
1579.8800, -58.124
1579.9000, -58.128
1579.9200, -58.134
1579.9400, -58.159
1579.9600, -58.162
1579.9800, -58.162
1580.0000, -58.174
1580.0200, -58.175
1580.0400, -58.191
1580.0600, -58.200
1580.0800, -58.204
1580.1000, -58.223
1580.1200, -58.224
1580.1400, -58.233
1580.1600, -58.233
1580.1800, -58.274
1580.2000, -58.267
1580.2200, -58.262
1580.2400, -58.265
1580.2600, -58.290
1580.2800, -58.277
1580.3000, -58.293
1580.3200, -58.302
1580.3400, -58.330
1580.3600, -58.319
1580.3800, -58.342
1580.4000, -58.347
1580.4200, -58.354
1580.4400, -58.357
1580.4600, -58.375
1580.4800, -58.380
1580.5000, -58.383
1580.5200, -58.383
1580.5400, -58.416
1580.5600, -58.417
1580.5800, -58.412
1580.6000, -58.420
1580.6200, -58.441
1580.6400, -58.464
1580.6600, -58.459
1580.6800, -58.439
1580.7000, -58.475
1580.7200, -58.477
1580.7400, -58.469
1580.7600, -58.519
1580.7800, -58.495
1580.8000, -58.498
1580.8200, -58.515
1580.8400, -58.514
1580.8600, -58.543
1580.8800, -58.519
1580.9000, -58.534
1580.9200, -58.560
1580.9400, -58.578
1580.9600, -58.564
1580.9800, -58.576
1581.0000, -58.567
1581.0200, -58.601
1581.0400, -58.609
1581.0600, -58.602
1581.0800, -58.619
1581.1000, -58.635
1581.1200, -58.628
1581.1400, -58.638
1581.1600, -58.648
1581.1800, -58.651
1581.2000, -58.670
1581.2200, -58.677
1581.2400, -58.693
1581.2600, -58.690
1581.2800, -58.701
1581.3000, -58.700
1581.3200, -58.699
1581.3400, -58.719
1581.3600, -58.728
1581.3800, -58.728
1581.4000, -58.747
1581.4200, -58.747
1581.4400, -58.747
1581.4600, -58.763
1581.4800, -58.775
1581.5000, -58.780
1581.5200, -58.779
1581.5400, -58.779
1581.5600, -58.808
1581.5800, -58.808
1581.6000, -58.814
1581.6200, -58.826
1581.6400, -58.821
1581.6600, -58.827
1581.6800, -58.850
1581.7000, -58.854
1581.7200, -58.857
1581.7400, -58.849
1581.7600, -58.911
1581.7800, -58.855
1581.8000, -58.910
1581.8200, -58.897
1581.8400, -58.908
1581.8600, -58.901
1581.8800, -58.905
1581.9000, -58.916
1581.9200, -58.935
1581.9400, -58.944
1581.9600, -58.951
1581.9800, -58.947
1582.0000, -58.957
1582.0200, -58.972
1582.0400, -58.980
1582.0600, -58.987
1582.0800, -58.994
1582.1000, -59.013
1582.1200, -59.008
1582.1400, -59.002
1582.1600, -59.025
1582.1800, -59.012
1582.2000, -59.037
1582.2200, -59.042
1582.2400, -59.037
1582.2600, -59.048
1582.2800, -59.065
1582.3000, -59.075
1582.3200, -59.081
1582.3400, -59.086
1582.3600, -59.097
1582.3800, -59.098
1582.4000, -59.116
1582.4200, -59.092
1582.4400, -59.105
1582.4600, -59.126
1582.4800, -59.123
1582.5000, -59.148
1582.5200, -59.134
1582.5400, -59.140
1582.5600, -59.171
1582.5800, -59.173
1582.6000, -59.170
1582.6200, -59.176
1582.6400, -59.188
1582.6600, -59.188
1582.6800, -59.197
1582.7000, -59.214
1582.7200, -59.242
1582.7400, -59.205
1582.7600, -59.246
1582.7800, -59.225
1582.8000, -59.247
1582.8200, -59.265
1582.8400, -59.255
1582.8600, -59.247
1582.8800, -59.256
1582.9000, -59.260
1582.9200, -59.287
1582.9400, -59.287
1582.9600, -59.307
1582.9800, -59.303
1583.0000, -59.311
1583.0200, -59.308
1583.0400, -59.315
1583.0600, -59.347
1583.0800, -59.319
1583.1000, -59.334
1583.1200, -59.350
1583.1400, -59.359
1583.1600, -59.359
1583.1800, -59.370
1583.2000, -59.367
1583.2200, -59.388
1583.2400, -59.396
1583.2600, -59.396
1583.2800, -59.390
1583.3000, -59.408
1583.3200, -59.404
1583.3400, -59.426
1583.3600, -59.428
1583.3800, -59.423
1583.4000, -59.428
1583.4200, -59.442
1583.4400, -59.451
1583.4600, -59.454
1583.4800, -59.497
1583.5000, -59.456
1583.5200, -59.484
1583.5400, -59.499
1583.5600, -59.470
1583.5800, -59.502
1583.6000, -59.499
1583.6200, -59.503
1583.6400, -59.516
1583.6600, -59.521
1583.6800, -59.535
1583.7000, -59.536
1583.7200, -59.533
1583.7400, -59.533
1583.7600, -59.567
1583.7800, -59.560
1583.8000, -59.582
1583.8200, -59.565
1583.8400, -59.591
1583.8600, -59.581
1583.8800, -59.579
1583.9000, -59.612
1583.9200, -59.599
1583.9400, -59.630
1583.9600, -59.615
1583.9800, -59.591
1584.0000, -59.627
1584.0200, -59.635
1584.0400, -59.643
1584.0600, -59.638
1584.0800, -59.639
1584.1000, -59.644
1584.1200, -59.662
1584.1400, -59.665
1584.1600, -59.677
1584.1800, -59.685
1584.2000, -59.680
1584.2200, -59.718
1584.2400, -59.682
1584.2600, -59.694
1584.2800, -59.719
1584.3000, -59.693
1584.3200, -59.738
1584.3400, -59.719
1584.3600, -59.739
1584.3800, -59.743
1584.4000, -59.736
1584.4200, -59.795
1584.4400, -59.747
1584.4600, -59.762
1584.4800, -59.760
1584.5000, -59.760
1584.5200, -59.786
1584.5400, -59.776
1584.5600, -59.804
1584.5800, -59.772
1584.6000, -59.800
1584.6200, -59.804
1584.6400, -59.838
1584.6600, -59.829
1584.6800, -59.831
1584.7000, -59.836
1584.7200, -59.839
1584.7400, -59.855
1584.7600, -59.854
1584.7800, -59.852
1584.8000, -59.842
1584.8200, -59.866
1584.8400, -59.886
1584.8600, -59.844
1584.8800, -59.901
1584.9000, -59.895
1584.9200, -59.903
1584.9400, -59.879
1584.9600, -59.927
1584.9800, -59.900
1585.0000, -59.882
1585.0200, -59.905
1585.0400, -59.947
1585.0600, -59.921
1585.0800, -59.946
1585.1000, -59.938
1585.1200, -59.962
1585.1400, -59.966
1585.1600, -59.951
1585.1800, -59.950
1585.2000, -59.985
1585.2200, -59.961
1585.2400, -59.976
1585.2600, -59.994
1585.2800, -60.016
1585.3000, -59.974
1585.3200, -60.011
1585.3400, -60.027
1585.3600, -60.002
1585.3800, -60.015
1585.4000, -60.019
1585.4200, -60.045
1585.4400, -60.053
1585.4600, -60.041
1585.4800, -60.058
1585.5000, -60.046
1585.5200, -60.028
1585.5400, -60.051
1585.5600, -60.055
1585.5800, -60.106
1585.6000, -60.048
1585.6200, -60.082
1585.6400, -60.115
1585.6600, -60.058
1585.6800, -60.106
1585.7000, -60.089
1585.7200, -60.108
1585.7400, -60.079
1585.7600, -60.118
1585.7800, -60.126
1585.8000, -60.128
1585.8200, -60.128
1585.8400, -60.172
1585.8600, -60.128
1585.8800, -60.148
1585.9000, -60.113
1585.9200, -60.157
1585.9400, -60.160
1585.9600, -60.170
1585.9800, -60.147
1586.0000, -60.180
1586.0200, -60.189
1586.0400, -60.191
1586.0600, -60.190
1586.0800, -60.219
1586.1000, -60.196
1586.1200, -60.218
1586.1400, -60.211
1586.1600, -60.209
1586.1800, -60.246
1586.2000, -60.212
1586.2200, -60.255
1586.2400, -60.236
1586.2600, -60.224
1586.2800, -60.234
1586.3000, -60.272
1586.3200, -60.250
1586.3400, -60.261
1586.3600, -60.275
1586.3800, -60.256
1586.4000, -60.270
1586.4200, -60.311
1586.4400, -60.281
1586.4600, -60.276
1586.4800, -60.306
1586.5000, -60.308
1586.5200, -60.338
1586.5400, -60.322
1586.5600, -60.325
1586.5800, -60.327
1586.6000, -60.309
1586.6200, -60.334
1586.6400, -60.358
1586.6600, -60.332
1586.6800, -60.337
1586.7000, -60.354
1586.7200, -60.378
1586.7400, -60.360
1586.7600, -60.349
1586.7800, -60.370
1586.8000, -60.401
1586.8200, -60.373
1586.8400, -60.402
1586.8600, -60.403
1586.8800, -60.400
1586.9000, -60.397
1586.9200, -60.413
1586.9400, -60.404
1586.9600, -60.428
1586.9800, -60.435
1587.0000, -60.433
1587.0200, -60.447
1587.0400, -60.450
1587.0600, -60.446
1587.0800, -60.455
1587.1000, -60.460
1587.1200, -60.459
1587.1400, -60.483
1587.1600, -60.475
1587.1800, -60.482
1587.2000, -60.475
1587.2200, -60.478
1587.2400, -60.500
1587.2600, -60.500
1587.2800, -60.504
1587.3000, -60.514
1587.3200, -60.499
1587.3400, -60.553
1587.3600, -60.532
1587.3800, -60.489
1587.4000, -60.539
1587.4200, -60.550
1587.4400, -60.546
1587.4600, -60.558
1587.4800, -60.584
1587.5000, -60.541
1587.5200, -60.541
1587.5400, -60.580
1587.5600, -60.569
1587.5800, -60.580
1587.6000, -60.575
1587.6200, -60.585
1587.6400, -60.581
1587.6600, -60.598
1587.6800, -60.607
1587.7000, -60.609
1587.7200, -60.610
1587.7400, -60.616
1587.7600, -60.628
1587.7800, -60.638
1587.8000, -60.609
1587.8200, -60.639
1587.8400, -60.633
1587.8600, -60.644
1587.8800, -60.677
1587.9000, -60.640
1587.9200, -60.656
1587.9400, -60.687
1587.9600, -60.668
1587.9800, -60.661
1588.0000, -60.686
1588.0200, -60.693
1588.0400, -60.683
1588.0600, -60.703
1588.0800, -60.714
1588.1000, -60.709
1588.1200, -60.700
1588.1400, -60.690
1588.1600, -60.754
1588.1800, -60.748
1588.2000, -60.691
1588.2200, -60.725
1588.2400, -60.709
1588.2600, -60.787
1588.2800, -60.731
1588.3000, -60.722
1588.3200, -60.756
1588.3400, -60.733
1588.3600, -60.769
1588.3800, -60.759
1588.4000, -60.787
1588.4200, -60.765
1588.4400, -60.791
1588.4600, -60.782
1588.4800, -60.783
1588.5000, -60.795
1588.5200, -60.789
1588.5400, -60.805
1588.5600, -60.809
1588.5800, -60.800
1588.6000, -60.805
1588.6200, -60.814
1588.6400, -60.859
1588.6600, -60.840
1588.6800, -60.842
1588.7000, -60.847
1588.7200, -60.836
1588.7400, -60.871
1588.7600, -60.857
1588.7800, -60.838
1588.8000, -60.876
1588.8200, -60.861
1588.8400, -60.884
1588.8600, -60.863
1588.8800, -60.881
1588.9000, -60.877
1588.9200, -60.901
1588.9400, -60.899
1588.9600, -60.906
1588.9800, -60.880
1589.0000, -60.902
1589.0200, -60.897
1589.0400, -60.922
1589.0600, -60.917
1589.0800, -60.893
1589.1000, -60.956
1589.1200, -60.919
1589.1400, -60.932
1589.1600, -60.959
1589.1800, -60.947
1589.2000, -60.959
1589.2200, -60.922
1589.2400, -60.943
1589.2600, -60.982
1589.2800, -60.970
1589.3000, -60.966
1589.3200, -60.973
1589.3400, -60.948
1589.3600, -61.005
1589.3800, -60.978
1589.4000, -60.995
1589.4200, -61.028
1589.4400, -60.988
1589.4600, -61.026
1589.4800, -60.995
1589.5000, -61.000
1589.5200, -61.066
1589.5400, -61.003
1589.5600, -61.053
1589.5800, -61.052
1589.6000, -61.009
1589.6200, -61.046
1589.6400, -61.066
1589.6600, -61.036
1589.6800, -61.069
1589.7000, -61.017
1589.7200, -61.076
1589.7400, -61.049
1589.7600, -61.065
1589.7800, -61.078
1589.8000, -61.090
1589.8200, -61.092
1589.8400, -61.094
1589.8600, -61.095
1589.8800, -61.085
1589.9000, -61.096
1589.9200, -61.095
1589.9400, -61.136
1589.9600, -61.078
1589.9800, -61.098
1590.0000, -61.135
1590.0200, -61.129
1590.0400, -61.141
1590.0600, -61.130
1590.0800, -61.166
1590.1000, -61.144
1590.1200, -61.152
1590.1400, -61.141
1590.1600, -61.209
1590.1800, -61.108
1590.2000, -61.178
1590.2200, -61.206
1590.2400, -61.181
1590.2600, -61.156
1590.2800, -61.203
1590.3000, -61.174
1590.3200, -61.205
1590.3400, -61.194
1590.3600, -61.211
1590.3800, -61.237
1590.4000, -61.213
1590.4200, -61.217
1590.4400, -61.229
1590.4600, -61.231
1590.4800, -61.245
1590.5000, -61.217
1590.5200, -61.247
1590.5400, -61.222
1590.5600, -61.274
1590.5800, -61.246
1590.6000, -61.223
1590.6200, -61.276
1590.6400, -61.263
1590.6600, -61.260
1590.6800, -61.289
1590.7000, -61.273
1590.7200, -61.279
1590.7400, -61.296
1590.7600, -61.280
1590.7800, -61.301
1590.8000, -61.338
1590.8200, -61.319
1590.8400, -61.284
1590.8600, -61.310
1590.8800, -61.303
1590.9000, -61.331
1590.9200, -61.327
1590.9400, -61.343
1590.9600, -61.341
1590.9800, -61.342
1591.0000, -61.359
1591.0200, -61.341
1591.0400, -61.351
1591.0600, -61.365
1591.0800, -61.362
1591.1000, -61.352
1591.1200, -61.382
1591.1400, -61.430
1591.1600, -61.379
1591.1800, -61.414
1591.2000, -61.363
1591.2200, -61.396
1591.2400, -61.385
1591.2600, -61.412
1591.2800, -61.405
1591.3000, -61.390
1591.3200, -61.408
1591.3400, -61.435
1591.3600, -61.416
1591.3800, -61.433
1591.4000, -61.474
1591.4200, -61.412
1591.4400, -61.383
1591.4600, -61.485
1591.4800, -61.433
1591.5000, -61.438
1591.5200, -61.496
1591.5400, -61.457
1591.5600, -61.477
1591.5800, -61.466
1591.6000, -61.492
1591.6200, -61.477
1591.6400, -61.495
1591.6600, -61.491
1591.6800, -61.481
1591.7000, -61.465
1591.7200, -61.498
1591.7400, -61.530
1591.7600, -61.488
1591.7800, -61.531
1591.8000, -61.526
1591.8200, -61.515
1591.8400, -61.561
1591.8600, -61.556
1591.8800, -61.534
1591.9000, -61.565
1591.9200, -61.584
1591.9400, -61.575
1591.9600, -61.549
1591.9800, -61.550
1592.0000, -61.537
1592.0200, -61.591
1592.0400, -61.622
1592.0600, -61.589
1592.0800, -61.582
1592.1000, -61.566
1592.1200, -61.581
1592.1400, -61.576
1592.1600, -61.637
1592.1800, -61.578
1592.2000, -61.619
1592.2200, -61.654
1592.2400, -61.645
1592.2600, -61.610
1592.2800, -61.650
1592.3000, -61.633
1592.3200, -61.605
1592.3400, -61.627
1592.3600, -61.659
1592.3800, -61.652
1592.4000, -61.646
1592.4200, -61.595
1592.4400, -61.671
1592.4600, -61.642
1592.4800, -61.673
1592.5000, -61.705
1592.5200, -61.672
1592.5400, -61.641
1592.5600, -61.761
1592.5800, -61.670
1592.6000, -61.711
1592.6200, -61.695
1592.6400, -61.685
1592.6600, -61.696
1592.6800, -61.712
1592.7000, -61.712
1592.7200, -61.708
1592.7400, -61.730
1592.7600, -61.740
1592.7800, -61.703
1592.8000, -61.715
1592.8200, -61.785
1592.8400, -61.702
1592.8600, -61.760
1592.8800, -61.719
1592.9000, -61.776
1592.9200, -61.762
1592.9400, -61.768
1592.9600, -61.839
1592.9800, -61.747
1593.0000, -61.796
1593.0200, -61.743
1593.0400, -61.792
1593.0600, -61.790
1593.0800, -61.765
1593.1000, -61.816
1593.1200, -61.806
1593.1400, -61.807
1593.1600, -61.808
1593.1800, -61.810
1593.2000, -61.838
1593.2200, -61.850
1593.2400, -61.816
1593.2600, -61.851
1593.2800, -61.822
1593.3000, -61.840
1593.3200, -61.860
1593.3400, -61.817
1593.3600, -61.842
1593.3800, -61.867
1593.4000, -61.863
1593.4200, -61.851
1593.4400, -61.915
1593.4600, -61.824
1593.4800, -61.865
1593.5000, -61.888
1593.5200, -61.885
1593.5400, -61.859
1593.5600, -61.925
1593.5800, -61.872
1593.6000, -61.901
1593.6200, -61.868
1593.6400, -61.909
1593.6600, -61.916
1593.6800, -61.902
1593.7000, -61.930
1593.7200, -61.917
1593.7400, -61.915
1593.7600, -61.979
1593.7800, -61.915
1593.8000, -61.926
1593.8200, -61.960
1593.8400, -61.950
1593.8600, -61.931
1593.8800, -61.924
1593.9000, -61.945
1593.9200, -61.987
1593.9400, -61.924
1593.9600, -61.960
1593.9800, -61.997
1594.0000, -61.961
1594.0200, -61.989
1594.0400, -62.011
1594.0600, -61.988
1594.0800, -61.995
1594.1000, -62.008
1594.1200, -62.033
1594.1400, -62.014
1594.1600, -62.019
1594.1800, -62.025
1594.2000, -62.039
1594.2200, -62.028
1594.2400, -62.034
1594.2600, -62.026
1594.2800, -62.049
1594.3000, -62.045
1594.3200, -62.086
1594.3400, -62.028
1594.3600, -62.079
1594.3800, -62.059
1594.4000, -62.105
1594.4200, -62.057
1594.4400, -62.036
1594.4600, -62.094
1594.4800, -62.122
1594.5000, -62.040
1594.5200, -62.067
1594.5400, -62.146
1594.5600, -62.091
1594.5800, -62.140
1594.6000, -62.130
1594.6200, -62.034
1594.6400, -62.131
1594.6600, -62.108
1594.6800, -62.156
1594.7000, -62.144
1594.7200, -62.144
1594.7400, -62.124
1594.7600, -62.150
1594.7800, -62.106
1594.8000, -62.126
1594.8200, -62.182
1594.8400, -62.154
1594.8600, -62.175
1594.8800, -62.167
1594.9000, -62.175
1594.9200, -62.160
1594.9400, -62.192
1594.9600, -62.196
1594.9800, -62.189
1595.0000, -62.203
1595.0200, -62.170
1595.0400, -62.211
1595.0600, -62.205
1595.0800, -62.206
1595.1000, -62.235
1595.1200, -62.226
1595.1400, -62.236
1595.1600, -62.231
1595.1800, -62.243
1595.2000, -62.231
1595.2200, -62.235
1595.2400, -62.251
1595.2600, -62.241
1595.2800, -62.228
1595.3000, -62.273
1595.3200, -62.259
1595.3400, -62.292
1595.3600, -62.244
1595.3800, -62.229
1595.4000, -62.284
1595.4200, -62.239
1595.4400, -62.272
1595.4600, -62.310
1595.4800, -62.254
1595.5000, -62.285
1595.5200, -62.305
1595.5400, -62.302
1595.5600, -62.330
1595.5800, -62.346
1595.6000, -62.301
1595.6200, -62.313
1595.6400, -62.312
1595.6600, -62.298
1595.6800, -62.336
1595.7000, -62.359
1595.7200, -62.353
1595.7400, -62.380
1595.7600, -62.328
1595.7800, -62.356
1595.8000, -62.383
1595.8200, -62.348
1595.8400, -62.371
1595.8600, -62.364
1595.8800, -62.342
1595.9000, -62.398
1595.9200, -62.373
1595.9400, -62.363
1595.9600, -62.393
1595.9800, -62.428
1596.0000, -62.408
1596.0200, -62.390
1596.0400, -62.401
1596.0600, -62.387
1596.0800, -62.424
1596.1000, -62.416
1596.1200, -62.402
1596.1400, -62.447
1596.1600, -62.421
1596.1800, -62.476
1596.2000, -62.435
1596.2200, -62.435
1596.2400, -62.437
1596.2600, -62.487
1596.2800, -62.420
1596.3000, -62.486
1596.3200, -62.485
1596.3400, -62.463
1596.3600, -62.462
1596.3800, -62.482
1596.4000, -62.498
1596.4200, -62.533
1596.4400, -62.437
1596.4600, -62.456
1596.4800, -62.502
1596.5000, -62.496
1596.5200, -62.518
1596.5400, -62.514
1596.5600, -62.566
1596.5800, -62.548
1596.6000, -62.484
1596.6200, -62.551
1596.6400, -62.555
1596.6600, -62.525
1596.6800, -62.575
1596.7000, -62.592
1596.7200, -62.517
1596.7400, -62.534
1596.7600, -62.600
1596.7800, -62.614
1596.8000, -62.536
1596.8200, -62.616
1596.8400, -62.568
1596.8600, -62.576
1596.8800, -62.601
1596.9000, -62.599
1596.9200, -62.533
1596.9400, -62.609
1596.9600, -62.597
1596.9800, -62.611
1597.0000, -62.616
1597.0200, -62.603
1597.0400, -62.631
1597.0600, -62.616
1597.0800, -62.670
1597.1000, -62.538
1597.1200, -62.638
1597.1400, -62.675
1597.1600, -62.603
1597.1800, -62.661
1597.2000, -62.649
1597.2200, -62.654
1597.2400, -62.642
1597.2600, -62.666
1597.2800, -62.689
1597.3000, -62.656
1597.3200, -62.699
1597.3400, -62.673
1597.3600, -62.680
1597.3800, -62.673
1597.4000, -62.727
1597.4200, -62.671
1597.4400, -62.705
1597.4600, -62.715
1597.4800, -62.677
1597.5000, -62.680
1597.5200, -62.736
1597.5400, -62.695
1597.5600, -62.725
1597.5800, -62.720
1597.6000, -62.753
1597.6200, -62.751
1597.6400, -62.723
1597.6600, -62.737
1597.6800, -62.700
1597.7000, -62.769
1597.7200, -62.782
1597.7400, -62.761
1597.7600, -62.747
1597.7800, -62.734
1597.8000, -62.776
1597.8200, -62.785
1597.8400, -62.767
1597.8600, -62.778
1597.8800, -62.770
1597.9000, -62.811
1597.9200, -62.777
1597.9400, -62.804
1597.9600, -62.803
1597.9800, -62.815
1598.0000, -62.787
1598.0200, -62.837
1598.0400, -62.844
1598.0600, -62.808
1598.0800, -62.809
1598.1000, -62.829
1598.1200, -62.785
1598.1400, -62.919
1598.1600, -62.833
1598.1800, -62.851
1598.2000, -62.840
1598.2200, -62.859
1598.2400, -62.825
1598.2600, -62.851
1598.2800, -62.859
1598.3000, -62.838
1598.3200, -62.826
1598.3400, -62.903
1598.3600, -62.850
1598.3800, -62.883
1598.4000, -62.854
1598.4200, -62.932
1598.4400, -62.867
1598.4600, -62.890
1598.4800, -62.876
1598.5000, -62.892
1598.5200, -62.890
1598.5400, -62.931
1598.5600, -62.906
1598.5800, -62.976
1598.6000, -62.906
1598.6200, -62.912
1598.6400, -62.920
1598.6600, -62.965
1598.6800, -62.912
1598.7000, -62.957
1598.7200, -62.946
1598.7400, -62.909
1598.7600, -62.960
1598.7800, -62.950
1598.8000, -62.939
1598.8200, -62.982
1598.8400, -62.985
1598.8600, -62.953
1598.8800, -62.959
1598.9000, -63.025
1598.9200, -62.990
1598.9400, -62.943
1598.9600, -62.983
1598.9800, -63.079
1599.0000, -62.923
1599.0200, -63.026
1599.0400, -63.003
1599.0600, -63.039
1599.0800, -63.013
1599.1000, -63.051
1599.1200, -63.043
1599.1400, -63.061
1599.1600, -63.056
1599.1800, -62.996
1599.2000, -63.093
1599.2200, -62.996
1599.2400, -63.111
1599.2600, -63.082
1599.2800, -63.045
1599.3000, -62.979
1599.3200, -63.107
1599.3400, -63.061
1599.3600, -63.142
1599.3800, -63.106
1599.4000, -63.124
1599.4200, -63.104
1599.4400, -63.133
1599.4600, -63.099
1599.4800, -63.137
1599.5000, -63.110
1599.5200, -63.095
1599.5400, -63.145
1599.5600, -63.191
1599.5800, -63.163
1599.6000, -63.150
1599.6200, -63.119
1599.6400, -63.169
1599.6600, -63.133
1599.6800, -63.148
1599.7000, -63.143
1599.7200, -63.193
1599.7400, -63.189
1599.7600, -63.172
1599.7800, -63.195
1599.8000, -63.104
1599.8200, -63.156
1599.8400, -63.206
1599.8600, -63.182
1599.8800, -63.235
1599.9000, -63.242
1599.9200, -63.197
1599.9400, -63.193
1599.9600, -63.228
1599.9800, -63.205
1600.0000, -63.233
