70BCSV 	
// AQ6370B OPTICAL SPECTRUM ANALYZER //                 
25
"CTRWL",1550.000000
"SPAN", 100.000000
"START WL",1500.000000
"STOP WL",1600.000000
"WLFREQ", 0
"REFL",-28.8
"LSCL", 5.0
"RESLN",0.100
"AVG",   1
"SMPLAUTO",      0
"SMPL",       5001
"SMPLINTVL",0.0200
"HIGH1"
"MEAS"
"LSUNT",0
"NMSKH","OFF"
"RESCOR",0
"RESPARM", 9050
"FREQPARM", 9050






"[TRACE DATA]"
1500.0000, -61.991
1500.0200, -61.975
1500.0400, -61.939
1500.0600, -61.947
1500.0800, -61.927
1500.1000, -61.930
1500.1200, -61.948
1500.1400, -61.925
1500.1600, -61.904
1500.1800, -61.931
1500.2000, -61.963
1500.2200, -61.898
1500.2400, -61.927
1500.2600, -61.922
1500.2800, -61.905
1500.3000, -61.908
1500.3200, -61.893
1500.3400, -61.875
1500.3600, -61.865
1500.3800, -61.865
1500.4000, -61.873
1500.4200, -61.843
1500.4400, -61.865
1500.4600, -61.831
1500.4800, -61.817
1500.5000, -61.830
1500.5200, -61.809
1500.5400, -61.853
1500.5600, -61.818
1500.5800, -61.797
1500.6000, -61.777
1500.6200, -61.790
1500.6400, -61.765
1500.6600, -61.806
1500.6800, -61.789
1500.7000, -61.787
1500.7200, -61.810
1500.7400, -61.770
1500.7600, -61.775
1500.7800, -61.753
1500.8000, -61.753
1500.8200, -61.770
1500.8400, -61.730
1500.8600, -61.738
1500.8800, -61.743
1500.9000, -61.709
1500.9200, -61.757
1500.9400, -61.715
1500.9600, -61.691
1500.9800, -61.689
1501.0000, -61.690
1501.0200, -61.672
1501.0400, -61.672
1501.0600, -61.658
1501.0800, -61.687
1501.1000, -61.671
1501.1200, -61.628
1501.1400, -61.625
1501.1600, -61.634
1501.1800, -61.640
1501.2000, -61.656
1501.2200, -61.660
1501.2400, -61.648
1501.2600, -61.630
1501.2800, -61.600
1501.3000, -61.582
1501.3200, -61.631
1501.3400, -61.597
1501.3600, -61.589
1501.3800, -61.578
1501.4000, -61.602
1501.4200, -61.570
1501.4400, -61.592
1501.4600, -61.560
1501.4800, -61.548
1501.5000, -61.569
1501.5200, -61.517
1501.5400, -61.533
1501.5600, -61.537
1501.5800, -61.517
1501.6000, -61.513
1501.6200, -61.498
1501.6400, -61.504
1501.6600, -61.525
1501.6800, -61.472
1501.7000, -61.499
1501.7200, -61.494
1501.7400, -61.482
1501.7600, -61.472
1501.7800, -61.494
1501.8000, -61.461
1501.8200, -61.471
1501.8400, -61.457
1501.8600, -61.449
1501.8800, -61.460
1501.9000, -61.466
1501.9200, -61.446
1501.9400, -61.433
1501.9600, -61.415
1501.9800, -61.402
1502.0000, -61.386
1502.0200, -61.422
1502.0400, -61.394
1502.0600, -61.396
1502.0800, -61.399
1502.1000, -61.362
1502.1200, -61.361
1502.1400, -61.360
1502.1600, -61.341
1502.1800, -61.360
1502.2000, -61.373
1502.2200, -61.331
1502.2400, -61.344
1502.2600, -61.331
1502.2800, -61.305
1502.3000, -61.309
1502.3200, -61.290
1502.3400, -61.307
1502.3600, -61.299
1502.3800, -61.283
1502.4000, -61.291
1502.4200, -61.274
1502.4400, -61.306
1502.4600, -61.244
1502.4800, -61.247
1502.5000, -61.257
1502.5200, -61.232
1502.5400, -61.234
1502.5600, -61.225
1502.5800, -61.216
1502.6000, -61.233
1502.6200, -61.209
1502.6400, -61.194
1502.6600, -61.218
1502.6800, -61.185
1502.7000, -61.180
1502.7200, -61.172
1502.7400, -61.193
1502.7600, -61.169
1502.7800, -61.180
1502.8000, -61.180
1502.8200, -61.137
1502.8400, -61.119
1502.8600, -61.138
1502.8800, -61.138
1502.9000, -61.093
1502.9200, -61.083
1502.9400, -61.121
1502.9600, -61.089
1502.9800, -61.095
1503.0000, -61.060
1503.0200, -61.075
1503.0400, -61.056
1503.0600, -61.059
1503.0800, -61.049
1503.1000, -61.038
1503.1200, -61.044
1503.1400, -61.055
1503.1600, -61.054
1503.1800, -61.046
1503.2000, -61.013
1503.2200, -61.010
1503.2400, -60.998
1503.2600, -60.992
1503.2800, -60.968
1503.3000, -61.003
1503.3200, -60.986
1503.3400, -60.986
1503.3600, -61.000
1503.3800, -60.953
1503.4000, -60.939
1503.4200, -60.981
1503.4400, -60.927
1503.4600, -60.919
1503.4800, -60.911
1503.5000, -60.892
1503.5200, -60.903
1503.5400, -60.894
1503.5600, -60.901
1503.5800, -60.888
1503.6000, -60.886
1503.6200, -60.868
1503.6400, -60.894
1503.6600, -60.864
1503.6800, -60.853
1503.7000, -60.860
1503.7200, -60.863
1503.7400, -60.859
1503.7600, -60.833
1503.7800, -60.827
1503.8000, -60.806
1503.8200, -60.820
1503.8400, -60.786
1503.8600, -60.801
1503.8800, -60.795
1503.9000, -60.781
1503.9200, -60.787
1503.9400, -60.765
1503.9600, -60.741
1503.9800, -60.757
1504.0000, -60.760
1504.0200, -60.742
1504.0400, -60.750
1504.0600, -60.701
1504.0800, -60.741
1504.1000, -60.748
1504.1200, -60.724
1504.1400, -60.694
1504.1600, -60.677
1504.1800, -60.669
1504.2000, -60.665
1504.2200, -60.658
1504.2400, -60.634
1504.2600, -60.689
1504.2800, -60.647
1504.3000, -60.656
1504.3200, -60.625
1504.3400, -60.627
1504.3600, -60.596
1504.3800, -60.627
1504.4000, -60.580
1504.4200, -60.612
1504.4400, -60.609
1504.4600, -60.587
1504.4800, -60.539
1504.5000, -60.561
1504.5200, -60.582
1504.5400, -60.557
1504.5600, -60.521
1504.5800, -60.545
1504.6000, -60.525
1504.6200, -60.508
1504.6400, -60.514
1504.6600, -60.524
1504.6800, -60.487
1504.7000, -60.512
1504.7200, -60.469
1504.7400, -60.485
1504.7600, -60.498
1504.7800, -60.497
1504.8000, -60.451
1504.8200, -60.452
1504.8400, -60.437
1504.8600, -60.415
1504.8800, -60.431
1504.9000, -60.410
1504.9200, -60.438
1504.9400, -60.389
1504.9600, -60.411
1504.9800, -60.370
1505.0000, -60.377
1505.0200, -60.366
1505.0400, -60.398
1505.0600, -60.350
1505.0800, -60.364
1505.1000, -60.370
1505.1200, -60.328
1505.1400, -60.315
1505.1600, -60.343
1505.1800, -60.312
1505.2000, -60.294
1505.2200, -60.279
1505.2400, -60.306
1505.2600, -60.289
1505.2800, -60.282
1505.3000, -60.283
1505.3200, -60.264
1505.3400, -60.233
1505.3600, -60.258
1505.3800, -60.240
1505.4000, -60.220
1505.4200, -60.211
1505.4400, -60.217
1505.4600, -60.223
1505.4800, -60.183
1505.5000, -60.177
1505.5200, -60.199
1505.5400, -60.177
1505.5600, -60.153
1505.5800, -60.159
1505.6000, -60.151
1505.6200, -60.153
1505.6400, -60.135
1505.6600, -60.119
1505.6800, -60.134
1505.7000, -60.123
1505.7200, -60.127
1505.7400, -60.094
1505.7600, -60.086
1505.7800, -60.060
1505.8000, -60.087
1505.8200, -60.069
1505.8400, -60.059
1505.8600, -60.061
1505.8800, -60.051
1505.9000, -60.043
1505.9200, -60.040
1505.9400, -60.019
1505.9600, -60.009
1505.9800, -60.000
1506.0000, -59.990
1506.0200, -59.990
1506.0400, -59.995
1506.0600, -59.972
1506.0800, -59.975
1506.1000, -59.963
1506.1200, -59.954
1506.1400, -59.941
1506.1600, -59.922
1506.1800, -59.949
1506.2000, -59.920
1506.2200, -59.913
1506.2400, -59.883
1506.2600, -59.884
1506.2800, -59.908
1506.3000, -59.880
1506.3200, -59.870
1506.3400, -59.847
1506.3600, -59.862
1506.3800, -59.871
1506.4000, -59.849
1506.4200, -59.846
1506.4400, -59.839
1506.4600, -59.801
1506.4800, -59.808
1506.5000, -59.802
1506.5200, -59.795
1506.5400, -59.784
1506.5600, -59.791
1506.5800, -59.770
1506.6000, -59.745
1506.6200, -59.769
1506.6400, -59.744
1506.6600, -59.736
1506.6800, -59.726
1506.7000, -59.733
1506.7200, -59.704
1506.7400, -59.703
1506.7600, -59.721
1506.7800, -59.695
1506.8000, -59.685
1506.8200, -59.691
1506.8400, -59.673
1506.8600, -59.668
1506.8800, -59.644
1506.9000, -59.633
1506.9200, -59.649
1506.9400, -59.624
1506.9600, -59.614
1506.9800, -59.634
1507.0000, -59.616
1507.0200, -59.613
1507.0400, -59.605
1507.0600, -59.560
1507.0800, -59.579
1507.1000, -59.578
1507.1200, -59.559
1507.1400, -59.558
1507.1600, -59.552
1507.1800, -59.536
1507.2000, -59.544
1507.2200, -59.520
1507.2400, -59.518
1507.2600, -59.514
1507.2800, -59.501
1507.3000, -59.505
1507.3200, -59.481
1507.3400, -59.469
1507.3600, -59.460
1507.3800, -59.466
1507.4000, -59.448
1507.4200, -59.445
1507.4400, -59.428
1507.4600, -59.421
1507.4800, -59.403
1507.5000, -59.401
1507.5200, -59.397
1507.5400, -59.374
1507.5600, -59.383
1507.5800, -59.374
1507.6000, -59.356
1507.6200, -59.357
1507.6400, -59.333
1507.6600, -59.343
1507.6800, -59.328
1507.7000, -59.334
1507.7200, -59.313
1507.7400, -59.300
1507.7600, -59.286
1507.7800, -59.284
1507.8000, -59.308
1507.8200, -59.262
1507.8400, -59.278
1507.8600, -59.256
1507.8800, -59.248
1507.9000, -59.254
1507.9200, -59.218
1507.9400, -59.209
1507.9600, -59.220
1507.9800, -59.214
1508.0000, -59.184
1508.0200, -59.186
1508.0400, -59.193
1508.0600, -59.179
1508.0800, -59.153
1508.1000, -59.161
1508.1200, -59.151
1508.1400, -59.143
1508.1600, -59.117
1508.1800, -59.134
1508.2000, -59.111
1508.2200, -59.103
1508.2400, -59.111
1508.2600, -59.093
1508.2800, -59.093
1508.3000, -59.066
1508.3200, -59.092
1508.3400, -59.067
1508.3600, -59.054
1508.3800, -59.059
1508.4000, -59.015
1508.4200, -59.037
1508.4400, -59.004
1508.4600, -59.020
1508.4800, -59.007
1508.5000, -58.974
1508.5200, -58.988
1508.5400, -58.977
1508.5600, -58.974
1508.5800, -58.986
1508.6000, -58.952
1508.6200, -58.930
1508.6400, -58.942
1508.6600, -58.937
1508.6800, -58.904
1508.7000, -58.908
1508.7200, -58.900
1508.7400, -58.892
1508.7600, -58.879
1508.7800, -58.890
1508.8000, -58.866
1508.8200, -58.884
1508.8400, -58.864
1508.8600, -58.839
1508.8800, -58.855
1508.9000, -58.816
1508.9200, -58.820
1508.9400, -58.796
1508.9600, -58.794
1508.9800, -58.786
1509.0000, -58.778
1509.0200, -58.785
1509.0400, -58.761
1509.0600, -58.753
1509.0800, -58.744
1509.1000, -58.761
1509.1200, -58.743
1509.1400, -58.740
1509.1600, -58.700
1509.1800, -58.707
1509.2000, -58.692
1509.2200, -58.686
1509.2400, -58.676
1509.2600, -58.665
1509.2800, -58.660
1509.3000, -58.630
1509.3200, -58.628
1509.3400, -58.638
1509.3600, -58.623
1509.3800, -58.616
1509.4000, -58.601
1509.4200, -58.598
1509.4400, -58.578
1509.4600, -58.567
1509.4800, -58.581
1509.5000, -58.539
1509.5200, -58.547
1509.5400, -58.540
1509.5600, -58.537
1509.5800, -58.526
1509.6000, -58.522
1509.6200, -58.508
1509.6400, -58.486
1509.6600, -58.481
1509.6800, -58.497
1509.7000, -58.457
1509.7200, -58.452
1509.7400, -58.455
1509.7600, -58.445
1509.7800, -58.444
1509.8000, -58.430
1509.8200, -58.424
1509.8400, -58.414
1509.8600, -58.407
1509.8800, -58.377
1509.9000, -58.377
1509.9200, -58.384
1509.9400, -58.364
1509.9600, -58.336
1509.9800, -58.342
1510.0000, -58.355
1510.0200, -58.323
1510.0400, -58.319
1510.0600, -58.308
1510.0800, -58.297
1510.1000, -58.298
1510.1200, -58.280
1510.1400, -58.250
1510.1600, -58.252
1510.1800, -58.263
1510.2000, -58.228
1510.2200, -58.220
1510.2400, -58.217
1510.2600, -58.203
1510.2800, -58.200
1510.3000, -58.174
1510.3200, -58.167
1510.3400, -58.156
1510.3600, -58.154
1510.3800, -58.141
1510.4000, -58.109
1510.4200, -58.126
1510.4400, -58.118
1510.4600, -58.093
1510.4800, -58.082
1510.5000, -58.075
1510.5200, -58.064
1510.5400, -58.072
1510.5600, -58.031
1510.5800, -58.034
1510.6000, -58.039
1510.6200, -58.009
1510.6400, -57.997
1510.6600, -57.996
1510.6800, -57.986
1510.7000, -57.974
1510.7200, -57.963
1510.7400, -57.950
1510.7600, -57.955
1510.7800, -57.929
1510.8000, -57.922
1510.8200, -57.917
1510.8400, -57.913
1510.8600, -57.900
1510.8800, -57.875
1510.9000, -57.841
1510.9200, -57.853
1510.9400, -57.852
1510.9600, -57.843
1510.9800, -57.814
1511.0000, -57.825
1511.0200, -57.809
1511.0400, -57.809
1511.0600, -57.780
1511.0800, -57.760
1511.1000, -57.773
1511.1200, -57.756
1511.1400, -57.730
1511.1600, -57.728
1511.1800, -57.693
1511.2000, -57.713
1511.2200, -57.716
1511.2400, -57.674
1511.2600, -57.674
1511.2800, -57.656
1511.3000, -57.648
1511.3200, -57.636
1511.3400, -57.638
1511.3600, -57.614
1511.3800, -57.582
1511.4000, -57.600
1511.4200, -57.583
1511.4400, -57.577
1511.4600, -57.553
1511.4800, -57.555
1511.5000, -57.537
1511.5200, -57.517
1511.5400, -57.521
1511.5600, -57.511
1511.5800, -57.507
1511.6000, -57.474
1511.6200, -57.476
1511.6400, -57.455
1511.6600, -57.453
1511.6800, -57.435
1511.7000, -57.429
1511.7200, -57.415
1511.7400, -57.409
1511.7600, -57.394
1511.7800, -57.393
1511.8000, -57.370
1511.8200, -57.359
1511.8400, -57.366
1511.8600, -57.319
1511.8800, -57.317
1511.9000, -57.307
1511.9200, -57.294
1511.9400, -57.284
1511.9600, -57.285
1511.9800, -57.277
1512.0000, -57.259
1512.0200, -57.239
1512.0400, -57.230
1512.0600, -57.207
1512.0800, -57.219
1512.1000, -57.188
1512.1200, -57.193
1512.1400, -57.175
1512.1600, -57.160
1512.1800, -57.155
1512.2000, -57.145
1512.2200, -57.132
1512.2400, -57.133
1512.2600, -57.101
1512.2800, -57.101
1512.3000, -57.091
1512.3200, -57.058
1512.3400, -57.066
1512.3600, -57.053
1512.3800, -57.043
1512.4000, -57.049
1512.4200, -57.033
1512.4400, -57.022
1512.4600, -56.995
1512.4800, -56.993
1512.5000, -56.967
1512.5200, -56.970
1512.5400, -56.955
1512.5600, -56.949
1512.5800, -56.933
1512.6000, -56.915
1512.6200, -56.902
1512.6400, -56.892
1512.6600, -56.884
1512.6800, -56.877
1512.7000, -56.863
1512.7200, -56.856
1512.7400, -56.847
1512.7600, -56.831
1512.7800, -56.810
1512.8000, -56.803
1512.8200, -56.775
1512.8400, -56.781
1512.8600, -56.776
1512.8800, -56.750
1512.9000, -56.755
1512.9200, -56.751
1512.9400, -56.737
1512.9600, -56.720
1512.9800, -56.687
1513.0000, -56.681
1513.0200, -56.687
1513.0400, -56.652
1513.0600, -56.648
1513.0800, -56.629
1513.1000, -56.625
1513.1200, -56.615
1513.1400, -56.606
1513.1600, -56.590
1513.1800, -56.582
1513.2000, -56.574
1513.2200, -56.555
1513.2400, -56.543
1513.2600, -56.532
1513.2800, -56.523
1513.3000, -56.517
1513.3200, -56.494
1513.3400, -56.489
1513.3600, -56.475
1513.3800, -56.462
1513.4000, -56.443
1513.4200, -56.425
1513.4400, -56.416
1513.4600, -56.415
1513.4800, -56.406
1513.5000, -56.387
1513.5200, -56.373
1513.5400, -56.355
1513.5600, -56.351
1513.5800, -56.339
1513.6000, -56.332
1513.6200, -56.313
1513.6400, -56.304
1513.6600, -56.300
1513.6800, -56.286
1513.7000, -56.270
1513.7200, -56.258
1513.7400, -56.243
1513.7600, -56.212
1513.7800, -56.211
1513.8000, -56.208
1513.8200, -56.204
1513.8400, -56.180
1513.8600, -56.155
1513.8800, -56.173
1513.9000, -56.133
1513.9200, -56.129
1513.9400, -56.118
1513.9600, -56.103
1513.9800, -56.084
1514.0000, -56.056
1514.0200, -56.057
1514.0400, -56.034
1514.0600, -56.034
1514.0800, -56.026
1514.1000, -56.018
1514.1200, -56.006
1514.1400, -55.986
1514.1600, -55.977
1514.1800, -55.952
1514.2000, -55.952
1514.2200, -55.919
1514.2400, -55.929
1514.2600, -55.909
1514.2800, -55.891
1514.3000, -55.881
1514.3200, -55.868
1514.3400, -55.852
1514.3600, -55.836
1514.3800, -55.830
1514.4000, -55.812
1514.4200, -55.808
1514.4400, -55.793
1514.4600, -55.774
1514.4800, -55.755
1514.5000, -55.746
1514.5200, -55.735
1514.5400, -55.725
1514.5600, -55.714
1514.5800, -55.701
1514.6000, -55.693
1514.6200, -55.673
1514.6400, -55.654
1514.6600, -55.661
1514.6800, -55.629
1514.7000, -55.616
1514.7200, -55.601
1514.7400, -55.594
1514.7600, -55.579
1514.7800, -55.565
1514.8000, -55.556
1514.8200, -55.541
1514.8400, -55.527
1514.8600, -55.515
1514.8800, -55.496
1514.9000, -55.489
1514.9200, -55.461
1514.9400, -55.458
1514.9600, -55.436
1514.9800, -55.420
1515.0000, -55.396
1515.0200, -55.397
1515.0400, -55.393
1515.0600, -55.377
1515.0800, -55.356
1515.1000, -55.341
1515.1200, -55.332
1515.1400, -55.322
1515.1600, -55.294
1515.1800, -55.288
1515.2000, -55.271
1515.2200, -55.253
1515.2400, -55.253
1515.2600, -55.230
1515.2800, -55.216
1515.3000, -55.191
1515.3200, -55.179
1515.3400, -55.169
1515.3600, -55.158
1515.3800, -55.152
1515.4000, -55.135
1515.4200, -55.115
1515.4400, -55.102
1515.4600, -55.079
1515.4800, -55.069
1515.5000, -55.055
1515.5200, -55.044
1515.5400, -55.030
1515.5600, -55.015
1515.5800, -54.994
1515.6000, -54.983
1515.6200, -54.964
1515.6400, -54.958
1515.6600, -54.946
1515.6800, -54.925
1515.7000, -54.907
1515.7200, -54.899
1515.7400, -54.895
1515.7600, -54.872
1515.7800, -54.860
1515.8000, -54.843
1515.8200, -54.822
1515.8400, -54.809
1515.8600, -54.781
1515.8800, -54.776
1515.9000, -54.751
1515.9200, -54.740
1515.9400, -54.722
1515.9600, -54.707
1515.9800, -54.695
1516.0000, -54.678
1516.0200, -54.667
1516.0400, -54.646
1516.0600, -54.638
1516.0800, -54.625
1516.1000, -54.601
1516.1200, -54.599
1516.1400, -54.572
1516.1600, -54.559
1516.1800, -54.542
1516.2000, -54.529
1516.2200, -54.515
1516.2400, -54.503
1516.2600, -54.478
1516.2800, -54.473
1516.3000, -54.454
1516.3200, -54.444
1516.3400, -54.418
1516.3600, -54.412
1516.3800, -54.381
1516.4000, -54.374
1516.4200, -54.351
1516.4400, -54.336
1516.4600, -54.324
1516.4800, -54.307
1516.5000, -54.290
1516.5200, -54.264
1516.5400, -54.248
1516.5600, -54.235
1516.5800, -54.232
1516.6000, -54.207
1516.6200, -54.184
1516.6400, -54.183
1516.6600, -54.151
1516.6800, -54.145
1516.7000, -54.126
1516.7200, -54.110
1516.7400, -54.094
1516.7600, -54.067
1516.7800, -54.054
1516.8000, -54.026
1516.8200, -54.013
1516.8400, -54.002
1516.8600, -53.977
1516.8800, -53.959
1516.9000, -53.941
1516.9200, -53.926
1516.9400, -53.920
1516.9600, -53.896
1516.9800, -53.874
1517.0000, -53.846
1517.0200, -53.841
1517.0400, -53.820
1517.0600, -53.801
1517.0800, -53.784
1517.1000, -53.768
1517.1200, -53.742
1517.1400, -53.739
1517.1600, -53.709
1517.1800, -53.687
1517.2000, -53.669
1517.2200, -53.658
1517.2400, -53.640
1517.2600, -53.627
1517.2800, -53.614
1517.3000, -53.604
1517.3200, -53.573
1517.3400, -53.550
1517.3600, -53.533
1517.3800, -53.510
1517.4000, -53.502
1517.4200, -53.481
1517.4400, -53.462
1517.4600, -53.442
1517.4800, -53.412
1517.5000, -53.390
1517.5200, -53.388
1517.5400, -53.362
1517.5600, -53.343
1517.5800, -53.324
1517.6000, -53.308
1517.6200, -53.301
1517.6400, -53.284
1517.6600, -53.257
1517.6800, -53.236
1517.7000, -53.209
1517.7200, -53.187
1517.7400, -53.164
1517.7600, -53.139
1517.7800, -53.129
1517.8000, -53.104
1517.8200, -53.072
1517.8400, -53.067
1517.8600, -53.056
1517.8800, -53.024
1517.9000, -53.007
1517.9200, -52.982
1517.9400, -52.956
1517.9600, -52.943
1517.9800, -52.923
1518.0000, -52.890
1518.0200, -52.885
1518.0400, -52.869
1518.0600, -52.841
1518.0800, -52.821
1518.1000, -52.803
1518.1200, -52.782
1518.1400, -52.751
1518.1600, -52.739
1518.1800, -52.712
1518.2000, -52.692
1518.2200, -52.681
1518.2400, -52.659
1518.2600, -52.636
1518.2800, -52.610
1518.3000, -52.596
1518.3200, -52.572
1518.3400, -52.554
1518.3600, -52.536
1518.3800, -52.515
1518.4000, -52.492
1518.4200, -52.452
1518.4400, -52.434
1518.4600, -52.421
1518.4800, -52.393
1518.5000, -52.374
1518.5200, -52.357
1518.5400, -52.333
1518.5600, -52.316
1518.5800, -52.292
1518.6000, -52.261
1518.6200, -52.248
1518.6400, -52.214
1518.6600, -52.193
1518.6800, -52.159
1518.7000, -52.141
1518.7200, -52.125
1518.7400, -52.093
1518.7600, -52.069
1518.7800, -52.043
1518.8000, -52.023
1518.8200, -52.007
1518.8400, -51.989
1518.8600, -51.961
1518.8800, -51.929
1518.9000, -51.910
1518.9200, -51.891
1518.9400, -51.870
1518.9600, -51.840
1518.9800, -51.817
1519.0000, -51.797
1519.0200, -51.778
1519.0400, -51.756
1519.0600, -51.724
1519.0800, -51.692
1519.1000, -51.676
1519.1200, -51.647
1519.1400, -51.627
1519.1600, -51.607
1519.1800, -51.577
1519.2000, -51.551
1519.2200, -51.526
1519.2400, -51.498
1519.2600, -51.473
1519.2800, -51.448
1519.3000, -51.429
1519.3200, -51.403
1519.3400, -51.364
1519.3600, -51.339
1519.3800, -51.318
1519.4000, -51.291
1519.4200, -51.266
1519.4400, -51.236
1519.4600, -51.212
1519.4800, -51.177
1519.5000, -51.160
1519.5200, -51.148
1519.5400, -51.116
1519.5600, -51.089
1519.5800, -51.050
1519.6000, -51.018
1519.6200, -50.990
1519.6400, -50.956
1519.6600, -50.931
1519.6800, -50.916
1519.7000, -50.881
1519.7200, -50.853
1519.7400, -50.833
1519.7600, -50.802
1519.7800, -50.777
1519.8000, -50.755
1519.8200, -50.720
1519.8400, -50.690
1519.8600, -50.667
1519.8800, -50.626
1519.9000, -50.611
1519.9200, -50.576
1519.9400, -50.555
1519.9600, -50.530
1519.9800, -50.492
1520.0000, -50.461
1520.0200, -50.431
1520.0400, -50.407
1520.0600, -50.376
1520.0800, -50.347
1520.1000, -50.322
1520.1200, -50.288
1520.1400, -50.250
1520.1600, -50.227
1520.1800, -50.195
1520.2000, -50.161
1520.2200, -50.136
1520.2400, -50.109
1520.2600, -50.083
1520.2800, -50.044
1520.3000, -49.999
1520.3200, -49.980
1520.3400, -49.964
1520.3600, -49.911
1520.3800, -49.887
1520.4000, -49.860
1520.4200, -49.819
1520.4400, -49.800
1520.4600, -49.773
1520.4800, -49.732
1520.5000, -49.708
1520.5200, -49.665
1520.5400, -49.632
1520.5600, -49.600
1520.5800, -49.565
1520.6000, -49.534
1520.6200, -49.500
1520.6400, -49.462
1520.6600, -49.425
1520.6800, -49.400
1520.7000, -49.361
1520.7200, -49.345
1520.7400, -49.307
1520.7600, -49.261
1520.7800, -49.237
1520.8000, -49.203
1520.8200, -49.160
1520.8400, -49.135
1520.8600, -49.097
1520.8800, -49.069
1520.9000, -49.036
1520.9200, -48.988
1520.9400, -48.963
1520.9600, -48.924
1520.9800, -48.896
1521.0000, -48.855
1521.0200, -48.825
1521.0400, -48.795
1521.0600, -48.756
1521.0800, -48.716
1521.1000, -48.684
1521.1200, -48.643
1521.1400, -48.620
1521.1600, -48.579
1521.1800, -48.548
1521.2000, -48.509
1521.2200, -48.465
1521.2400, -48.417
1521.2600, -48.393
1521.2800, -48.373
1521.3000, -48.315
1521.3200, -48.289
1521.3400, -48.249
1521.3600, -48.210
1521.3800, -48.170
1521.4000, -48.146
1521.4200, -48.103
1521.4400, -48.065
1521.4600, -48.022
1521.4800, -47.991
1521.5000, -47.935
1521.5200, -47.897
1521.5400, -47.862
1521.5600, -47.832
1521.5800, -47.788
1521.6000, -47.752
1521.6200, -47.722
1521.6400, -47.682
1521.6600, -47.648
1521.6800, -47.604
1521.7000, -47.563
1521.7200, -47.521
1521.7400, -47.483
1521.7600, -47.451
1521.7800, -47.414
1521.8000, -47.375
1521.8200, -47.340
1521.8400, -47.301
1521.8600, -47.263
1521.8800, -47.228
1521.9000, -47.174
1521.9200, -47.145
1521.9400, -47.105
1521.9600, -47.069
1521.9800, -47.034
1522.0000, -46.982
1522.0200, -46.947
1522.0400, -46.915
1522.0600, -46.873
1522.0800, -46.831
1522.1000, -46.798
1522.1200, -46.759
1522.1400, -46.718
1522.1600, -46.672
1522.1800, -46.646
1522.2000, -46.598
1522.2200, -46.558
1522.2400, -46.517
1522.2600, -46.481
1522.2800, -46.441
1522.3000, -46.396
1522.3200, -46.363
1522.3400, -46.312
1522.3600, -46.274
1522.3800, -46.233
1522.4000, -46.185
1522.4200, -46.151
1522.4400, -46.100
1522.4600, -46.065
1522.4800, -46.020
1522.5000, -45.978
1522.5200, -45.932
1522.5400, -45.902
1522.5600, -45.858
1522.5800, -45.814
1522.6000, -45.781
1522.6200, -45.737
1522.6400, -45.694
1522.6600, -45.652
1522.6800, -45.601
1522.7000, -45.568
1522.7200, -45.531
1522.7400, -45.491
1522.7600, -45.447
1522.7800, -45.411
1522.8000, -45.369
1522.8200, -45.321
1522.8400, -45.286
1522.8600, -45.245
1522.8800, -45.207
1522.9000, -45.164
1522.9200, -45.129
1522.9400, -45.085
1522.9600, -45.050
1522.9800, -45.010
1523.0000, -44.967
1523.0200, -44.931
1523.0400, -44.884
1523.0600, -44.844
1523.0800, -44.803
1523.1000, -44.758
1523.1200, -44.714
1523.1400, -44.679
1523.1600, -44.634
1523.1800, -44.595
1523.2000, -44.560
1523.2200, -44.518
1523.2400, -44.474
1523.2600, -44.438
1523.2800, -44.390
1523.3000, -44.350
1523.3200, -44.305
1523.3400, -44.259
1523.3600, -44.219
1523.3800, -44.170
1523.4000, -44.134
1523.4200, -44.093
1523.4400, -44.054
1523.4600, -44.005
1523.4800, -43.969
1523.5000, -43.926
1523.5200, -43.888
1523.5400, -43.847
1523.5600, -43.806
1523.5800, -43.763
1523.6000, -43.728
1523.6200, -43.677
1523.6400, -43.642
1523.6600, -43.598
1523.6800, -43.561
1523.7000, -43.526
1523.7200, -43.487
1523.7400, -43.442
1523.7600, -43.398
1523.7800, -43.362
1523.8000, -43.322
1523.8200, -43.282
1523.8400, -43.244
1523.8600, -43.206
1523.8800, -43.161
1523.9000, -43.126
1523.9200, -43.082
1523.9400, -43.045
1523.9600, -43.006
1523.9800, -42.964
1524.0000, -42.924
1524.0200, -42.888
1524.0400, -42.845
1524.0600, -42.803
1524.0800, -42.761
1524.1000, -42.719
1524.1200, -42.682
1524.1400, -42.643
1524.1600, -42.598
1524.1800, -42.563
1524.2000, -42.525
1524.2200, -42.484
1524.2400, -42.447
1524.2600, -42.402
1524.2800, -42.362
1524.3000, -42.320
1524.3200, -42.276
1524.3400, -42.239
1524.3600, -42.199
1524.3800, -42.164
1524.4000, -42.122
1524.4200, -42.086
1524.4400, -42.045
1524.4600, -42.008
1524.4800, -41.968
1524.5000, -41.925
1524.5200, -41.881
1524.5400, -41.847
1524.5600, -41.813
1524.5800, -41.776
1524.6000, -41.733
1524.6200, -41.696
1524.6400, -41.659
1524.6600, -41.618
1524.6800, -41.581
1524.7000, -41.539
1524.7200, -41.502
1524.7400, -41.465
1524.7600, -41.428
1524.7800, -41.394
1524.8000, -41.350
1524.8200, -41.311
1524.8400, -41.269
1524.8600, -41.234
1524.8800, -41.195
1524.9000, -41.157
1524.9200, -41.121
1524.9400, -41.081
1524.9600, -41.037
1524.9800, -40.997
1525.0000, -40.961
1525.0200, -40.930
1525.0400, -40.883
1525.0600, -40.844
1525.0800, -40.801
1525.1000, -40.759
1525.1200, -40.727
1525.1400, -40.690
1525.1600, -40.651
1525.1800, -40.616
1525.2000, -40.572
1525.2200, -40.538
1525.2400, -40.495
1525.2600, -40.458
1525.2800, -40.421
1525.3000, -40.385
1525.3200, -40.343
1525.3400, -40.306
1525.3600, -40.272
1525.3800, -40.233
1525.4000, -40.198
1525.4200, -40.158
1525.4400, -40.117
1525.4600, -40.076
1525.4800, -40.038
1525.5000, -40.003
1525.5200, -39.965
1525.5400, -39.925
1525.5600, -39.890
1525.5800, -39.851
1525.6000, -39.808
1525.6200, -39.777
1525.6400, -39.737
1525.6600, -39.701
1525.6800, -39.665
1525.7000, -39.629
1525.7200, -39.590
1525.7400, -39.549
1525.7600, -39.507
1525.7800, -39.469
1525.8000, -39.432
1525.8200, -39.396
1525.8400, -39.361
1525.8600, -39.322
1525.8800, -39.283
1525.9000, -39.241
1525.9200, -39.201
1525.9400, -39.169
1525.9600, -39.128
1525.9800, -39.097
1526.0000, -39.067
1526.0200, -39.024
1526.0400, -38.984
1526.0600, -38.947
1526.0800, -38.905
1526.1000, -38.876
1526.1200, -38.836
1526.1400, -38.794
1526.1600, -38.761
1526.1800, -38.714
1526.2000, -38.681
1526.2200, -38.641
1526.2400, -38.607
1526.2600, -38.554
1526.2800, -38.524
1526.3000, -38.491
1526.3200, -38.456
1526.3400, -38.420
1526.3600, -38.384
1526.3800, -38.345
1526.4000, -38.312
1526.4200, -38.266
1526.4400, -38.236
1526.4600, -38.200
1526.4800, -38.171
1526.5000, -38.137
1526.5200, -38.100
1526.5400, -38.059
1526.5600, -38.016
1526.5800, -37.987
1526.6000, -37.945
1526.6200, -37.912
1526.6400, -37.881
1526.6600, -37.844
1526.6800, -37.805
1526.7000, -37.768
1526.7200, -37.732
1526.7400, -37.698
1526.7600, -37.660
1526.7800, -37.625
1526.8000, -37.589
1526.8200, -37.555
1526.8400, -37.504
1526.8600, -37.474
1526.8800, -37.444
1526.9000, -37.395
1526.9200, -37.368
1526.9400, -37.330
1526.9600, -37.281
1526.9800, -37.249
1527.0000, -37.212
1527.0200, -37.162
1527.0400, -37.137
1527.0600, -37.087
1527.0800, -37.059
1527.1000, -37.015
1527.1200, -36.989
1527.1400, -36.945
1527.1600, -36.923
1527.1800, -36.866
1527.2000, -36.824
1527.2200, -36.792
1527.2400, -36.744
1527.2600, -36.720
1527.2800, -36.682
1527.3000, -36.648
1527.3200, -36.609
1527.3400, -36.571
1527.3600, -36.541
1527.3800, -36.502
1527.4000, -36.462
1527.4200, -36.431
1527.4400, -36.398
1527.4600, -36.359
1527.4800, -36.307
1527.5000, -36.268
1527.5200, -36.218
1527.5400, -36.176
1527.5600, -36.141
1527.5800, -36.107
1527.6000, -36.063
1527.6200, -36.024
1527.6400, -35.992
1527.6600, -35.955
1527.6800, -35.912
1527.7000, -35.873
1527.7200, -35.829
1527.7400, -35.794
1527.7600, -35.751
1527.7800, -35.713
1527.8000, -35.675
1527.8200, -35.625
1527.8400, -35.600
1527.8600, -35.568
1527.8800, -35.517
1527.9000, -35.469
1527.9200, -35.441
1527.9400, -35.397
1527.9600, -35.362
1527.9800, -35.315
1528.0000, -35.270
1528.0200, -35.222
1528.0400, -35.158
1528.0600, -35.134
1528.0800, -35.086
1528.1000, -35.049
1528.1200, -35.004
1528.1400, -34.964
1528.1600, -34.929
1528.1800, -34.878
1528.2000, -34.853
1528.2200, -34.811
1528.2400, -34.764
1528.2600, -34.729
1528.2800, -34.675
1528.3000, -34.656
1528.3200, -34.614
1528.3400, -34.578
1528.3600, -34.543
1528.3800, -34.486
1528.4000, -34.435
1528.4200, -34.406
1528.4400, -34.374
1528.4600, -34.337
1528.4800, -34.305
1528.5000, -34.273
1528.5200, -34.222
1528.5400, -34.189
1528.5600, -34.153
1528.5800, -34.108
1528.6000, -34.083
1528.6200, -34.048
1528.6400, -34.007
1528.6600, -33.976
1528.6800, -33.926
1528.7000, -33.864
1528.7200, -33.827
1528.7400, -33.814
1528.7600, -33.744
1528.7800, -33.702
1528.8000, -33.648
1528.8200, -33.588
1528.8400, -33.550
1528.8600, -33.515
1528.8800, -33.450
1528.9000, -33.425
1528.9200, -33.371
1528.9400, -33.336
1528.9600, -33.279
1528.9800, -33.236
1529.0000, -33.196
1529.0200, -33.138
1529.0400, -33.090
1529.0600, -33.057
1529.0800, -33.006
1529.1000, -32.974
1529.1200, -32.961
1529.1400, -32.911
1529.1600, -32.873
1529.1800, -32.827
1529.2000, -32.796
1529.2200, -32.753
1529.2400, -32.709
1529.2600, -32.672
1529.2800, -32.628
1529.3000, -32.600
1529.3200, -32.549
1529.3400, -32.489
1529.3600, -32.444
1529.3800, -32.406
1529.4000, -32.373
1529.4200, -32.336
1529.4400, -32.297
1529.4600, -32.255
1529.4800, -32.213
1529.5000, -32.182
1529.5200, -32.147
1529.5400, -32.129
1529.5600, -32.094
1529.5800, -32.042
1529.6000, -31.996
1529.6200, -31.918
1529.6400, -31.855
1529.6600, -31.856
1529.6800, -31.792
1529.7000, -31.758
1529.7200, -31.732
1529.7400, -31.679
1529.7600, -31.625
1529.7800, -31.600
1529.8000, -31.529
1529.8200, -31.459
1529.8400, -31.399
1529.8600, -31.347
1529.8800, -31.300
1529.9000, -31.239
1529.9200, -31.182
1529.9400, -31.170
1529.9600, -31.080
1529.9800, -31.036
1530.0000, -30.987
1530.0200, -30.932
1530.0400, -30.978
1530.0600, -30.929
1530.0800, -30.827
1530.1000, -30.835
1530.1200, -30.775
1530.1400, -30.686
1530.1600, -30.684
1530.1800, -30.672
1530.2000, -30.606
1530.2200, -30.647
1530.2400, -30.563
1530.2600, -30.527
1530.2800, -30.471
1530.3000, -30.547
1530.3200, -30.408
1530.3400, -30.357
1530.3600, -30.354
1530.3800, -30.242
1530.4000, -30.174
1530.4200, -30.165
1530.4400, -30.120
1530.4600, -30.091
1530.4800, -30.045
1530.5000, -29.889
1530.5200, -29.859
1530.5400, -29.938
1530.5600, -29.792
1530.5800, -29.801
1530.6000, -29.721
1530.6200, -29.757
1530.6400, -29.672
1530.6600, -29.572
1530.6800, -29.773
1530.7000, -29.642
1530.7200, -29.666
1530.7400, -29.652
1530.7600, -29.464
1530.7800, -29.478
1530.8000, -29.448
1530.8200, -29.501
1530.8400, -29.433
1530.8600, -29.324
1530.8800, -29.315
1530.9000, -29.357
1530.9200, -29.218
1530.9400, -29.137
1530.9600, -29.175
1530.9800, -29.275
1531.0000, -29.330
1531.0200, -29.313
1531.0400, -29.219
1531.0600, -29.160
1531.0800, -29.140
1531.1000, -29.150
1531.1200, -29.105
1531.1400, -28.975
1531.1600, -28.970
1531.1800, -28.992
1531.2000, -28.968
1531.2200, -28.741
1531.2400, -28.755
1531.2600, -28.838
1531.2800, -28.570
1531.3000, -28.407
1531.3200, -28.469
1531.3400, -28.335
1531.3600, -28.497
1531.3800, -28.375
1531.4000, -28.272
1531.4200, -28.392
1531.4400, -28.370
1531.4600, -28.355
1531.4800, -28.215
1531.5000, -28.174
1531.5200, -28.315
1531.5400, -28.524
1531.5600, -28.252
1531.5800, -28.245
1531.6000, -27.973
1531.6200, -28.309
1531.6400, -28.385
1531.6600, -28.370
1531.6800, -28.016
1531.7000, -28.165
1531.7200, -28.242
1531.7400, -28.172
1531.7600, -28.249
1531.7800, -27.983
1531.8000, -28.213
1531.8200, -27.837
1531.8400, -27.968
1531.8600, -27.780
1531.8800, -27.253
1531.9000, -27.605
1531.9200, -27.605
1531.9400, -27.154
1531.9600, -27.989
1531.9800, -27.620
1532.0000, -27.439
1532.0200, -27.979
1532.0400, -27.809
1532.0600, -27.996
1532.0800, -27.963
1532.1000, -28.037
1532.1200, -27.709
1532.1400, -27.826
1532.1600, -28.005
1532.1800, -28.211
1532.2000, -28.113
1532.2200, -27.768
1532.2400, -27.270
1532.2600, -27.916
1532.2800, -28.243
1532.3000, -27.495
1532.3200, -27.468
1532.3400, -27.925
1532.3600, -27.571
1532.3800, -27.815
1532.4000, -27.269
1532.4200, -27.930
1532.4400, -27.567
1532.4600, -27.667
1532.4800, -28.064
1532.5000, -27.543
1532.5200, -27.314
1532.5400, -28.017
1532.5600, -27.050
1532.5800, -27.294
1532.6000, -27.856
1532.6200, -28.260
1532.6400, -27.753
1532.6600, -27.444
1532.6800, -28.203
1532.7000, -27.940
1532.7200, -28.176
1532.7400, -28.140
1532.7600, -28.292
1532.7800, -28.047
1532.8000, -27.723
1532.8200, -28.118
1532.8400, -28.244
1532.8600, -28.525
1532.8800, -28.511
1532.9000, -28.533
1532.9200, -28.645
1532.9400, -28.720
1532.9600, -28.599
1532.9800, -28.648
1533.0000, -28.788
1533.0200, -28.582
1533.0400, -28.848
1533.0600, -28.807
1533.0800, -28.859
1533.1000, -29.024
1533.1200, -28.989
1533.1400, -29.120
1533.1600, -29.026
1533.1800, -28.967
1533.2000, -29.038
1533.2200, -29.213
1533.2400, -29.264
1533.2600, -29.377
1533.2800, -29.307
1533.3000, -29.239
1533.3200, -29.376
1533.3400, -29.000
1533.3600, -29.163
1533.3800, -29.389
1533.4000, -29.511
1533.4200, -29.600
1533.4400, -29.652
1533.4600, -29.734
1533.4800, -29.870
1533.5000, -29.826
1533.5200, -29.905
1533.5400, -30.106
1533.5600, -30.098
1533.5800, -30.244
1533.6000, -30.320
1533.6200, -30.451
1533.6400, -30.517
1533.6600, -30.444
1533.6800, -30.591
1533.7000, -30.652
1533.7200, -30.857
1533.7400, -30.805
1533.7600, -30.942
1533.7800, -30.994
1533.8000, -31.158
1533.8200, -31.185
1533.8400, -31.360
1533.8600, -31.304
1533.8800, -31.329
1533.9000, -31.444
1533.9200, -31.622
1533.9400, -31.585
1533.9600, -31.587
1533.9800, -31.670
1534.0000, -31.834
1534.0200, -31.933
1534.0400, -31.900
1534.0600, -31.992
1534.0800, -32.011
1534.1000, -32.021
1534.1200, -32.083
1534.1400, -32.130
1534.1600, -32.185
1534.1800, -32.342
1534.2000, -32.380
1534.2200, -32.407
1534.2400, -32.419
1534.2600, -32.493
1534.2800, -32.548
1534.3000, -32.576
1534.3200, -32.666
1534.3400, -32.778
1534.3600, -32.886
1534.3800, -32.939
1534.4000, -32.971
1534.4200, -33.023
1534.4400, -33.095
1534.4600, -33.197
1534.4800, -33.245
1534.5000, -33.323
1534.5200, -33.317
1534.5400, -33.383
1534.5600, -33.447
1534.5800, -33.558
1534.6000, -33.612
1534.6200, -33.651
1534.6400, -33.746
1534.6600, -33.701
1534.6800, -33.823
1534.7000, -33.843
1534.7200, -33.916
1534.7400, -34.008
1534.7600, -34.064
1534.7800, -34.186
1534.8000, -34.204
1534.8200, -34.265
1534.8400, -34.304
1534.8600, -34.333
1534.8800, -34.430
1534.9000, -34.468
1534.9200, -34.562
1534.9400, -34.601
1534.9600, -34.678
1534.9800, -34.747
1535.0000, -34.796
1535.0200, -34.853
1535.0400, -34.924
1535.0600, -34.945
1535.0800, -35.043
1535.1000, -35.068
1535.1200, -35.169
1535.1400, -35.207
1535.1600, -35.226
1535.1800, -35.285
1535.2000, -35.324
1535.2200, -35.362
1535.2400, -35.423
1535.2600, -35.511
1535.2800, -35.584
1535.3000, -35.638
1535.3200, -35.687
1535.3400, -35.741
1535.3600, -35.795
1535.3800, -35.851
1535.4000, -35.900
1535.4200, -35.945
1535.4400, -35.999
1535.4600, -36.044
1535.4800, -36.095
1535.5000, -36.158
1535.5200, -36.206
1535.5400, -36.256
1535.5600, -36.313
1535.5800, -36.370
1535.6000, -36.437
1535.6200, -36.487
1535.6400, -36.538
1535.6600, -36.590
1535.6800, -36.646
1535.7000, -36.699
1535.7200, -36.749
1535.7400, -36.801
1535.7600, -36.847
1535.7800, -36.895
1535.8000, -36.949
1535.8200, -36.995
1535.8400, -37.045
1535.8600, -37.099
1535.8800, -37.147
1535.9000, -37.193
1535.9200, -37.246
1535.9400, -37.285
1535.9600, -37.334
1535.9800, -37.387
1536.0000, -37.427
1536.0200, -37.477
1536.0400, -37.521
1536.0600, -37.556
1536.0800, -37.615
1536.1000, -37.655
1536.1200, -37.693
1536.1400, -37.730
1536.1600, -37.774
1536.1800, -37.829
1536.2000, -37.876
1536.2200, -37.913
1536.2400, -37.946
1536.2600, -37.988
1536.2800, -38.018
1536.3000, -38.067
1536.3200, -38.106
1536.3400, -38.146
1536.3600, -38.185
1536.3800, -38.214
1536.4000, -38.261
1536.4200, -38.301
1536.4400, -38.339
1536.4600, -38.380
1536.4800, -38.414
1536.5000, -38.458
1536.5200, -38.507
1536.5400, -38.547
1536.5600, -38.581
1536.5800, -38.615
1536.6000, -38.633
1536.6200, -38.671
1536.6400, -38.715
1536.6600, -38.748
1536.6800, -38.776
1536.7000, -38.807
1536.7200, -38.845
1536.7400, -38.877
1536.7600, -38.917
1536.7800, -38.953
1536.8000, -38.982
1536.8200, -39.016
1536.8400, -39.053
1536.8600, -39.082
1536.8800, -39.125
1536.9000, -39.158
1536.9200, -39.191
1536.9400, -39.221
1536.9600, -39.252
1536.9800, -39.279
1537.0000, -39.318
1537.0200, -39.349
1537.0400, -39.377
1537.0600, -39.399
1537.0800, -39.429
1537.1000, -39.461
1537.1200, -39.489
1537.1400, -39.512
1537.1600, -39.542
1537.1800, -39.571
1537.2000, -39.596
1537.2200, -39.624
1537.2400, -39.646
1537.2600, -39.672
1537.2800, -39.694
1537.3000, -39.710
1537.3200, -39.741
1537.3400, -39.779
1537.3600, -39.792
1537.3800, -39.814
1537.4000, -39.841
1537.4200, -39.870
1537.4400, -39.901
1537.4600, -39.922
1537.4800, -39.944
1537.5000, -39.965
1537.5200, -39.980
1537.5400, -40.010
1537.5600, -40.038
1537.5800, -40.054
1537.6000, -40.070
1537.6200, -40.100
1537.6400, -40.128
1537.6600, -40.141
1537.6800, -40.168
1537.7000, -40.190
1537.7200, -40.207
1537.7400, -40.226
1537.7600, -40.243
1537.7800, -40.265
1537.8000, -40.292
1537.8200, -40.313
1537.8400, -40.338
1537.8600, -40.357
1537.8800, -40.372
1537.9000, -40.388
1537.9200, -40.413
1537.9400, -40.429
1537.9600, -40.443
1537.9800, -40.458
1538.0000, -40.482
1538.0200, -40.500
1538.0400, -40.518
1538.0600, -40.543
1538.0800, -40.555
1538.1000, -40.571
1538.1200, -40.594
1538.1400, -40.612
1538.1600, -40.619
1538.1800, -40.639
1538.2000, -40.648
1538.2200, -40.654
1538.2400, -40.675
1538.2600, -40.692
1538.2800, -40.698
1538.3000, -40.711
1538.3200, -40.724
1538.3400, -40.741
1538.3600, -40.757
1538.3800, -40.767
1538.4000, -40.777
1538.4200, -40.782
1538.4400, -40.797
1538.4600, -40.821
1538.4800, -40.838
1538.5000, -40.843
1538.5200, -40.849
1538.5400, -40.865
1538.5600, -40.877
1538.5800, -40.889
1538.6000, -40.906
1538.6200, -40.918
1538.6400, -40.928
1538.6600, -40.936
1538.6800, -40.945
1538.7000, -40.954
1538.7200, -40.968
1538.7400, -40.976
1538.7600, -40.986
1538.7800, -40.997
1538.8000, -40.999
1538.8200, -41.013
1538.8400, -41.024
1538.8600, -41.037
1538.8800, -41.034
1538.9000, -41.039
1538.9200, -41.051
1538.9400, -41.062
1538.9600, -41.062
1538.9800, -41.077
1539.0000, -41.083
1539.0200, -41.086
1539.0400, -41.102
1539.0600, -41.106
1539.0800, -41.112
1539.1000, -41.120
1539.1200, -41.124
1539.1400, -41.126
1539.1600, -41.145
1539.1800, -41.139
1539.2000, -41.145
1539.2200, -41.151
1539.2400, -41.159
1539.2600, -41.167
1539.2800, -41.174
1539.3000, -41.180
1539.3200, -41.179
1539.3400, -41.181
1539.3600, -41.185
1539.3800, -41.200
1539.4000, -41.204
1539.4200, -41.206
1539.4400, -41.215
1539.4600, -41.214
1539.4800, -41.221
1539.5000, -41.232
1539.5200, -41.238
1539.5400, -41.246
1539.5600, -41.253
1539.5800, -41.255
1539.6000, -41.260
1539.6200, -41.269
1539.6400, -41.275
1539.6600, -41.278
1539.6800, -41.280
1539.7000, -41.281
1539.7200, -41.277
1539.7400, -41.288
1539.7600, -41.286
1539.7800, -41.285
1539.8000, -41.284
1539.8200, -41.280
1539.8400, -41.286
1539.8600, -41.282
1539.8800, -41.296
1539.9000, -41.295
1539.9200, -41.301
1539.9400, -41.299
1539.9600, -41.299
1539.9800, -41.298
1540.0000, -41.300
1540.0200, -41.296
1540.0400, -41.297
1540.0600, -41.294
1540.0800, -41.303
1540.1000, -41.305
1540.1200, -41.310
1540.1400, -41.310
1540.1600, -41.307
1540.1800, -41.311
1540.2000, -41.316
1540.2200, -41.314
1540.2400, -41.315
1540.2600, -41.317
1540.2800, -41.314
1540.3000, -41.310
1540.3200, -41.305
1540.3400, -41.297
1540.3600, -41.299
1540.3800, -41.299
1540.4000, -41.298
1540.4200, -41.304
1540.4400, -41.306
1540.4600, -41.305
1540.4800, -41.305
1540.5000, -41.303
1540.5200, -41.297
1540.5400, -41.303
1540.5600, -41.304
1540.5800, -41.304
1540.6000, -41.302
1540.6200, -41.296
1540.6400, -41.293
1540.6600, -41.299
1540.6800, -41.295
1540.7000, -41.289
1540.7200, -41.288
1540.7400, -41.284
1540.7600, -41.292
1540.7800, -41.276
1540.8000, -41.287
1540.8200, -41.281
1540.8400, -41.276
1540.8600, -41.275
1540.8800, -41.271
1540.9000, -41.262
1540.9200, -41.265
1540.9400, -41.258
1540.9600, -41.252
1540.9800, -41.259
1541.0000, -41.253
1541.0200, -41.252
1541.0400, -41.252
1541.0600, -41.246
1541.0800, -41.244
1541.1000, -41.236
1541.1200, -41.235
1541.1400, -41.224
1541.1600, -41.218
1541.1800, -41.227
1541.2000, -41.228
1541.2200, -41.224
1541.2400, -41.217
1541.2600, -41.216
1541.2800, -41.212
1541.3000, -41.206
1541.3200, -41.210
1541.3400, -41.209
1541.3600, -41.207
1541.3800, -41.210
1541.4000, -41.203
1541.4200, -41.199
1541.4400, -41.198
1541.4600, -41.199
1541.4800, -41.196
1541.5000, -41.190
1541.5200, -41.187
1541.5400, -41.183
1541.5600, -41.188
1541.5800, -41.181
1541.6000, -41.176
1541.6200, -41.172
1541.6400, -41.162
1541.6600, -41.167
1541.6800, -41.168
1541.7000, -41.160
1541.7200, -41.160
1541.7400, -41.156
1541.7600, -41.147
1541.7800, -41.145
1541.8000, -41.145
1541.8200, -41.139
1541.8400, -41.134
1541.8600, -41.128
1541.8800, -41.119
1541.9000, -41.127
1541.9200, -41.125
1541.9400, -41.125
1541.9600, -41.115
1541.9800, -41.106
1542.0000, -41.103
1542.0200, -41.100
1542.0400, -41.091
1542.0600, -41.073
1542.0800, -41.070
1542.1000, -41.080
1542.1200, -41.077
1542.1400, -41.071
1542.1600, -41.068
1542.1800, -41.066
1542.2000, -41.057
1542.2200, -41.051
1542.2400, -41.053
1542.2600, -41.049
1542.2800, -41.046
1542.3000, -41.044
1542.3200, -41.035
1542.3400, -41.025
1542.3600, -41.021
1542.3800, -41.016
1542.4000, -41.017
1542.4200, -41.015
1542.4400, -41.003
1542.4600, -40.984
1542.4800, -40.993
1542.5000, -40.985
1542.5200, -40.973
1542.5400, -40.972
1542.5600, -40.970
1542.5800, -40.984
1542.6000, -40.964
1542.6200, -40.972
1542.6400, -40.971
1542.6600, -40.958
1542.6800, -40.952
1542.7000, -40.949
1542.7200, -40.945
1542.7400, -40.939
1542.7600, -40.933
1542.7800, -40.929
1542.8000, -40.933
1542.8200, -40.929
1542.8400, -40.930
1542.8600, -40.930
1542.8800, -40.920
1542.9000, -40.913
1542.9200, -40.911
1542.9400, -40.907
1542.9600, -40.902
1542.9800, -40.888
1543.0000, -40.893
1543.0200, -40.887
1543.0400, -40.882
1543.0600, -40.883
1543.0800, -40.881
1543.1000, -40.864
1543.1200, -40.863
1543.1400, -40.864
1543.1600, -40.861
1543.1800, -40.858
1543.2000, -40.863
1543.2200, -40.852
1543.2400, -40.849
1543.2600, -40.849
1543.2800, -40.846
1543.3000, -40.844
1543.3200, -40.846
1543.3400, -40.843
1543.3600, -40.825
1543.3800, -40.830
1543.4000, -40.827
1543.4200, -40.820
1543.4400, -40.817
1543.4600, -40.809
1543.4800, -40.818
1543.5000, -40.805
1543.5200, -40.811
1543.5400, -40.807
1543.5600, -40.798
1543.5800, -40.788
1543.6000, -40.784
1543.6200, -40.787
1543.6400, -40.777
1543.6600, -40.776
1543.6800, -40.774
1543.7000, -40.771
1543.7200, -40.767
1543.7400, -40.771
1543.7600, -40.769
1543.7800, -40.758
1543.8000, -40.746
1543.8200, -40.744
1543.8400, -40.751
1543.8600, -40.746
1543.8800, -40.735
1543.9000, -40.737
1543.9200, -40.746
1543.9400, -40.743
1543.9600, -40.738
1543.9800, -40.744
1544.0000, -40.739
1544.0200, -40.733
1544.0400, -40.732
1544.0600, -40.729
1544.0800, -40.726
1544.1000, -40.731
1544.1200, -40.720
1544.1400, -40.717
1544.1600, -40.720
1544.1800, -40.716
1544.2000, -40.718
1544.2200, -40.721
1544.2400, -40.724
1544.2600, -40.714
1544.2800, -40.706
1544.3000, -40.711
1544.3200, -40.707
1544.3400, -40.700
1544.3600, -40.696
1544.3800, -40.707
1544.4000, -40.701
1544.4200, -40.703
1544.4400, -40.705
1544.4600, -40.703
1544.4800, -40.691
1544.5000, -40.687
1544.5200, -40.691
1544.5400, -40.684
1544.5600, -40.681
1544.5800, -40.675
1544.6000, -40.672
1544.6200, -40.671
1544.6400, -40.669
1544.6600, -40.677
1544.6800, -40.676
1544.7000, -40.664
1544.7200, -40.662
1544.7400, -40.667
1544.7600, -40.667
1544.7800, -40.665
1544.8000, -40.667
1544.8200, -40.670
1544.8400, -40.667
1544.8600, -40.665
1544.8800, -40.667
1544.9000, -40.666
1544.9200, -40.656
1544.9400, -40.655
1544.9600, -40.657
1544.9800, -40.659
1545.0000, -40.660
1545.0200, -40.660
1545.0400, -40.657
1545.0600, -40.654
1545.0800, -40.656
1545.1000, -40.657
1545.1200, -40.660
1545.1400, -40.660
1545.1600, -40.656
1545.1800, -40.642
1545.2000, -40.643
1545.2200, -40.649
1545.2400, -40.648
1545.2600, -40.652
1545.2800, -40.649
1545.3000, -40.658
1545.3200, -40.658
1545.3400, -40.665
1545.3600, -40.663
1545.3800, -40.656
1545.4000, -40.650
1545.4200, -40.646
1545.4400, -40.649
1545.4600, -40.643
1545.4800, -40.635
1545.5000, -40.631
1545.5200, -40.630
1545.5400, -40.627
1545.5600, -40.633
1545.5800, -40.632
1545.6000, -40.628
1545.6200, -40.629
1545.6400, -40.628
1545.6600, -40.637
1545.6800, -40.633
1545.7000, -40.626
1545.7200, -40.634
1545.7400, -40.632
1545.7600, -40.628
1545.7800, -40.629
1545.8000, -40.632
1545.8200, -40.622
1545.8400, -40.621
1545.8600, -40.618
1545.8800, -40.625
1545.9000, -40.626
1545.9200, -40.633
1545.9400, -40.624
1545.9600, -40.620
1545.9800, -40.622
1546.0000, -40.625
1546.0200, -40.626
1546.0400, -40.626
1546.0600, -40.621
1546.0800, -40.611
1546.1000, -40.605
1546.1200, -40.613
1546.1400, -40.613
1546.1600, -40.618
1546.1800, -40.620
1546.2000, -40.617
1546.2200, -40.624
1546.2400, -40.634
1546.2600, -40.631
1546.2800, -40.628
1546.3000, -40.625
1546.3200, -40.621
1546.3400, -40.624
1546.3600, -40.621
1546.3800, -40.619
1546.4000, -40.624
1546.4200, -40.624
1546.4400, -40.629
1546.4600, -40.631
1546.4800, -40.637
1546.5000, -40.631
1546.5200, -40.631
1546.5400, -40.626
1546.5600, -40.630
1546.5800, -40.624
1546.6000, -40.631
1546.6200, -40.633
1546.6400, -40.634
1546.6600, -40.631
1546.6800, -40.640
1546.7000, -40.643
1546.7200, -40.640
1546.7400, -40.632
1546.7600, -40.631
1546.7800, -40.631
1546.8000, -40.630
1546.8200, -40.638
1546.8400, -40.636
1546.8600, -40.629
1546.8800, -40.626
1546.9000, -40.630
1546.9200, -40.630
1546.9400, -40.634
1546.9600, -40.630
1546.9800, -40.629
1547.0000, -40.618
1547.0200, -40.625
1547.0400, -40.625
1547.0600, -40.627
1547.0800, -40.629
1547.1000, -40.632
1547.1200, -40.630
1547.1400, -40.634
1547.1600, -40.639
1547.1800, -40.640
1547.2000, -40.643
1547.2200, -40.637
1547.2400, -40.638
1547.2600, -40.632
1547.2800, -40.632
1547.3000, -40.635
1547.3200, -40.635
1547.3400, -40.636
1547.3600, -40.641
1547.3800, -40.652
1547.4000, -40.648
1547.4200, -40.642
1547.4400, -40.636
1547.4600, -40.641
1547.4800, -40.634
1547.5000, -40.637
1547.5200, -40.638
1547.5400, -40.641
1547.5600, -40.640
1547.5800, -40.643
1547.6000, -40.644
1547.6200, -40.638
1547.6400, -40.646
1547.6600, -40.653
1547.6800, -40.656
1547.7000, -40.660
1547.7200, -40.668
1547.7400, -40.664
1547.7600, -40.661
1547.7800, -40.660
1547.8000, -40.662
1547.8200, -40.663
1547.8400, -40.666
1547.8600, -40.660
1547.8800, -40.660
1547.9000, -40.650
1547.9200, -40.661
1547.9400, -40.662
1547.9600, -40.660
1547.9800, -40.665
1548.0000, -40.672
1548.0200, -40.671
1548.0400, -40.680
1548.0600, -40.683
1548.0800, -40.679
1548.1000, -40.680
1548.1200, -40.675
1548.1400, -40.674
1548.1600, -40.667
1548.1800, -40.670
1548.2000, -40.674
1548.2200, -40.681
1548.2400, -40.677
1548.2600, -40.686
1548.2800, -40.689
1548.3000, -40.687
1548.3200, -40.689
1548.3400, -40.680
1548.3600, -40.689
1548.3800, -40.685
1548.4000, -40.677
1548.4200, -40.684
1548.4400, -40.695
1548.4600, -40.695
1548.4800, -40.702
1548.5000, -40.703
1548.5200, -40.691
1548.5400, -40.693
1548.5600, -40.696
1548.5800, -40.697
1548.6000, -40.703
1548.6200, -40.709
1548.6400, -40.711
1548.6600, -40.708
1548.6800, -40.710
1548.7000, -40.711
1548.7200, -40.717
1548.7400, -40.721
1548.7600, -40.724
1548.7800, -40.729
1548.8000, -40.724
1548.8200, -40.731
1548.8400, -40.733
1548.8600, -40.732
1548.8800, -40.731
1548.9000, -40.740
1548.9200, -40.738
1548.9400, -40.744
1548.9600, -40.750
1548.9800, -40.746
1549.0000, -40.748
1549.0200, -40.741
1549.0400, -40.745
1549.0600, -40.740
1549.0800, -40.745
1549.1000, -40.742
1549.1200, -40.743
1549.1400, -40.743
1549.1600, -40.746
1549.1800, -40.750
1549.2000, -40.754
1549.2200, -40.757
1549.2400, -40.750
1549.2600, -40.761
1549.2800, -40.751
1549.3000, -40.758
1549.3200, -40.749
1549.3400, -40.755
1549.3600, -40.747
1549.3800, -40.759
1549.4000, -40.760
1549.4200, -40.764
1549.4400, -40.764
1549.4600, -40.767
1549.4800, -40.773
1549.5000, -40.775
1549.5200, -40.783
1549.5400, -40.785
1549.5600, -40.782
1549.5800, -40.787
1549.6000, -40.788
1549.6200, -40.790
1549.6400, -40.788
1549.6600, -40.789
1549.6800, -40.801
1549.7000, -40.791
1549.7200, -40.799
1549.7400, -40.803
1549.7600, -40.803
1549.7800, -40.807
1549.8000, -40.813
1549.8200, -40.814
1549.8400, -40.819
1549.8600, -40.823
1549.8800, -40.827
1549.9000, -40.827
1549.9200, -40.822
1549.9400, -40.824
1549.9600, -40.818
1549.9800, -40.826
1550.0000, -40.828
1550.0200, -40.834
1550.0400, -40.830
1550.0600, -40.834
1550.0800, -40.831
1550.1000, -40.839
1550.1200, -40.840
1550.1400, -40.831
1550.1600, -40.837
1550.1800, -40.829
1550.2000, -40.844
1550.2200, -40.843
1550.2400, -40.849
1550.2600, -40.849
1550.2800, -40.859
1550.3000, -40.863
1550.3200, -40.870
1550.3400, -40.867
1550.3600, -40.874
1550.3800, -40.880
1550.4000, -40.881
1550.4200, -40.887
1550.4400, -40.883
1550.4600, -40.883
1550.4800, -40.886
1550.5000, -40.886
1550.5200, -40.894
1550.5400, -40.890
1550.5600, -40.887
1550.5800, -40.896
1550.6000, -40.888
1550.6200, -40.898
1550.6400, -40.905
1550.6600, -40.904
1550.6800, -40.910
1550.7000, -40.920
1550.7200, -40.918
1550.7400, -40.924
1550.7600, -40.924
1550.7800, -40.931
1550.8000, -40.936
1550.8200, -40.934
1550.8400, -40.939
1550.8600, -40.940
1550.8800, -40.946
1550.9000, -40.947
1550.9200, -40.955
1550.9400, -40.953
1550.9600, -40.962
1550.9800, -40.958
1551.0000, -40.961
1551.0200, -40.965
1551.0400, -40.962
1551.0600, -40.971
1551.0800, -40.964
1551.1000, -40.965
1551.1200, -40.970
1551.1400, -40.982
1551.1600, -40.983
1551.1800, -40.993
1551.2000, -40.994
1551.2200, -40.991
1551.2400, -40.997
1551.2600, -41.005
1551.2800, -41.007
1551.3000, -41.008
1551.3200, -41.013
1551.3400, -41.015
1551.3600, -41.013
1551.3800, -41.013
1551.4000, -41.012
1551.4200, -41.010
1551.4400, -41.009
1551.4600, -41.011
1551.4800, -41.020
1551.5000, -41.015
1551.5200, -41.023
1551.5400, -41.026
1551.5600, -41.025
1551.5800, -41.028
1551.6000, -41.038
1551.6200, -41.033
1551.6400, -41.046
1551.6600, -41.040
1551.6800, -41.047
1551.7000, -41.053
1551.7200, -41.051
1551.7400, -41.056
1551.7600, -41.057
1551.7800, -41.066
1551.8000, -41.065
1551.8200, -41.076
1551.8400, -41.070
1551.8600, -41.080
1551.8800, -41.073
1551.9000, -41.079
1551.9200, -41.080
1551.9400, -41.082
1551.9600, -41.081
1551.9800, -41.081
1552.0000, -41.087
1552.0200, -41.083
1552.0400, -41.091
1552.0600, -41.094
1552.0800, -41.101
1552.1000, -41.107
1552.1200, -41.111
1552.1400, -41.116
1552.1600, -41.119
1552.1800, -41.123
1552.2000, -41.124
1552.2200, -41.127
1552.2400, -41.124
1552.2600, -41.126
1552.2800, -41.132
1552.3000, -41.130
1552.3200, -41.132
1552.3400, -41.131
1552.3600, -41.133
1552.3800, -41.136
1552.4000, -41.138
1552.4200, -41.145
1552.4400, -41.143
1552.4600, -41.140
1552.4800, -41.148
1552.5000, -41.154
1552.5200, -41.151
1552.5400, -41.160
1552.5600, -41.157
1552.5800, -41.162
1552.6000, -41.169
1552.6200, -41.173
1552.6400, -41.178
1552.6600, -41.185
1552.6800, -41.188
1552.7000, -41.193
1552.7200, -41.201
1552.7400, -41.198
1552.7600, -41.204
1552.7800, -41.199
1552.8000, -41.205
1552.8200, -41.203
1552.8400, -41.210
1552.8600, -41.208
1552.8800, -41.219
1552.9000, -41.223
1552.9200, -41.219
1552.9400, -41.222
1552.9600, -41.228
1552.9800, -41.228
1553.0000, -41.234
1553.0200, -41.228
1553.0400, -41.234
1553.0600, -41.237
1553.0800, -41.243
1553.1000, -41.248
1553.1200, -41.251
1553.1400, -41.250
1553.1600, -41.256
1553.1800, -41.261
1553.2000, -41.265
1553.2200, -41.268
1553.2400, -41.272
1553.2600, -41.276
1553.2800, -41.274
1553.3000, -41.280
1553.3200, -41.286
1553.3400, -41.283
1553.3600, -41.284
1553.3800, -41.293
1553.4000, -41.289
1553.4200, -41.292
1553.4400, -41.293
1553.4600, -41.287
1553.4800, -41.293
1553.5000, -41.290
1553.5200, -41.294
1553.5400, -41.293
1553.5600, -41.297
1553.5800, -41.294
1553.6000, -41.301
1553.6200, -41.300
1553.6400, -41.303
1553.6600, -41.307
1553.6800, -41.306
1553.7000, -41.311
1553.7200, -41.305
1553.7400, -41.309
1553.7600, -41.304
1553.7800, -41.308
1553.8000, -41.309
1553.8200, -41.319
1553.8400, -41.320
1553.8600, -41.327
1553.8800, -41.329
1553.9000, -41.333
1553.9200, -41.332
1553.9400, -41.336
1553.9600, -41.338
1553.9800, -41.341
1554.0000, -41.350
1554.0200, -41.353
1554.0400, -41.354
1554.0600, -41.359
1554.0800, -41.361
1554.1000, -41.367
1554.1200, -41.368
1554.1400, -41.374
1554.1600, -41.380
1554.1800, -41.374
1554.2000, -41.382
1554.2200, -41.386
1554.2400, -41.380
1554.2600, -41.381
1554.2800, -41.391
1554.3000, -41.384
1554.3200, -41.392
1554.3400, -41.390
1554.3600, -41.392
1554.3800, -41.396
1554.4000, -41.391
1554.4200, -41.392
1554.4400, -41.389
1554.4600, -41.393
1554.4800, -41.393
1554.5000, -41.403
1554.5200, -41.405
1554.5400, -41.407
1554.5600, -41.405
1554.5800, -41.410
1554.6000, -41.413
1554.6200, -41.414
1554.6400, -41.416
1554.6600, -41.418
1554.6800, -41.428
1554.7000, -41.425
1554.7200, -41.431
1554.7400, -41.430
1554.7600, -41.434
1554.7800, -41.432
1554.8000, -41.438
1554.8200, -41.438
1554.8400, -41.439
1554.8600, -41.442
1554.8800, -41.446
1554.9000, -41.451
1554.9200, -41.448
1554.9400, -41.447
1554.9600, -41.452
1554.9800, -41.450
1555.0000, -41.454
1555.0200, -41.456
1555.0400, -41.453
1555.0600, -41.452
1555.0800, -41.453
1555.1000, -41.459
1555.1200, -41.458
1555.1400, -41.454
1555.1600, -41.468
1555.1800, -41.472
1555.2000, -41.474
1555.2200, -41.479
1555.2400, -41.475
1555.2600, -41.482
1555.2800, -41.487
1555.3000, -41.487
1555.3200, -41.488
1555.3400, -41.487
1555.3600, -41.487
1555.3800, -41.489
1555.4000, -41.499
1555.4200, -41.494
1555.4400, -41.500
1555.4600, -41.501
1555.4800, -41.505
1555.5000, -41.503
1555.5200, -41.511
1555.5400, -41.509
1555.5600, -41.521
1555.5800, -41.522
1555.6000, -41.526
1555.6200, -41.525
1555.6400, -41.532
1555.6600, -41.533
1555.6800, -41.537
1555.7000, -41.537
1555.7200, -41.535
1555.7400, -41.538
1555.7600, -41.542
1555.7800, -41.547
1555.8000, -41.548
1555.8200, -41.546
1555.8400, -41.553
1555.8600, -41.553
1555.8800, -41.560
1555.9000, -41.564
1555.9200, -41.567
1555.9400, -41.571
1555.9600, -41.567
1555.9800, -41.577
1556.0000, -41.583
1556.0200, -41.581
1556.0400, -41.584
1556.0600, -41.598
1556.0800, -41.595
1556.1000, -41.598
1556.1200, -41.598
1556.1400, -41.606
1556.1600, -41.609
1556.1800, -41.606
1556.2000, -41.607
1556.2200, -41.607
1556.2400, -41.612
1556.2600, -41.607
1556.2800, -41.614
1556.3000, -41.611
1556.3200, -41.617
1556.3400, -41.616
1556.3600, -41.619
1556.3800, -41.623
1556.4000, -41.623
1556.4200, -41.627
1556.4400, -41.626
1556.4600, -41.625
1556.4800, -41.632
1556.5000, -41.638
1556.5200, -41.641
1556.5400, -41.646
1556.5600, -41.647
1556.5800, -41.645
1556.6000, -41.646
1556.6200, -41.652
1556.6400, -41.658
1556.6600, -41.665
1556.6800, -41.674
1556.7000, -41.675
1556.7200, -41.675
1556.7400, -41.680
1556.7600, -41.680
1556.7800, -41.688
1556.8000, -41.688
1556.8200, -41.696
1556.8400, -41.696
1556.8600, -41.695
1556.8800, -41.701
1556.9000, -41.699
1556.9200, -41.699
1556.9400, -41.717
1556.9600, -41.718
1556.9800, -41.716
1557.0000, -41.724
1557.0200, -41.716
1557.0400, -41.724
1557.0600, -41.724
1557.0800, -41.724
1557.1000, -41.726
1557.1200, -41.726
1557.1400, -41.730
1557.1600, -41.734
1557.1800, -41.745
1557.2000, -41.744
1557.2200, -41.750
1557.2400, -41.749
1557.2600, -41.758
1557.2800, -41.758
1557.3000, -41.764
1557.3200, -41.766
1557.3400, -41.774
1557.3600, -41.779
1557.3800, -41.785
1557.4000, -41.794
1557.4200, -41.804
1557.4400, -41.808
1557.4600, -41.818
1557.4800, -41.818
1557.5000, -41.820
1557.5200, -41.826
1557.5400, -41.831
1557.5600, -41.836
1557.5800, -41.841
1557.6000, -41.845
1557.6200, -41.847
1557.6400, -41.849
1557.6600, -41.862
1557.6800, -41.868
1557.7000, -41.875
1557.7200, -41.881
1557.7400, -41.881
1557.7600, -41.885
1557.7800, -41.890
1557.8000, -41.888
1557.8200, -41.892
1557.8400, -41.906
1557.8600, -41.903
1557.8800, -41.908
1557.9000, -41.902
1557.9200, -41.911
1557.9400, -41.920
1557.9600, -41.919
1557.9800, -41.925
1558.0000, -41.927
1558.0200, -41.935
1558.0400, -41.937
1558.0600, -41.956
1558.0800, -41.956
1558.1000, -41.967
1558.1200, -41.969
1558.1400, -41.975
1558.1600, -41.980
1558.1800, -41.984
1558.2000, -41.987
1558.2200, -41.991
1558.2400, -41.999
1558.2600, -42.001
1558.2800, -42.004
1558.3000, -42.010
1558.3200, -42.013
1558.3400, -42.019
1558.3600, -42.031
1558.3800, -42.029
1558.4000, -42.035
1558.4200, -42.041
1558.4400, -42.047
1558.4600, -42.048
1558.4800, -42.056
1558.5000, -42.056
1558.5200, -42.068
1558.5400, -42.077
1558.5600, -42.085
1558.5800, -42.089
1558.6000, -42.097
1558.6200, -42.096
1558.6400, -42.102
1558.6600, -42.110
1558.6800, -42.111
1558.7000, -42.123
1558.7200, -42.139
1558.7400, -42.135
1558.7600, -42.142
1558.7800, -42.147
1558.8000, -42.154
1558.8200, -42.165
1558.8400, -42.167
1558.8600, -42.173
1558.8800, -42.177
1558.9000, -42.182
1558.9200, -42.186
1558.9400, -42.203
1558.9600, -42.211
1558.9800, -42.221
1559.0000, -42.218
1559.0200, -42.233
1559.0400, -42.242
1559.0600, -42.248
1559.0800, -42.255
1559.1000, -42.262
1559.1200, -42.275
1559.1400, -42.284
1559.1600, -42.294
1559.1800, -42.300
1559.2000, -42.313
1559.2200, -42.313
1559.2400, -42.320
1559.2600, -42.328
1559.2800, -42.336
1559.3000, -42.343
1559.3200, -42.357
1559.3400, -42.363
1559.3600, -42.369
1559.3800, -42.373
1559.4000, -42.379
1559.4200, -42.389
1559.4400, -42.399
1559.4600, -42.401
1559.4800, -42.416
1559.5000, -42.424
1559.5200, -42.430
1559.5400, -42.446
1559.5600, -42.449
1559.5800, -42.457
1559.6000, -42.474
1559.6200, -42.481
1559.6400, -42.486
1559.6600, -42.489
1559.6800, -42.492
1559.7000, -42.511
1559.7200, -42.518
1559.7400, -42.526
1559.7600, -42.534
1559.7800, -42.539
1559.8000, -42.544
1559.8200, -42.558
1559.8400, -42.570
1559.8600, -42.577
1559.8800, -42.585
1559.9000, -42.591
1559.9200, -42.604
1559.9400, -42.611
1559.9600, -42.622
1559.9800, -42.633
1560.0000, -42.651
1560.0200, -42.662
1560.0400, -42.670
1560.0600, -42.676
1560.0800, -42.690
1560.1000, -42.694
1560.1200, -42.704
1560.1400, -42.714
1560.1600, -42.723
1560.1800, -42.739
1560.2000, -42.752
1560.2200, -42.765
1560.2400, -42.773
1560.2600, -42.782
1560.2800, -42.795
1560.3000, -42.809
1560.3200, -42.820
1560.3400, -42.829
1560.3600, -42.839
1560.3800, -42.848
1560.4000, -42.848
1560.4200, -42.860
1560.4400, -42.870
1560.4600, -42.877
1560.4800, -42.893
1560.5000, -42.911
1560.5200, -42.920
1560.5400, -42.933
1560.5600, -42.937
1560.5800, -42.954
1560.6000, -42.964
1560.6200, -42.974
1560.6400, -42.987
1560.6600, -42.997
1560.6800, -43.009
1560.7000, -43.020
1560.7200, -43.036
1560.7400, -43.047
1560.7600, -43.053
1560.7800, -43.060
1560.8000, -43.078
1560.8200, -43.082
1560.8400, -43.095
1560.8600, -43.101
1560.8800, -43.120
1560.9000, -43.135
1560.9200, -43.145
1560.9400, -43.153
1560.9600, -43.169
1560.9800, -43.174
1561.0000, -43.184
1561.0200, -43.194
1561.0400, -43.205
1561.0600, -43.221
1561.0800, -43.237
1561.1000, -43.250
1561.1200, -43.263
1561.1400, -43.279
1561.1600, -43.287
1561.1800, -43.301
1561.2000, -43.315
1561.2200, -43.329
1561.2400, -43.343
1561.2600, -43.358
1561.2800, -43.366
1561.3000, -43.382
1561.3200, -43.393
1561.3400, -43.407
1561.3600, -43.430
1561.3800, -43.446
1561.4000, -43.455
1561.4200, -43.471
1561.4400, -43.481
1561.4600, -43.498
1561.4800, -43.511
1561.5000, -43.519
1561.5200, -43.535
1561.5400, -43.545
1561.5600, -43.562
1561.5800, -43.577
1561.6000, -43.595
1561.6200, -43.603
1561.6400, -43.620
1561.6600, -43.633
1561.6800, -43.655
1561.7000, -43.667
1561.7200, -43.683
1561.7400, -43.697
1561.7600, -43.710
1561.7800, -43.729
1561.8000, -43.740
1561.8200, -43.750
1561.8400, -43.768
1561.8600, -43.778
1561.8800, -43.797
1561.9000, -43.807
1561.9200, -43.817
1561.9400, -43.827
1561.9600, -43.846
1561.9800, -43.861
1562.0000, -43.877
1562.0200, -43.888
1562.0400, -43.901
1562.0600, -43.916
1562.0800, -43.925
1562.1000, -43.950
1562.1200, -43.968
1562.1400, -43.983
1562.1600, -43.992
1562.1800, -44.012
1562.2000, -44.027
1562.2200, -44.039
1562.2400, -44.063
1562.2600, -44.085
1562.2800, -44.092
1562.3000, -44.109
1562.3200, -44.123
1562.3400, -44.146
1562.3600, -44.158
1562.3800, -44.168
1562.4000, -44.186
1562.4200, -44.196
1562.4400, -44.212
1562.4600, -44.229
1562.4800, -44.248
1562.5000, -44.261
1562.5200, -44.280
1562.5400, -44.291
1562.5600, -44.312
1562.5800, -44.326
1562.6000, -44.341
1562.6200, -44.358
1562.6400, -44.377
1562.6600, -44.392
1562.6800, -44.405
1562.7000, -44.420
1562.7200, -44.437
1562.7400, -44.451
1562.7600, -44.468
1562.7800, -44.480
1562.8000, -44.500
1562.8200, -44.515
1562.8400, -44.533
1562.8600, -44.554
1562.8800, -44.571
1562.9000, -44.586
1562.9200, -44.602
1562.9400, -44.620
1562.9600, -44.632
1562.9800, -44.652
1563.0000, -44.676
1563.0200, -44.694
1563.0400, -44.703
1563.0600, -44.724
1563.0800, -44.742
1563.1000, -44.758
1563.1200, -44.782
1563.1400, -44.805
1563.1600, -44.815
1563.1800, -44.834
1563.2000, -44.844
1563.2200, -44.865
1563.2400, -44.885
1563.2600, -44.895
1563.2800, -44.913
1563.3000, -44.930
1563.3200, -44.941
1563.3400, -44.958
1563.3600, -44.981
1563.3800, -44.994
1563.4000, -45.016
1563.4200, -45.028
1563.4400, -45.053
1563.4600, -45.067
1563.4800, -45.083
1563.5000, -45.101
1563.5200, -45.119
1563.5400, -45.139
1563.5600, -45.152
1563.5800, -45.164
1563.6000, -45.189
1563.6200, -45.204
1563.6400, -45.226
1563.6600, -45.241
1563.6800, -45.259
1563.7000, -45.278
1563.7200, -45.302
1563.7400, -45.318
1563.7600, -45.334
1563.7800, -45.352
1563.8000, -45.370
1563.8200, -45.385
1563.8400, -45.399
1563.8600, -45.416
1563.8800, -45.446
1563.9000, -45.469
1563.9200, -45.478
1563.9400, -45.498
1563.9600, -45.518
1563.9800, -45.533
1564.0000, -45.558
1564.0200, -45.579
1564.0400, -45.591
1564.0600, -45.611
1564.0800, -45.626
1564.1000, -45.647
1564.1200, -45.663
1564.1400, -45.673
1564.1600, -45.696
1564.1800, -45.709
1564.2000, -45.730
1564.2200, -45.752
1564.2400, -45.766
1564.2600, -45.786
1564.2800, -45.805
1564.3000, -45.823
1564.3200, -45.844
1564.3400, -45.860
1564.3600, -45.879
1564.3800, -45.900
1564.4000, -45.920
1564.4200, -45.941
1564.4400, -45.959
1564.4600, -45.975
1564.4800, -45.999
1564.5000, -46.016
1564.5200, -46.039
1564.5400, -46.054
1564.5600, -46.077
1564.5800, -46.093
1564.6000, -46.116
1564.6200, -46.134
1564.6400, -46.152
1564.6600, -46.170
1564.6800, -46.193
1564.7000, -46.207
1564.7200, -46.228
1564.7400, -46.248
1564.7600, -46.272
1564.7800, -46.290
1564.8000, -46.300
1564.8200, -46.322
1564.8400, -46.342
1564.8600, -46.360
1564.8800, -46.382
1564.9000, -46.406
1564.9200, -46.417
1564.9400, -46.442
1564.9600, -46.459
1564.9800, -46.477
1565.0000, -46.499
1565.0200, -46.517
1565.0400, -46.538
1565.0600, -46.553
1565.0800, -46.571
1565.1000, -46.596
1565.1200, -46.617
1565.1400, -46.633
1565.1600, -46.654
1565.1800, -46.673
1565.2000, -46.693
1565.2200, -46.711
1565.2400, -46.733
1565.2600, -46.749
1565.2800, -46.773
1565.3000, -46.793
1565.3200, -46.812
1565.3400, -46.816
1565.3600, -46.848
1565.3800, -46.874
1565.4000, -46.894
1565.4200, -46.913
1565.4400, -46.936
1565.4600, -46.949
1565.4800, -46.971
1565.5000, -46.992
1565.5200, -47.012
1565.5400, -47.032
1565.5600, -47.053
1565.5800, -47.073
1565.6000, -47.083
1565.6200, -47.110
1565.6400, -47.128
1565.6600, -47.149
1565.6800, -47.161
1565.7000, -47.186
1565.7200, -47.206
1565.7400, -47.227
1565.7600, -47.249
1565.7800, -47.271
1565.8000, -47.290
1565.8200, -47.306
1565.8400, -47.329
1565.8600, -47.346
1565.8800, -47.365
1565.9000, -47.379
1565.9200, -47.397
1565.9400, -47.419
1565.9600, -47.441
1565.9800, -47.461
1566.0000, -47.477
1566.0200, -47.499
1566.0400, -47.522
1566.0600, -47.546
1566.0800, -47.561
1566.1000, -47.572
1566.1200, -47.591
1566.1400, -47.616
1566.1600, -47.641
1566.1800, -47.660
1566.2000, -47.677
1566.2200, -47.680
1566.2400, -47.717
1566.2600, -47.738
1566.2800, -47.752
1566.3000, -47.776
1566.3200, -47.797
1566.3400, -47.814
1566.3600, -47.834
1566.3800, -47.858
1566.4000, -47.877
1566.4200, -47.896
1566.4400, -47.916
1566.4600, -47.935
1566.4800, -47.954
1566.5000, -47.973
1566.5200, -47.994
1566.5400, -48.015
1566.5600, -48.033
1566.5800, -48.051
1566.6000, -48.071
1566.6200, -48.093
1566.6400, -48.116
1566.6600, -48.137
1566.6800, -48.157
1566.7000, -48.177
1566.7200, -48.193
1566.7400, -48.208
1566.7600, -48.234
1566.7800, -48.256
1566.8000, -48.272
1566.8200, -48.291
1566.8400, -48.308
1566.8600, -48.330
1566.8800, -48.344
1566.9000, -48.371
1566.9200, -48.391
1566.9400, -48.404
1566.9600, -48.429
1566.9800, -48.433
1567.0000, -48.464
1567.0200, -48.485
1567.0400, -48.508
1567.0600, -48.527
1567.0800, -48.554
1567.1000, -48.566
1567.1200, -48.590
1567.1400, -48.605
1567.1600, -48.622
1567.1800, -48.646
1567.2000, -48.666
1567.2200, -48.685
1567.2400, -48.710
1567.2600, -48.737
1567.2800, -48.746
1567.3000, -48.765
1567.3200, -48.785
1567.3400, -48.803
1567.3600, -48.828
1567.3800, -48.849
1567.4000, -48.868
1567.4200, -48.881
1567.4400, -48.899
1567.4600, -48.923
1567.4800, -48.942
1567.5000, -48.963
1567.5200, -48.987
1567.5400, -49.007
1567.5600, -49.032
1567.5800, -49.045
1567.6000, -49.069
1567.6200, -49.083
1567.6400, -49.102
1567.6600, -49.121
1567.6800, -49.140
1567.7000, -49.161
1567.7200, -49.176
1567.7400, -49.203
1567.7600, -49.214
1567.7800, -49.240
1567.8000, -49.261
1567.8200, -49.282
1567.8400, -49.298
1567.8600, -49.310
1567.8800, -49.336
1567.9000, -49.354
1567.9200, -49.377
1567.9400, -49.394
1567.9600, -49.412
1567.9800, -49.432
1568.0000, -49.456
1568.0200, -49.473
1568.0400, -49.489
1568.0600, -49.507
1568.0800, -49.528
1568.1000, -49.553
1568.1200, -49.573
1568.1400, -49.589
1568.1600, -49.611
1568.1800, -49.631
1568.2000, -49.646
1568.2200, -49.667
1568.2400, -49.688
1568.2600, -49.709
1568.2800, -49.742
1568.3000, -49.750
1568.3200, -49.772
1568.3400, -49.794
1568.3600, -49.811
1568.3800, -49.833
1568.4000, -49.857
1568.4200, -49.874
1568.4400, -49.893
1568.4600, -49.914
1568.4800, -49.932
1568.5000, -49.949
1568.5200, -49.967
1568.5400, -49.983
1568.5600, -50.001
1568.5800, -50.023
1568.6000, -50.043
1568.6200, -50.065
1568.6400, -50.078
1568.6600, -50.106
1568.6800, -50.126
1568.7000, -50.148
1568.7200, -50.161
1568.7400, -50.180
1568.7600, -50.202
1568.7800, -50.223
1568.8000, -50.239
1568.8200, -50.262
1568.8400, -50.278
1568.8600, -50.299
1568.8800, -50.322
1568.9000, -50.339
1568.9200, -50.356
1568.9400, -50.375
1568.9600, -50.390
1568.9800, -50.416
1569.0000, -50.435
1569.0200, -50.450
1569.0400, -50.470
1569.0600, -50.491
1569.0800, -50.512
1569.1000, -50.532
1569.1200, -50.553
1569.1400, -50.575
1569.1600, -50.581
1569.1800, -50.602
1569.2000, -50.629
1569.2200, -50.647
1569.2400, -50.664
1569.2600, -50.682
1569.2800, -50.702
1569.3000, -50.723
1569.3200, -50.740
1569.3400, -50.759
1569.3600, -50.777
1569.3800, -50.797
1569.4000, -50.814
1569.4200, -50.828
1569.4400, -50.847
1569.4600, -50.864
1569.4800, -50.889
1569.5000, -50.903
1569.5200, -50.930
1569.5400, -50.944
1569.5600, -50.966
1569.5800, -50.983
1569.6000, -50.998
1569.6200, -51.021
1569.6400, -51.042
1569.6600, -51.065
1569.6800, -51.084
1569.7000, -51.096
1569.7200, -51.115
1569.7400, -51.139
1569.7600, -51.158
1569.7800, -51.170
1569.8000, -51.192
1569.8200, -51.214
1569.8400, -51.229
1569.8600, -51.252
1569.8800, -51.269
1569.9000, -51.284
1569.9200, -51.304
1569.9400, -51.320
1569.9600, -51.339
1569.9800, -51.362
1570.0000, -51.376
1570.0200, -51.401
1570.0400, -51.408
1570.0600, -51.432
1570.0800, -51.454
1570.1000, -51.468
1570.1200, -51.493
1570.1400, -51.508
1570.1600, -51.526
1570.1800, -51.543
1570.2000, -51.565
1570.2200, -51.585
1570.2400, -51.609
1570.2600, -51.619
1570.2800, -51.637
1570.3000, -51.654
1570.3200, -51.673
1570.3400, -51.688
1570.3600, -51.710
1570.3800, -51.727
1570.4000, -51.747
1570.4200, -51.773
1570.4400, -51.783
1570.4600, -51.801
1570.4800, -51.818
1570.5000, -51.839
1570.5200, -51.853
1570.5400, -51.871
1570.5600, -51.898
1570.5800, -51.915
1570.6000, -51.931
1570.6200, -51.946
1570.6400, -51.960
1570.6600, -51.980
1570.6800, -52.005
1570.7000, -52.024
1570.7200, -52.046
1570.7400, -52.062
1570.7600, -52.081
1570.7800, -52.091
1570.8000, -52.118
1570.8200, -52.134
1570.8400, -52.153
1570.8600, -52.171
1570.8800, -52.192
1570.9000, -52.205
1570.9200, -52.219
1570.9400, -52.238
1570.9600, -52.252
1570.9800, -52.275
1571.0000, -52.297
1571.0200, -52.313
1571.0400, -52.329
1571.0600, -52.356
1571.0800, -52.367
1571.1000, -52.382
1571.1200, -52.395
1571.1400, -52.419
1571.1600, -52.435
1571.1800, -52.447
1571.2000, -52.469
1571.2200, -52.483
1571.2400, -52.503
1571.2600, -52.517
1571.2800, -52.540
1571.3000, -52.563
1571.3200, -52.578
1571.3400, -52.602
1571.3600, -52.615
1571.3800, -52.632
1571.4000, -52.649
1571.4200, -52.669
1571.4400, -52.690
1571.4600, -52.709
1571.4800, -52.730
1571.5000, -52.735
1571.5200, -52.754
1571.5400, -52.772
1571.5600, -52.793
1571.5800, -52.811
1571.6000, -52.835
1571.6200, -52.845
1571.6400, -52.864
1571.6600, -52.877
1571.6800, -52.897
1571.7000, -52.921
1571.7200, -52.932
1571.7400, -52.951
1571.7600, -52.964
1571.7800, -52.981
1571.8000, -53.006
1571.8200, -53.015
1571.8400, -53.033
1571.8600, -53.057
1571.8800, -53.071
1571.9000, -53.087
1571.9200, -53.104
1571.9400, -53.122
1571.9600, -53.139
1571.9800, -53.161
1572.0000, -53.179
1572.0200, -53.192
1572.0400, -53.213
1572.0600, -53.218
1572.0800, -53.240
1572.1000, -53.259
1572.1200, -53.269
1572.1400, -53.294
1572.1600, -53.313
1572.1800, -53.327
1572.2000, -53.343
1572.2200, -53.354
1572.2400, -53.374
1572.2600, -53.389
1572.2800, -53.409
1572.3000, -53.429
1572.3200, -53.443
1572.3400, -53.463
1572.3600, -53.478
1572.3800, -53.487
1572.4000, -53.513
1572.4200, -53.521
1572.4400, -53.542
1572.4600, -53.563
1572.4800, -53.576
1572.5000, -53.587
1572.5200, -53.613
1572.5400, -53.622
1572.5600, -53.646
1572.5800, -53.659
1572.6000, -53.678
1572.6200, -53.694
1572.6400, -53.706
1572.6600, -53.719
1572.6800, -53.740
1572.7000, -53.751
1572.7200, -53.768
1572.7400, -53.782
1572.7600, -53.796
1572.7800, -53.816
1572.8000, -53.838
1572.8200, -53.855
1572.8400, -53.867
1572.8600, -53.882
1572.8800, -53.902
1572.9000, -53.918
1572.9200, -53.927
1572.9400, -53.944
1572.9600, -53.958
1572.9800, -53.974
1573.0000, -54.005
1573.0200, -54.022
1573.0400, -54.029
1573.0600, -54.041
1573.0800, -54.063
1573.1000, -54.082
1573.1200, -54.097
1573.1400, -54.108
1573.1600, -54.127
1573.1800, -54.140
1573.2000, -54.157
1573.2200, -54.178
1573.2400, -54.187
1573.2600, -54.197
1573.2800, -54.220
1573.3000, -54.238
1573.3200, -54.252
1573.3400, -54.266
1573.3600, -54.279
1573.3800, -54.289
1573.4000, -54.315
1573.4200, -54.326
1573.4400, -54.343
1573.4600, -54.358
1573.4800, -54.377
1573.5000, -54.377
1573.5200, -54.405
1573.5400, -54.426
1573.5600, -54.437
1573.5800, -54.437
1573.6000, -54.466
1573.6200, -54.481
1573.6400, -54.511
1573.6600, -54.518
1573.6800, -54.532
1573.7000, -54.540
1573.7200, -54.566
1573.7400, -54.573
1573.7600, -54.592
1573.7800, -54.602
1573.8000, -54.607
1573.8200, -54.628
1573.8400, -54.644
1573.8600, -54.664
1573.8800, -54.679
1573.9000, -54.700
1573.9200, -54.714
1573.9400, -54.715
1573.9600, -54.726
1573.9800, -54.747
1574.0000, -54.762
1574.0200, -54.786
1574.0400, -54.791
1574.0600, -54.816
1574.0800, -54.829
1574.1000, -54.834
1574.1200, -54.861
1574.1400, -54.863
1574.1600, -54.881
1574.1800, -54.895
1574.2000, -54.924
1574.2200, -54.931
1574.2400, -54.947
1574.2600, -54.952
1574.2800, -54.983
1574.3000, -54.996
1574.3200, -54.998
1574.3400, -55.022
1574.3600, -55.025
1574.3800, -55.049
1574.4000, -55.060
1574.4200, -55.073
1574.4400, -55.078
1574.4600, -55.102
1574.4800, -55.119
1574.5000, -55.143
1574.5200, -55.150
1574.5400, -55.158
1574.5600, -55.176
1574.5800, -55.192
1574.6000, -55.205
1574.6200, -55.216
1574.6400, -55.227
1574.6600, -55.247
1574.6800, -55.255
1574.7000, -55.274
1574.7200, -55.288
1574.7400, -55.304
1574.7600, -55.322
1574.7800, -55.336
1574.8000, -55.346
1574.8200, -55.365
1574.8400, -55.377
1574.8600, -55.386
1574.8800, -55.398
1574.9000, -55.412
1574.9200, -55.434
1574.9400, -55.446
1574.9600, -55.460
1574.9800, -55.465
1575.0000, -55.489
1575.0200, -55.503
1575.0400, -55.519
1575.0600, -55.528
1575.0800, -55.547
1575.1000, -55.550
1575.1200, -55.570
1575.1400, -55.575
1575.1600, -55.599
1575.1800, -55.616
1575.2000, -55.632
1575.2200, -55.642
1575.2400, -55.651
1575.2600, -55.670
1575.2800, -55.677
1575.3000, -55.690
1575.3200, -55.707
1575.3400, -55.725
1575.3600, -55.736
1575.3800, -55.750
1575.4000, -55.759
1575.4200, -55.772
1575.4400, -55.781
1575.4600, -55.815
1575.4800, -55.799
1575.5000, -55.835
1575.5200, -55.830
1575.5400, -55.850
1575.5600, -55.856
1575.5800, -55.874
1575.6000, -55.891
1575.6200, -55.909
1575.6400, -55.915
1575.6600, -55.925
1575.6800, -55.951
1575.7000, -55.956
1575.7200, -55.976
1575.7400, -55.990
1575.7600, -55.995
1575.7800, -56.006
1575.8000, -56.018
1575.8200, -56.031
1575.8400, -56.042
1575.8600, -56.060
1575.8800, -56.073
1575.9000, -56.100
1575.9200, -56.097
1575.9400, -56.112
1575.9600, -56.124
1575.9800, -56.143
1576.0000, -56.156
1576.0200, -56.168
1576.0400, -56.169
1576.0600, -56.189
1576.0800, -56.205
1576.1000, -56.205
1576.1200, -56.229
1576.1400, -56.237
1576.1600, -56.259
1576.1800, -56.262
1576.2000, -56.272
1576.2200, -56.294
1576.2400, -56.298
1576.2600, -56.311
1576.2800, -56.330
1576.3000, -56.341
1576.3200, -56.351
1576.3400, -56.364
1576.3600, -56.370
1576.3800, -56.377
1576.4000, -56.399
1576.4200, -56.422
1576.4400, -56.406
1576.4600, -56.431
1576.4800, -56.434
1576.5000, -56.445
1576.5200, -56.462
1576.5400, -56.472
1576.5600, -56.495
1576.5800, -56.504
1576.6000, -56.504
1576.6200, -56.541
1576.6400, -56.528
1576.6600, -56.549
1576.6800, -56.553
1576.7000, -56.569
1576.7200, -56.589
1576.7400, -56.604
1576.7600, -56.604
1576.7800, -56.620
1576.8000, -56.622
1576.8200, -56.663
1576.8400, -56.655
1576.8600, -56.671
1576.8800, -56.666
1576.9000, -56.693
1576.9200, -56.706
1576.9400, -56.706
1576.9600, -56.730
1576.9800, -56.729
1577.0000, -56.746
1577.0200, -56.758
1577.0400, -56.775
1577.0600, -56.788
1577.0800, -56.812
1577.1000, -56.787
1577.1200, -56.822
1577.1400, -56.817
1577.1600, -56.836
1577.1800, -56.837
1577.2000, -56.855
1577.2200, -56.872
1577.2400, -56.873
1577.2600, -56.890
1577.2800, -56.893
1577.3000, -56.905
1577.3200, -56.921
1577.3400, -56.934
1577.3600, -56.948
1577.3800, -56.962
1577.4000, -56.978
1577.4200, -56.976
1577.4400, -56.989
1577.4600, -57.002
1577.4800, -57.015
1577.5000, -57.028
1577.5200, -57.038
1577.5400, -57.065
1577.5600, -57.045
1577.5800, -57.071
1577.6000, -57.076
1577.6200, -57.093
1577.6400, -57.089
1577.6600, -57.120
1577.6800, -57.113
1577.7000, -57.126
1577.7200, -57.144
1577.7400, -57.147
1577.7600, -57.168
1577.7800, -57.178
1577.8000, -57.174
1577.8200, -57.195
1577.8400, -57.213
1577.8600, -57.210
1577.8800, -57.232
1577.9000, -57.229
1577.9200, -57.249
1577.9400, -57.256
1577.9600, -57.268
1577.9800, -57.272
1578.0000, -57.283
1578.0200, -57.295
1578.0400, -57.308
1578.0600, -57.328
1578.0800, -57.333
1578.1000, -57.327
1578.1200, -57.379
1578.1400, -57.360
1578.1600, -57.379
1578.1800, -57.381
1578.2000, -57.386
1578.2200, -57.394
1578.2400, -57.414
1578.2600, -57.435
1578.2800, -57.449
1578.3000, -57.421
1578.3200, -57.460
1578.3400, -57.475
1578.3600, -57.468
1578.3800, -57.487
1578.4000, -57.498
1578.4200, -57.494
1578.4400, -57.508
1578.4600, -57.523
1578.4800, -57.534
1578.5000, -57.553
1578.5200, -57.558
1578.5400, -57.565
1578.5600, -57.569
1578.5800, -57.602
1578.6000, -57.603
1578.6200, -57.599
1578.6400, -57.621
1578.6600, -57.623
1578.6800, -57.643
1578.7000, -57.653
1578.7200, -57.649
1578.7400, -57.676
1578.7600, -57.665
1578.7800, -57.685
1578.8000, -57.698
1578.8200, -57.705
1578.8400, -57.711
1578.8600, -57.734
1578.8800, -57.751
1578.9000, -57.727
1578.9200, -57.753
1578.9400, -57.758
1578.9600, -57.772
1578.9800, -57.774
1579.0000, -57.802
1579.0200, -57.789
1579.0400, -57.813
1579.0600, -57.824
1579.0800, -57.822
1579.1000, -57.849
1579.1200, -57.862
1579.1400, -57.855
1579.1600, -57.863
1579.1800, -57.879
1579.2000, -57.880
1579.2200, -57.886
1579.2400, -57.902
1579.2600, -57.910
1579.2800, -57.943
1579.3000, -57.934
1579.3200, -57.927
1579.3400, -57.957
1579.3600, -57.967
1579.3800, -57.977
1579.4000, -57.979
1579.4200, -58.002
1579.4400, -57.987
1579.4600, -58.021
1579.4800, -58.016
1579.5000, -58.020
1579.5200, -58.027
1579.5400, -58.058
1579.5600, -58.045
1579.5800, -58.076
1579.6000, -58.071
1579.6200, -58.081
1579.6400, -58.099
1579.6600, -58.102
1579.6800, -58.105
1579.7000, -58.124
1579.7200, -58.119
1579.7400, -58.125
1579.7600, -58.172
1579.7800, -58.145
1579.8000, -58.157
1579.8200, -58.185
1579.8400, -58.175
1579.8600, -58.202
1579.8800, -58.191
1579.9000, -58.195
1579.9200, -58.239
1579.9400, -58.222
1579.9600, -58.229
1579.9800, -58.232
1580.0000, -58.251
1580.0200, -58.250
1580.0400, -58.265
1580.0600, -58.259
1580.0800, -58.282
1580.1000, -58.305
1580.1200, -58.288
1580.1400, -58.302
1580.1600, -58.325
1580.1800, -58.319
1580.2000, -58.335
1580.2200, -58.334
1580.2400, -58.341
1580.2600, -58.368
1580.2800, -58.365
1580.3000, -58.388
1580.3200, -58.366
1580.3400, -58.380
1580.3600, -58.403
1580.3800, -58.412
1580.4000, -58.426
1580.4200, -58.412
1580.4400, -58.433
1580.4600, -58.448
1580.4800, -58.436
1580.5000, -58.465
1580.5200, -58.460
1580.5400, -58.474
1580.5600, -58.493
1580.5800, -58.476
1580.6000, -58.514
1580.6200, -58.504
1580.6400, -58.502
1580.6600, -58.522
1580.6800, -58.531
1580.7000, -58.543
1580.7200, -58.552
1580.7400, -58.555
1580.7600, -58.553
1580.7800, -58.565
1580.8000, -58.590
1580.8200, -58.583
1580.8400, -58.614
1580.8600, -58.605
1580.8800, -58.613
1580.9000, -58.632
1580.9200, -58.622
1580.9400, -58.629
1580.9600, -58.624
1580.9800, -58.652
1581.0000, -58.657
1581.0200, -58.664
1581.0400, -58.684
1581.0600, -58.679
1581.0800, -58.695
1581.1000, -58.703
1581.1200, -58.708
1581.1400, -58.721
1581.1600, -58.732
1581.1800, -58.719
1581.2000, -58.744
1581.2200, -58.734
1581.2400, -58.757
1581.2600, -58.767
1581.2800, -58.796
1581.3000, -58.787
1581.3200, -58.771
1581.3400, -58.794
1581.3600, -58.803
1581.3800, -58.798
1581.4000, -58.814
1581.4200, -58.815
1581.4400, -58.830
1581.4600, -58.835
1581.4800, -58.835
1581.5000, -58.849
1581.5200, -58.849
1581.5400, -58.857
1581.5600, -58.883
1581.5800, -58.874
1581.6000, -58.892
1581.6200, -58.885
1581.6400, -58.899
1581.6600, -58.939
1581.6800, -58.885
1581.7000, -58.929
1581.7200, -58.928
1581.7400, -58.937
1581.7600, -58.935
1581.7800, -58.934
1581.8000, -58.972
1581.8200, -58.958
1581.8400, -58.969
1581.8600, -59.010
1581.8800, -58.980
1581.9000, -58.983
1581.9200, -58.987
1581.9400, -59.023
1581.9600, -59.001
1581.9800, -59.025
1582.0000, -59.018
1582.0200, -59.055
1582.0400, -59.054
1582.0600, -59.072
1582.0800, -59.068
1582.1000, -59.100
1582.1200, -59.060
1582.1400, -59.086
1582.1600, -59.093
1582.1800, -59.095
1582.2000, -59.100
1582.2200, -59.109
1582.2400, -59.125
1582.2600, -59.127
1582.2800, -59.131
1582.3000, -59.153
1582.3200, -59.173
1582.3400, -59.165
1582.3600, -59.159
1582.3800, -59.148
1582.4000, -59.165
1582.4200, -59.183
1582.4400, -59.187
1582.4600, -59.197
1582.4800, -59.189
1582.5000, -59.201
1582.5200, -59.237
1582.5400, -59.227
1582.5600, -59.230
1582.5800, -59.229
1582.6000, -59.228
1582.6200, -59.253
1582.6400, -59.250
1582.6600, -59.283
1582.6800, -59.246
1582.7000, -59.280
1582.7200, -59.299
1582.7400, -59.289
1582.7600, -59.295
1582.7800, -59.309
1582.8000, -59.310
1582.8200, -59.327
1582.8400, -59.322
1582.8600, -59.327
1582.8800, -59.350
1582.9000, -59.337
1582.9200, -59.368
1582.9400, -59.378
1582.9600, -59.367
1582.9800, -59.375
1583.0000, -59.367
1583.0200, -59.391
1583.0400, -59.413
1583.0600, -59.387
1583.0800, -59.398
1583.1000, -59.415
1583.1200, -59.436
1583.1400, -59.413
1583.1600, -59.461
1583.1800, -59.428
1583.2000, -59.433
1583.2200, -59.457
1583.2400, -59.443
1583.2600, -59.477
1583.2800, -59.463
1583.3000, -59.478
1583.3200, -59.509
1583.3400, -59.469
1583.3600, -59.508
1583.3800, -59.513
1583.4000, -59.508
1583.4200, -59.537
1583.4400, -59.507
1583.4600, -59.558
1583.4800, -59.516
1583.5000, -59.544
1583.5200, -59.567
1583.5400, -59.546
1583.5600, -59.581
1583.5800, -59.576
1583.6000, -59.583
1583.6200, -59.583
1583.6400, -59.601
1583.6600, -59.593
1583.6800, -59.607
1583.7000, -59.613
1583.7200, -59.630
1583.7400, -59.617
1583.7600, -59.644
1583.7800, -59.627
1583.8000, -59.618
1583.8200, -59.650
1583.8400, -59.662
1583.8600, -59.648
1583.8800, -59.661
1583.9000, -59.675
1583.9200, -59.668
1583.9400, -59.690
1583.9600, -59.671
1583.9800, -59.685
1584.0000, -59.720
1584.0200, -59.692
1584.0400, -59.696
1584.0600, -59.729
1584.0800, -59.705
1584.1000, -59.734
1584.1200, -59.730
1584.1400, -59.732
1584.1600, -59.749
1584.1800, -59.736
1584.2000, -59.744
1584.2200, -59.782
1584.2400, -59.773
1584.2600, -59.794
1584.2800, -59.765
1584.3000, -59.788
1584.3200, -59.815
1584.3400, -59.808
1584.3600, -59.773
1584.3800, -59.803
1584.4000, -59.803
1584.4200, -59.814
1584.4400, -59.830
1584.4600, -59.824
1584.4800, -59.856
1584.5000, -59.831
1584.5200, -59.839
1584.5400, -59.900
1584.5600, -59.832
1584.5800, -59.860
1584.6000, -59.863
1584.6200, -59.897
1584.6400, -59.901
1584.6600, -59.869
1584.6800, -59.882
1584.7000, -59.914
1584.7200, -59.897
1584.7400, -59.905
1584.7600, -59.917
1584.7800, -59.924
1584.8000, -59.917
1584.8200, -59.940
1584.8400, -59.967
1584.8600, -59.934
1584.8800, -59.957
1584.9000, -59.958
1584.9200, -59.962
1584.9400, -59.963
1584.9600, -59.958
1584.9800, -59.971
1585.0000, -59.988
1585.0200, -59.987
1585.0400, -59.999
1585.0600, -59.985
1585.0800, -59.995
1585.1000, -60.013
1585.1200, -59.996
1585.1400, -60.022
1585.1600, -60.043
1585.1800, -59.991
1585.2000, -60.031
1585.2200, -60.030
1585.2400, -60.061
1585.2600, -60.057
1585.2800, -60.048
1585.3000, -60.071
1585.3200, -60.070
1585.3400, -60.078
1585.3600, -60.056
1585.3800, -60.096
1585.4000, -60.078
1585.4200, -60.120
1585.4400, -60.131
1585.4600, -60.093
1585.4800, -60.100
1585.5000, -60.112
1585.5200, -60.143
1585.5400, -60.124
1585.5600, -60.154
1585.5800, -60.115
1585.6000, -60.168
1585.6200, -60.136
1585.6400, -60.141
1585.6600, -60.178
1585.6800, -60.150
1585.7000, -60.177
1585.7200, -60.175
1585.7400, -60.180
1585.7600, -60.193
1585.7800, -60.179
1585.8000, -60.184
1585.8200, -60.197
1585.8400, -60.199
1585.8600, -60.195
1585.8800, -60.239
1585.9000, -60.222
1585.9200, -60.193
1585.9400, -60.234
1585.9600, -60.216
1585.9800, -60.246
1586.0000, -60.256
1586.0200, -60.239
1586.0400, -60.250
1586.0600, -60.255
1586.0800, -60.278
1586.1000, -60.242
1586.1200, -60.289
1586.1400, -60.259
1586.1600, -60.290
1586.1800, -60.299
1586.2000, -60.295
1586.2200, -60.313
1586.2400, -60.288
1586.2600, -60.303
1586.2800, -60.321
1586.3000, -60.351
1586.3200, -60.338
1586.3400, -60.316
1586.3600, -60.323
1586.3800, -60.317
1586.4000, -60.359
1586.4200, -60.357
1586.4400, -60.342
1586.4600, -60.360
1586.4800, -60.368
1586.5000, -60.372
1586.5200, -60.360
1586.5400, -60.390
1586.5600, -60.381
1586.5800, -60.414
1586.6000, -60.418
1586.6200, -60.367
1586.6400, -60.392
1586.6600, -60.437
1586.6800, -60.395
1586.7000, -60.445
1586.7200, -60.440
1586.7400, -60.400
1586.7600, -60.452
1586.7800, -60.450
1586.8000, -60.462
1586.8200, -60.448
1586.8400, -60.443
1586.8600, -60.460
1586.8800, -60.495
1586.9000, -60.484
1586.9200, -60.474
1586.9400, -60.484
1586.9600, -60.506
1586.9800, -60.490
1587.0000, -60.511
1587.0200, -60.503
1587.0400, -60.497
1587.0600, -60.516
1587.0800, -60.557
1587.1000, -60.501
1587.1200, -60.547
1587.1400, -60.531
1587.1600, -60.519
1587.1800, -60.518
1587.2000, -60.562
1587.2200, -60.552
1587.2400, -60.545
1587.2600, -60.549
1587.2800, -60.561
1587.3000, -60.557
1587.3200, -60.621
1587.3400, -60.589
1587.3600, -60.599
1587.3800, -60.582
1587.4000, -60.584
1587.4200, -60.593
1587.4400, -60.622
1587.4600, -60.603
1587.4800, -60.623
1587.5000, -60.621
1587.5200, -60.607
1587.5400, -60.639
1587.5600, -60.635
1587.5800, -60.634
1587.6000, -60.659
1587.6200, -60.636
1587.6400, -60.665
1587.6600, -60.665
1587.6800, -60.691
1587.7000, -60.668
1587.7200, -60.682
1587.7400, -60.694
1587.7600, -60.680
1587.7800, -60.671
1587.8000, -60.716
1587.8200, -60.701
1587.8400, -60.713
1587.8600, -60.717
1587.8800, -60.737
1587.9000, -60.717
1587.9200, -60.728
1587.9400, -60.711
1587.9600, -60.760
1587.9800, -60.748
1588.0000, -60.735
1588.0200, -60.772
1588.0400, -60.741
1588.0600, -60.748
1588.0800, -60.745
1588.1000, -60.766
1588.1200, -60.763
1588.1400, -60.820
1588.1600, -60.756
1588.1800, -60.796
1588.2000, -60.783
1588.2200, -60.792
1588.2400, -60.793
1588.2600, -60.805
1588.2800, -60.821
1588.3000, -60.805
1588.3200, -60.819
1588.3400, -60.846
1588.3600, -60.788
1588.3800, -60.817
1588.4000, -60.834
1588.4200, -60.843
1588.4400, -60.852
1588.4600, -60.839
1588.4800, -60.871
1588.5000, -60.818
1588.5200, -60.846
1588.5400, -60.878
1588.5600, -60.866
1588.5800, -60.872
1588.6000, -60.871
1588.6200, -60.889
1588.6400, -60.893
1588.6600, -60.886
1588.6800, -60.906
1588.7000, -60.895
1588.7200, -60.894
1588.7400, -60.917
1588.7600, -60.925
1588.7800, -60.943
1588.8000, -60.909
1588.8200, -60.975
1588.8400, -60.903
1588.8600, -60.933
1588.8800, -60.929
1588.9000, -60.940
1588.9200, -60.964
1588.9400, -60.943
1588.9600, -60.956
1588.9800, -60.976
1589.0000, -60.988
1589.0200, -60.948
1589.0400, -60.930
1589.0600, -61.008
1589.0800, -60.981
1589.1000, -60.973
1589.1200, -61.003
1589.1400, -61.011
1589.1600, -60.985
1589.1800, -61.002
1589.2000, -61.006
1589.2200, -61.019
1589.2400, -60.996
1589.2600, -61.019
1589.2800, -61.005
1589.3000, -61.030
1589.3200, -61.052
1589.3400, -61.024
1589.3600, -61.035
1589.3800, -61.051
1589.4000, -61.064
1589.4200, -61.060
1589.4400, -61.045
1589.4600, -61.052
1589.4800, -61.097
1589.5000, -61.091
1589.5200, -61.094
1589.5400, -61.065
1589.5600, -61.100
1589.5800, -61.084
1589.6000, -61.103
1589.6200, -61.097
1589.6400, -61.137
1589.6600, -61.121
1589.6800, -61.092
1589.7000, -61.123
1589.7200, -61.141
1589.7400, -61.136
1589.7600, -61.122
1589.7800, -61.139
1589.8000, -61.163
1589.8200, -61.187
1589.8400, -61.118
1589.8600, -61.159
1589.8800, -61.167
1589.9000, -61.122
1589.9200, -61.150
1589.9400, -61.155
1589.9600, -61.185
1589.9800, -61.189
1590.0000, -61.155
1590.0200, -61.183
1590.0400, -61.202
1590.0600, -61.174
1590.0800, -61.231
1590.1000, -61.177
1590.1200, -61.206
1590.1400, -61.211
1590.1600, -61.231
1590.1800, -61.229
1590.2000, -61.221
1590.2200, -61.222
1590.2400, -61.231
1590.2600, -61.244
1590.2800, -61.256
1590.3000, -61.239
1590.3200, -61.223
1590.3400, -61.274
1590.3600, -61.258
1590.3800, -61.269
1590.4000, -61.273
1590.4200, -61.274
1590.4400, -61.288
1590.4600, -61.307
1590.4800, -61.267
1590.5000, -61.297
1590.5200, -61.306
1590.5400, -61.299
1590.5600, -61.340
1590.5800, -61.268
1590.6000, -61.349
1590.6200, -61.324
1590.6400, -61.293
1590.6600, -61.336
1590.6800, -61.321
1590.7000, -61.345
1590.7200, -61.344
1590.7400, -61.347
1590.7600, -61.354
1590.7800, -61.316
1590.8000, -61.392
1590.8200, -61.362
1590.8400, -61.351
1590.8600, -61.396
1590.8800, -61.397
1590.9000, -61.374
1590.9200, -61.392
1590.9400, -61.380
1590.9600, -61.406
1590.9800, -61.419
1591.0000, -61.396
1591.0200, -61.426
1591.0400, -61.424
1591.0600, -61.414
1591.0800, -61.424
1591.1000, -61.417
1591.1200, -61.439
1591.1400, -61.490
1591.1600, -61.386
1591.1800, -61.457
1591.2000, -61.467
1591.2200, -61.439
1591.2400, -61.519
1591.2600, -61.406
1591.2800, -61.439
1591.3000, -61.492
1591.3200, -61.486
1591.3400, -61.481
1591.3600, -61.484
1591.3800, -61.464
1591.4000, -61.483
1591.4200, -61.517
1591.4400, -61.494
1591.4600, -61.536
1591.4800, -61.521
1591.5000, -61.505
1591.5200, -61.542
1591.5400, -61.528
1591.5600, -61.536
1591.5800, -61.570
1591.6000, -61.513
1591.6200, -61.536
1591.6400, -61.550
1591.6600, -61.562
1591.6800, -61.550
1591.7000, -61.571
1591.7200, -61.540
1591.7400, -61.561
1591.7600, -61.585
1591.7800, -61.574
1591.8000, -61.598
1591.8200, -61.627
1591.8400, -61.578
1591.8600, -61.582
1591.8800, -61.594
1591.9000, -61.596
1591.9200, -61.618
1591.9400, -61.608
1591.9600, -61.610
1591.9800, -61.636
1592.0000, -61.657
1592.0200, -61.616
1592.0400, -61.658
1592.0600, -61.668
1592.0800, -61.607
1592.1000, -61.644
1592.1200, -61.643
1592.1400, -61.667
1592.1600, -61.644
1592.1800, -61.676
1592.2000, -61.656
1592.2200, -61.679
1592.2400, -61.675
1592.2600, -61.670
1592.2800, -61.687
1592.3000, -61.691
1592.3200, -61.689
1592.3400, -61.709
1592.3600, -61.705
1592.3800, -61.737
1592.4000, -61.683
1592.4200, -61.714
1592.4400, -61.740
1592.4600, -61.732
1592.4800, -61.750
1592.5000, -61.774
1592.5200, -61.728
1592.5400, -61.710
1592.5600, -61.792
1592.5800, -61.708
1592.6000, -61.755
1592.6200, -61.749
1592.6400, -61.777
1592.6600, -61.716
1592.6800, -61.812
1592.7000, -61.749
1592.7200, -61.790
1592.7400, -61.826
1592.7600, -61.759
1592.7800, -61.820
1592.8000, -61.765
1592.8200, -61.785
1592.8400, -61.828
1592.8600, -61.816
1592.8800, -61.819
1592.9000, -61.850
1592.9200, -61.761
1592.9400, -61.819
1592.9600, -61.825
1592.9800, -61.849
1593.0000, -61.833
1593.0200, -61.860
1593.0400, -61.837
1593.0600, -61.892
1593.0800, -61.819
1593.1000, -61.892
1593.1200, -61.881
1593.1400, -61.878
1593.1600, -61.881
1593.1800, -61.864
1593.2000, -61.873
1593.2200, -61.901
1593.2400, -61.898
1593.2600, -61.891
1593.2800, -61.891
1593.3000, -61.905
1593.3200, -61.893
1593.3400, -61.901
1593.3600, -61.945
1593.3800, -61.907
1593.4000, -61.911
1593.4200, -61.933
1593.4400, -61.908
1593.4600, -61.942
1593.4800, -61.934
1593.5000, -61.906
1593.5200, -61.918
1593.5400, -61.959
1593.5600, -61.947
1593.5800, -61.918
1593.6000, -61.951
1593.6200, -61.949
1593.6400, -61.988
1593.6600, -61.946
1593.6800, -61.989
1593.7000, -61.967
1593.7200, -61.971
1593.7400, -61.998
1593.7600, -61.978
1593.7800, -62.009
1593.8000, -62.026
1593.8200, -61.990
1593.8400, -62.032
1593.8600, -62.033
1593.8800, -61.997
1593.9000, -62.009
1593.9200, -62.057
1593.9400, -62.025
1593.9600, -62.076
1593.9800, -62.039
1594.0000, -62.025
1594.0200, -62.031
1594.0400, -62.084
1594.0600, -62.061
1594.0800, -62.060
1594.1000, -62.057
1594.1200, -62.057
1594.1400, -62.075
1594.1600, -62.084
1594.1800, -62.069
1594.2000, -62.084
1594.2200, -62.101
1594.2400, -62.086
1594.2600, -62.073
1594.2800, -62.083
1594.3000, -62.087
1594.3200, -62.110
1594.3400, -62.110
1594.3600, -62.098
1594.3800, -62.074
1594.4000, -62.126
1594.4200, -62.131
1594.4400, -62.153
1594.4600, -62.109
1594.4800, -62.146
1594.5000, -62.171
1594.5200, -62.171
1594.5400, -62.148
1594.5600, -62.146
1594.5800, -62.167
1594.6000, -62.166
1594.6200, -62.200
1594.6400, -62.140
1594.6600, -62.194
1594.6800, -62.171
1594.7000, -62.196
1594.7200, -62.192
1594.7400, -62.193
1594.7600, -62.208
1594.7800, -62.221
1594.8000, -62.182
1594.8200, -62.211
1594.8400, -62.221
1594.8600, -62.233
1594.8800, -62.231
1594.9000, -62.237
1594.9200, -62.242
1594.9400, -62.210
1594.9600, -62.238
1594.9800, -62.233
1595.0000, -62.256
1595.0200, -62.249
1595.0400, -62.295
1595.0600, -62.261
1595.0800, -62.264
1595.1000, -62.282
1595.1200, -62.282
1595.1400, -62.286
1595.1600, -62.283
1595.1800, -62.274
1595.2000, -62.303
1595.2200, -62.236
1595.2400, -62.314
1595.2600, -62.306
1595.2800, -62.327
1595.3000, -62.304
1595.3200, -62.313
1595.3400, -62.311
1595.3600, -62.318
1595.3800, -62.349
1595.4000, -62.336
1595.4200, -62.305
1595.4400, -62.352
1595.4600, -62.332
1595.4800, -62.355
1595.5000, -62.367
1595.5200, -62.344
1595.5400, -62.368
1595.5600, -62.344
1595.5800, -62.409
1595.6000, -62.377
1595.6200, -62.376
1595.6400, -62.360
1595.6600, -62.354
1595.6800, -62.439
1595.7000, -62.389
1595.7200, -62.456
1595.7400, -62.418
1595.7600, -62.366
1595.7800, -62.453
1595.8000, -62.414
1595.8200, -62.451
1595.8400, -62.414
1595.8600, -62.446
1595.8800, -62.446
1595.9000, -62.455
1595.9200, -62.434
1595.9400, -62.439
1595.9600, -62.470
1595.9800, -62.449
1596.0000, -62.459
1596.0200, -62.464
1596.0400, -62.463
1596.0600, -62.461
1596.0800, -62.508
1596.1000, -62.516
1596.1200, -62.519
1596.1400, -62.506
1596.1600, -62.471
1596.1800, -62.467
1596.2000, -62.524
1596.2200, -62.481
1596.2400, -62.541
1596.2600, -62.538
1596.2800, -62.504
1596.3000, -62.524
1596.3200, -62.538
1596.3400, -62.513
1596.3600, -62.524
1596.3800, -62.520
1596.4000, -62.588
1596.4200, -62.430
1596.4400, -62.573
1596.4600, -62.562
1596.4800, -62.534
1596.5000, -62.593
1596.5200, -62.534
1596.5400, -62.581
1596.5600, -62.573
1596.5800, -62.584
1596.6000, -62.555
1596.6200, -62.591
1596.6400, -62.579
1596.6600, -62.652
1596.6800, -62.560
1596.7000, -62.571
1596.7200, -62.581
1596.7400, -62.627
1596.7600, -62.639
1596.7800, -62.615
1596.8000, -62.571
1596.8200, -62.644
1596.8400, -62.610
1596.8600, -62.629
1596.8800, -62.677
1596.9000, -62.611
1596.9200, -62.641
1596.9400, -62.663
1596.9600, -62.680
1596.9800, -62.690
1597.0000, -62.653
1597.0200, -62.644
1597.0400, -62.654
1597.0600, -62.684
1597.0800, -62.689
1597.1000, -62.695
1597.1200, -62.712
1597.1400, -62.693
1597.1600, -62.676
1597.1800, -62.715
1597.2000, -62.709
1597.2200, -62.704
1597.2400, -62.693
1597.2600, -62.725
1597.2800, -62.686
1597.3000, -62.721
1597.3200, -62.727
1597.3400, -62.749
1597.3600, -62.710
1597.3800, -62.803
1597.4000, -62.749
1597.4200, -62.721
1597.4400, -62.731
1597.4600, -62.766
1597.4800, -62.783
1597.5000, -62.722
1597.5200, -62.725
1597.5400, -62.791
1597.5600, -62.798
1597.5800, -62.774
1597.6000, -62.798
1597.6200, -62.816
1597.6400, -62.804
1597.6600, -62.788
1597.6800, -62.773
1597.7000, -62.790
1597.7200, -62.776
1597.7400, -62.829
1597.7600, -62.787
1597.7800, -62.810
1597.8000, -62.827
1597.8200, -62.821
1597.8400, -62.751
1597.8600, -62.865
1597.8800, -62.891
1597.9000, -62.833
1597.9200, -62.827
1597.9400, -62.860
1597.9600, -62.828
1597.9800, -62.896
1598.0000, -62.905
1598.0200, -62.834
1598.0400, -62.873
1598.0600, -62.860
1598.0800, -62.904
1598.1000, -62.886
1598.1200, -62.890
1598.1400, -62.891
1598.1600, -62.875
1598.1800, -62.915
1598.2000, -62.907
1598.2200, -62.899
1598.2400, -62.896
1598.2600, -62.971
1598.2800, -62.900
1598.3000, -62.975
1598.3200, -62.894
1598.3400, -62.938
1598.3600, -62.945
1598.3800, -62.908
1598.4000, -62.919
1598.4200, -62.938
1598.4400, -62.931
1598.4600, -62.978
1598.4800, -62.936
1598.5000, -62.982
1598.5200, -62.991
1598.5400, -62.985
1598.5600, -63.020
1598.5800, -62.992
1598.6000, -63.004
1598.6200, -62.998
1598.6400, -62.994
1598.6600, -62.982
1598.6800, -63.058
1598.7000, -63.055
1598.7200, -63.005
1598.7400, -62.959
1598.7600, -63.049
1598.7800, -63.052
1598.8000, -63.017
1598.8200, -63.021
1598.8400, -63.053
1598.8600, -63.035
1598.8800, -63.020
1598.9000, -63.126
1598.9200, -63.042
1598.9400, -63.005
1598.9600, -63.058
1598.9800, -63.065
1599.0000, -63.047
1599.0200, -63.093
1599.0400, -63.096
1599.0600, -63.144
1599.0800, -63.104
1599.1000, -63.072
1599.1200, -63.107
1599.1400, -63.109
1599.1600, -63.109
1599.1800, -63.117
1599.2000, -63.105
1599.2200, -63.075
1599.2400, -63.157
1599.2600, -63.123
1599.2800, -63.150
1599.3000, -63.123
1599.3200, -63.142
1599.3400, -63.099
1599.3600, -63.187
1599.3800, -63.132
1599.4000, -63.113
1599.4200, -63.143
1599.4400, -63.215
1599.4600, -63.187
1599.4800, -63.132
1599.5000, -63.188
1599.5200, -63.172
1599.5400, -63.218
1599.5600, -63.205
1599.5800, -63.160
1599.6000, -63.207
1599.6200, -63.156
1599.6400, -63.257
1599.6600, -63.234
1599.6800, -63.213
1599.7000, -63.194
1599.7200, -63.259
1599.7400, -63.237
1599.7600, -63.246
1599.7800, -63.206
1599.8000, -63.266
1599.8200, -63.226
1599.8400, -63.298
1599.8600, -63.194
1599.8800, -63.229
1599.9000, -63.300
1599.9200, -63.222
1599.9400, -63.278
1599.9600, -63.250
1599.9800, -63.344
1600.0000, -63.262
