70BCSV 	
// AQ6370B OPTICAL SPECTRUM ANALYZER //                 
25
"CTRWL",1550.000000
"SPAN", 100.000000
"START WL",1500.000000
"STOP WL",1600.000000
"WLFREQ", 0
"REFL",-28.8
"LSCL", 5.0
"RESLN",0.100
"AVG",   1
"SMPLAUTO",      0
"SMPL",       5001
"SMPLINTVL",0.0200
"HIGH1"
"MEAS"
"LSUNT",0
"NMSKH","OFF"
"RESCOR",0
"RESPARM", 9050
"FREQPARM", 9050






"[TRACE DATA]"
1500.0000, -61.886
1500.0200, -61.932
1500.0400, -61.925
1500.0600, -61.913
1500.0800, -61.885
1500.1000, -61.880
1500.1200, -61.868
1500.1400, -61.926
1500.1600, -61.856
1500.1800, -61.885
1500.2000, -61.866
1500.2200, -61.851
1500.2400, -61.866
1500.2600, -61.840
1500.2800, -61.818
1500.3000, -61.869
1500.3200, -61.846
1500.3400, -61.828
1500.3600, -61.824
1500.3800, -61.792
1500.4000, -61.840
1500.4200, -61.805
1500.4400, -61.804
1500.4600, -61.781
1500.4800, -61.764
1500.5000, -61.796
1500.5200, -61.743
1500.5400, -61.782
1500.5600, -61.798
1500.5800, -61.759
1500.6000, -61.765
1500.6200, -61.741
1500.6400, -61.747
1500.6600, -61.747
1500.6800, -61.731
1500.7000, -61.739
1500.7200, -61.736
1500.7400, -61.717
1500.7600, -61.714
1500.7800, -61.705
1500.8000, -61.719
1500.8200, -61.707
1500.8400, -61.691
1500.8600, -61.691
1500.8800, -61.659
1500.9000, -61.671
1500.9200, -61.640
1500.9400, -61.666
1500.9600, -61.682
1500.9800, -61.654
1501.0000, -61.644
1501.0200, -61.641
1501.0400, -61.629
1501.0600, -61.631
1501.0800, -61.597
1501.1000, -61.613
1501.1200, -61.609
1501.1400, -61.622
1501.1600, -61.609
1501.1800, -61.585
1501.2000, -61.589
1501.2200, -61.577
1501.2400, -61.555
1501.2600, -61.585
1501.2800, -61.582
1501.3000, -61.554
1501.3200, -61.550
1501.3400, -61.556
1501.3600, -61.543
1501.3800, -61.532
1501.4000, -61.541
1501.4200, -61.527
1501.4400, -61.508
1501.4600, -61.513
1501.4800, -61.507
1501.5000, -61.504
1501.5200, -61.479
1501.5400, -61.487
1501.5600, -61.483
1501.5800, -61.518
1501.6000, -61.490
1501.6200, -61.456
1501.6400, -61.470
1501.6600, -61.480
1501.6800, -61.439
1501.7000, -61.436
1501.7200, -61.439
1501.7400, -61.439
1501.7600, -61.432
1501.7800, -61.429
1501.8000, -61.437
1501.8200, -61.419
1501.8400, -61.439
1501.8600, -61.421
1501.8800, -61.416
1501.9000, -61.400
1501.9200, -61.388
1501.9400, -61.386
1501.9600, -61.356
1501.9800, -61.399
1502.0000, -61.350
1502.0200, -61.333
1502.0400, -61.351
1502.0600, -61.342
1502.0800, -61.338
1502.1000, -61.322
1502.1200, -61.322
1502.1400, -61.319
1502.1600, -61.334
1502.1800, -61.297
1502.2000, -61.288
1502.2200, -61.279
1502.2400, -61.285
1502.2600, -61.261
1502.2800, -61.285
1502.3000, -61.259
1502.3200, -61.255
1502.3400, -61.262
1502.3600, -61.283
1502.3800, -61.227
1502.4000, -61.242
1502.4200, -61.197
1502.4400, -61.256
1502.4600, -61.212
1502.4800, -61.230
1502.5000, -61.197
1502.5200, -61.187
1502.5400, -61.177
1502.5600, -61.230
1502.5800, -61.176
1502.6000, -61.160
1502.6200, -61.118
1502.6400, -61.165
1502.6600, -61.139
1502.6800, -61.120
1502.7000, -61.117
1502.7200, -61.116
1502.7400, -61.147
1502.7600, -61.129
1502.7800, -61.135
1502.8000, -61.117
1502.8200, -61.080
1502.8400, -61.096
1502.8600, -61.070
1502.8800, -61.056
1502.9000, -61.083
1502.9200, -61.078
1502.9400, -61.055
1502.9600, -61.039
1502.9800, -61.037
1503.0000, -61.038
1503.0200, -61.019
1503.0400, -61.014
1503.0600, -61.023
1503.0800, -61.013
1503.1000, -61.021
1503.1200, -61.022
1503.1400, -61.006
1503.1600, -60.983
1503.1800, -60.991
1503.2000, -60.943
1503.2200, -60.956
1503.2400, -60.990
1503.2600, -60.951
1503.2800, -60.900
1503.3000, -60.948
1503.3200, -60.941
1503.3400, -60.917
1503.3600, -60.912
1503.3800, -60.928
1503.4000, -60.924
1503.4200, -60.877
1503.4400, -60.919
1503.4600, -60.870
1503.4800, -60.895
1503.5000, -60.882
1503.5200, -60.843
1503.5400, -60.899
1503.5600, -60.863
1503.5800, -60.831
1503.6000, -60.833
1503.6200, -60.823
1503.6400, -60.829
1503.6600, -60.807
1503.6800, -60.814
1503.7000, -60.800
1503.7200, -60.802
1503.7400, -60.772
1503.7600, -60.790
1503.7800, -60.766
1503.8000, -60.766
1503.8200, -60.724
1503.8400, -60.749
1503.8600, -60.753
1503.8800, -60.765
1503.9000, -60.751
1503.9200, -60.717
1503.9400, -60.735
1503.9600, -60.715
1503.9800, -60.707
1504.0000, -60.717
1504.0200, -60.668
1504.0400, -60.719
1504.0600, -60.689
1504.0800, -60.674
1504.1000, -60.674
1504.1200, -60.667
1504.1400, -60.673
1504.1600, -60.642
1504.1800, -60.652
1504.2000, -60.618
1504.2200, -60.618
1504.2400, -60.612
1504.2600, -60.604
1504.2800, -60.595
1504.3000, -60.592
1504.3200, -60.616
1504.3400, -60.569
1504.3600, -60.596
1504.3800, -60.571
1504.4000, -60.574
1504.4200, -60.545
1504.4400, -60.545
1504.4600, -60.529
1504.4800, -60.524
1504.5000, -60.527
1504.5200, -60.521
1504.5400, -60.506
1504.5600, -60.509
1504.5800, -60.481
1504.6000, -60.494
1504.6200, -60.471
1504.6400, -60.464
1504.6600, -60.472
1504.6800, -60.444
1504.7000, -60.436
1504.7200, -60.454
1504.7400, -60.439
1504.7600, -60.442
1504.7800, -60.422
1504.8000, -60.421
1504.8200, -60.409
1504.8400, -60.407
1504.8600, -60.375
1504.8800, -60.413
1504.9000, -60.379
1504.9200, -60.353
1504.9400, -60.370
1504.9600, -60.361
1504.9800, -60.344
1505.0000, -60.316
1505.0200, -60.327
1505.0400, -60.311
1505.0600, -60.328
1505.0800, -60.316
1505.1000, -60.279
1505.1200, -60.297
1505.1400, -60.259
1505.1600, -60.266
1505.1800, -60.248
1505.2000, -60.288
1505.2200, -60.230
1505.2400, -60.215
1505.2600, -60.231
1505.2800, -60.214
1505.3000, -60.225
1505.3200, -60.217
1505.3400, -60.203
1505.3600, -60.234
1505.3800, -60.159
1505.4000, -60.186
1505.4200, -60.183
1505.4400, -60.168
1505.4600, -60.149
1505.4800, -60.145
1505.5000, -60.133
1505.5200, -60.132
1505.5400, -60.121
1505.5600, -60.139
1505.5800, -60.105
1505.6000, -60.116
1505.6200, -60.081
1505.6400, -60.118
1505.6600, -60.074
1505.6800, -60.089
1505.7000, -60.061
1505.7200, -60.052
1505.7400, -60.039
1505.7600, -60.070
1505.7800, -60.013
1505.8000, -60.023
1505.8200, -60.015
1505.8400, -60.013
1505.8600, -60.032
1505.8800, -59.999
1505.9000, -59.957
1505.9200, -59.991
1505.9400, -59.985
1505.9600, -59.962
1505.9800, -59.938
1506.0000, -59.952
1506.0200, -59.942
1506.0400, -59.930
1506.0600, -59.932
1506.0800, -59.901
1506.1000, -59.913
1506.1200, -59.917
1506.1400, -59.894
1506.1600, -59.870
1506.1800, -59.863
1506.2000, -59.889
1506.2200, -59.875
1506.2400, -59.868
1506.2600, -59.848
1506.2800, -59.849
1506.3000, -59.830
1506.3200, -59.823
1506.3400, -59.810
1506.3600, -59.823
1506.3800, -59.807
1506.4000, -59.802
1506.4200, -59.782
1506.4400, -59.774
1506.4600, -59.804
1506.4800, -59.759
1506.5000, -59.743
1506.5200, -59.765
1506.5400, -59.751
1506.5600, -59.723
1506.5800, -59.716
1506.6000, -59.708
1506.6200, -59.710
1506.6400, -59.700
1506.6600, -59.701
1506.6800, -59.675
1506.7000, -59.680
1506.7200, -59.670
1506.7400, -59.640
1506.7600, -59.657
1506.7800, -59.664
1506.8000, -59.637
1506.8200, -59.602
1506.8400, -59.618
1506.8600, -59.607
1506.8800, -59.619
1506.9000, -59.595
1506.9200, -59.586
1506.9400, -59.589
1506.9600, -59.569
1506.9800, -59.583
1507.0000, -59.533
1507.0200, -59.556
1507.0400, -59.541
1507.0600, -59.532
1507.0800, -59.553
1507.1000, -59.507
1507.1200, -59.498
1507.1400, -59.511
1507.1600, -59.512
1507.1800, -59.482
1507.2000, -59.489
1507.2200, -59.485
1507.2400, -59.475
1507.2600, -59.471
1507.2800, -59.464
1507.3000, -59.453
1507.3200, -59.433
1507.3400, -59.421
1507.3600, -59.406
1507.3800, -59.407
1507.4000, -59.417
1507.4200, -59.385
1507.4400, -59.379
1507.4600, -59.360
1507.4800, -59.371
1507.5000, -59.354
1507.5200, -59.352
1507.5400, -59.331
1507.5600, -59.343
1507.5800, -59.325
1507.6000, -59.303
1507.6200, -59.316
1507.6400, -59.295
1507.6600, -59.284
1507.6800, -59.289
1507.7000, -59.274
1507.7200, -59.260
1507.7400, -59.261
1507.7600, -59.244
1507.7800, -59.228
1507.8000, -59.223
1507.8200, -59.218
1507.8400, -59.210
1507.8600, -59.211
1507.8800, -59.189
1507.9000, -59.197
1507.9200, -59.195
1507.9400, -59.167
1507.9600, -59.152
1507.9800, -59.158
1508.0000, -59.157
1508.0200, -59.153
1508.0400, -59.099
1508.0600, -59.126
1508.0800, -59.127
1508.1000, -59.122
1508.1200, -59.083
1508.1400, -59.090
1508.1600, -59.096
1508.1800, -59.069
1508.2000, -59.058
1508.2200, -59.066
1508.2400, -59.063
1508.2600, -59.046
1508.2800, -59.036
1508.3000, -59.038
1508.3200, -59.016
1508.3400, -59.024
1508.3600, -59.009
1508.3800, -58.983
1508.4000, -58.985
1508.4200, -58.955
1508.4400, -58.952
1508.4600, -58.952
1508.4800, -58.964
1508.5000, -58.927
1508.5200, -58.930
1508.5400, -58.936
1508.5600, -58.908
1508.5800, -58.917
1508.6000, -58.890
1508.6200, -58.901
1508.6400, -58.880
1508.6600, -58.863
1508.6800, -58.864
1508.7000, -58.859
1508.7200, -58.844
1508.7400, -58.845
1508.7600, -58.829
1508.7800, -58.817
1508.8000, -58.815
1508.8200, -58.821
1508.8400, -58.799
1508.8600, -58.796
1508.8800, -58.777
1508.9000, -58.770
1508.9200, -58.773
1508.9400, -58.742
1508.9600, -58.736
1508.9800, -58.744
1509.0000, -58.719
1509.0200, -58.707
1509.0400, -58.712
1509.0600, -58.710
1509.0800, -58.722
1509.1000, -58.675
1509.1200, -58.668
1509.1400, -58.702
1509.1600, -58.646
1509.1800, -58.626
1509.2000, -58.636
1509.2200, -58.630
1509.2400, -58.614
1509.2600, -58.608
1509.2800, -58.603
1509.3000, -58.586
1509.3200, -58.586
1509.3400, -58.572
1509.3600, -58.558
1509.3800, -58.545
1509.4000, -58.540
1509.4200, -58.545
1509.4400, -58.524
1509.4600, -58.523
1509.4800, -58.513
1509.5000, -58.499
1509.5200, -58.482
1509.5400, -58.486
1509.5600, -58.477
1509.5800, -58.465
1509.6000, -58.460
1509.6200, -58.448
1509.6400, -58.441
1509.6600, -58.423
1509.6800, -58.426
1509.7000, -58.400
1509.7200, -58.423
1509.7400, -58.369
1509.7600, -58.377
1509.7800, -58.379
1509.8000, -58.359
1509.8200, -58.377
1509.8400, -58.356
1509.8600, -58.363
1509.8800, -58.311
1509.9000, -58.322
1509.9200, -58.318
1509.9400, -58.328
1509.9600, -58.285
1509.9800, -58.267
1510.0000, -58.291
1510.0200, -58.275
1510.0400, -58.260
1510.0600, -58.264
1510.0800, -58.226
1510.1000, -58.236
1510.1200, -58.222
1510.1400, -58.216
1510.1600, -58.195
1510.1800, -58.192
1510.2000, -58.189
1510.2200, -58.178
1510.2400, -58.152
1510.2600, -58.158
1510.2800, -58.138
1510.3000, -58.124
1510.3200, -58.111
1510.3400, -58.109
1510.3600, -58.081
1510.3800, -58.068
1510.4000, -58.074
1510.4200, -58.056
1510.4400, -58.048
1510.4600, -58.030
1510.4800, -58.026
1510.5000, -58.010
1510.5200, -58.004
1510.5400, -57.980
1510.5600, -57.981
1510.5800, -57.978
1510.6000, -57.968
1510.6200, -57.954
1510.6400, -57.950
1510.6600, -57.944
1510.6800, -57.917
1510.7000, -57.910
1510.7200, -57.922
1510.7400, -57.903
1510.7600, -57.885
1510.7800, -57.858
1510.8000, -57.863
1510.8200, -57.867
1510.8400, -57.827
1510.8600, -57.850
1510.8800, -57.830
1510.9000, -57.790
1510.9200, -57.807
1510.9400, -57.791
1510.9600, -57.788
1510.9800, -57.773
1511.0000, -57.766
1511.0200, -57.761
1511.0400, -57.760
1511.0600, -57.736
1511.0800, -57.716
1511.1000, -57.705
1511.1200, -57.692
1511.1400, -57.681
1511.1600, -57.675
1511.1800, -57.649
1511.2000, -57.659
1511.2200, -57.633
1511.2400, -57.638
1511.2600, -57.624
1511.2800, -57.608
1511.3000, -57.600
1511.3200, -57.584
1511.3400, -57.569
1511.3600, -57.552
1511.3800, -57.544
1511.4000, -57.541
1511.4200, -57.519
1511.4400, -57.510
1511.4600, -57.494
1511.4800, -57.499
1511.5000, -57.475
1511.5200, -57.460
1511.5400, -57.448
1511.5600, -57.438
1511.5800, -57.425
1511.6000, -57.406
1511.6200, -57.419
1511.6400, -57.404
1511.6600, -57.392
1511.6800, -57.384
1511.7000, -57.371
1511.7200, -57.357
1511.7400, -57.352
1511.7600, -57.345
1511.7800, -57.323
1511.8000, -57.321
1511.8200, -57.295
1511.8400, -57.292
1511.8600, -57.273
1511.8800, -57.261
1511.9000, -57.255
1511.9200, -57.246
1511.9400, -57.216
1511.9600, -57.233
1511.9800, -57.195
1512.0000, -57.199
1512.0200, -57.194
1512.0400, -57.187
1512.0600, -57.148
1512.0800, -57.153
1512.1000, -57.127
1512.1200, -57.113
1512.1400, -57.126
1512.1600, -57.094
1512.1800, -57.092
1512.2000, -57.079
1512.2200, -57.077
1512.2400, -57.062
1512.2600, -57.061
1512.2800, -57.036
1512.3000, -57.026
1512.3200, -57.000
1512.3400, -56.998
1512.3600, -56.984
1512.3800, -56.981
1512.4000, -56.970
1512.4200, -56.958
1512.4400, -56.962
1512.4600, -56.928
1512.4800, -56.914
1512.5000, -56.906
1512.5200, -56.897
1512.5400, -56.895
1512.5600, -56.882
1512.5800, -56.859
1512.6000, -56.856
1512.6200, -56.832
1512.6400, -56.834
1512.6600, -56.820
1512.6800, -56.815
1512.7000, -56.803
1512.7200, -56.800
1512.7400, -56.766
1512.7600, -56.753
1512.7800, -56.749
1512.8000, -56.726
1512.8200, -56.723
1512.8400, -56.717
1512.8600, -56.701
1512.8800, -56.697
1512.9000, -56.692
1512.9200, -56.665
1512.9400, -56.667
1512.9600, -56.658
1512.9800, -56.641
1513.0000, -56.622
1513.0200, -56.619
1513.0400, -56.604
1513.0600, -56.584
1513.0800, -56.571
1513.1000, -56.565
1513.1200, -56.529
1513.1400, -56.541
1513.1600, -56.528
1513.1800, -56.542
1513.2000, -56.501
1513.2200, -56.494
1513.2400, -56.487
1513.2600, -56.465
1513.2800, -56.467
1513.3000, -56.422
1513.3200, -56.441
1513.3400, -56.404
1513.3600, -56.411
1513.3800, -56.390
1513.4000, -56.372
1513.4200, -56.368
1513.4400, -56.354
1513.4600, -56.349
1513.4800, -56.333
1513.5000, -56.317
1513.5200, -56.305
1513.5400, -56.308
1513.5600, -56.269
1513.5800, -56.272
1513.6000, -56.251
1513.6200, -56.248
1513.6400, -56.251
1513.6600, -56.225
1513.6800, -56.210
1513.7000, -56.205
1513.7200, -56.186
1513.7400, -56.156
1513.7600, -56.161
1513.7800, -56.127
1513.8000, -56.140
1513.8200, -56.140
1513.8400, -56.107
1513.8600, -56.107
1513.8800, -56.096
1513.9000, -56.070
1513.9200, -56.057
1513.9400, -56.055
1513.9600, -56.032
1513.9800, -56.014
1514.0000, -56.016
1514.0200, -55.990
1514.0400, -55.981
1514.0600, -55.974
1514.0800, -55.957
1514.1000, -55.945
1514.1200, -55.929
1514.1400, -55.921
1514.1600, -55.913
1514.1800, -55.907
1514.2000, -55.861
1514.2200, -55.868
1514.2400, -55.852
1514.2600, -55.838
1514.2800, -55.824
1514.3000, -55.811
1514.3200, -55.800
1514.3400, -55.788
1514.3600, -55.788
1514.3800, -55.756
1514.4000, -55.752
1514.4200, -55.734
1514.4400, -55.719
1514.4600, -55.717
1514.4800, -55.700
1514.5000, -55.687
1514.5200, -55.673
1514.5400, -55.662
1514.5600, -55.646
1514.5800, -55.632
1514.6000, -55.618
1514.6200, -55.602
1514.6400, -55.596
1514.6600, -55.583
1514.6800, -55.556
1514.7000, -55.550
1514.7200, -55.539
1514.7400, -55.533
1514.7600, -55.505
1514.7800, -55.498
1514.8000, -55.492
1514.8200, -55.473
1514.8400, -55.476
1514.8600, -55.443
1514.8800, -55.437
1514.9000, -55.414
1514.9200, -55.398
1514.9400, -55.400
1514.9600, -55.375
1514.9800, -55.355
1515.0000, -55.345
1515.0200, -55.346
1515.0400, -55.314
1515.0600, -55.289
1515.0800, -55.297
1515.1000, -55.267
1515.1200, -55.267
1515.1400, -55.242
1515.1600, -55.240
1515.1800, -55.224
1515.2000, -55.194
1515.2200, -55.181
1515.2400, -55.174
1515.2600, -55.153
1515.2800, -55.147
1515.3000, -55.134
1515.3200, -55.114
1515.3400, -55.104
1515.3600, -55.090
1515.3800, -55.077
1515.4000, -55.065
1515.4200, -55.049
1515.4400, -55.030
1515.4600, -55.018
1515.4800, -55.012
1515.5000, -54.986
1515.5200, -54.973
1515.5400, -54.965
1515.5600, -54.944
1515.5800, -54.945
1515.6000, -54.927
1515.6200, -54.898
1515.6400, -54.916
1515.6600, -54.895
1515.6800, -54.887
1515.7000, -54.840
1515.7200, -54.840
1515.7400, -54.813
1515.7600, -54.806
1515.7800, -54.798
1515.8000, -54.785
1515.8200, -54.761
1515.8400, -54.746
1515.8600, -54.719
1515.8800, -54.717
1515.9000, -54.698
1515.9200, -54.680
1515.9400, -54.657
1515.9600, -54.651
1515.9800, -54.634
1516.0000, -54.609
1516.0200, -54.601
1516.0400, -54.593
1516.0600, -54.580
1516.0800, -54.558
1516.1000, -54.535
1516.1200, -54.518
1516.1400, -54.510
1516.1600, -54.492
1516.1800, -54.475
1516.2000, -54.452
1516.2200, -54.451
1516.2400, -54.424
1516.2600, -54.417
1516.2800, -54.392
1516.3000, -54.392
1516.3200, -54.369
1516.3400, -54.356
1516.3600, -54.339
1516.3800, -54.323
1516.4000, -54.304
1516.4200, -54.284
1516.4400, -54.276
1516.4600, -54.255
1516.4800, -54.243
1516.5000, -54.227
1516.5200, -54.202
1516.5400, -54.198
1516.5600, -54.163
1516.5800, -54.132
1516.6000, -54.122
1516.6200, -54.106
1516.6400, -54.126
1516.6600, -54.094
1516.6800, -54.074
1516.7000, -54.046
1516.7200, -54.031
1516.7400, -54.026
1516.7600, -54.014
1516.7800, -53.995
1516.8000, -53.952
1516.8200, -53.959
1516.8400, -53.939
1516.8600, -53.912
1516.8800, -53.897
1516.9000, -53.876
1516.9200, -53.855
1516.9400, -53.840
1516.9600, -53.809
1516.9800, -53.809
1517.0000, -53.791
1517.0200, -53.771
1517.0400, -53.742
1517.0600, -53.735
1517.0800, -53.713
1517.1000, -53.699
1517.1200, -53.678
1517.1400, -53.656
1517.1600, -53.634
1517.1800, -53.621
1517.2000, -53.608
1517.2200, -53.586
1517.2400, -53.564
1517.2600, -53.553
1517.2800, -53.543
1517.3000, -53.511
1517.3200, -53.493
1517.3400, -53.491
1517.3600, -53.448
1517.3800, -53.452
1517.4000, -53.433
1517.4200, -53.405
1517.4400, -53.392
1517.4600, -53.379
1517.4800, -53.356
1517.5000, -53.329
1517.5200, -53.307
1517.5400, -53.295
1517.5600, -53.274
1517.5800, -53.254
1517.6000, -53.236
1517.6200, -53.218
1517.6400, -53.205
1517.6600, -53.189
1517.6800, -53.168
1517.7000, -53.132
1517.7200, -53.120
1517.7400, -53.099
1517.7600, -53.077
1517.7800, -53.058
1517.8000, -53.037
1517.8200, -53.016
1517.8400, -52.988
1517.8600, -52.968
1517.8800, -52.945
1517.9000, -52.936
1517.9200, -52.922
1517.9400, -52.895
1517.9600, -52.879
1517.9800, -52.843
1518.0000, -52.833
1518.0200, -52.804
1518.0400, -52.783
1518.0600, -52.768
1518.0800, -52.749
1518.1000, -52.725
1518.1200, -52.705
1518.1400, -52.683
1518.1600, -52.665
1518.1800, -52.645
1518.2000, -52.622
1518.2200, -52.610
1518.2400, -52.574
1518.2600, -52.557
1518.2800, -52.546
1518.3000, -52.501
1518.3200, -52.506
1518.3400, -52.477
1518.3600, -52.461
1518.3800, -52.453
1518.4000, -52.421
1518.4200, -52.391
1518.4400, -52.365
1518.4600, -52.346
1518.4800, -52.328
1518.5000, -52.292
1518.5200, -52.271
1518.5400, -52.253
1518.5600, -52.221
1518.5800, -52.216
1518.6000, -52.189
1518.6200, -52.176
1518.6400, -52.153
1518.6600, -52.132
1518.6800, -52.103
1518.7000, -52.076
1518.7200, -52.060
1518.7400, -52.031
1518.7600, -52.009
1518.7800, -51.980
1518.8000, -51.955
1518.8200, -51.932
1518.8400, -51.918
1518.8600, -51.896
1518.8800, -51.877
1518.9000, -51.854
1518.9200, -51.819
1518.9400, -51.796
1518.9600, -51.767
1518.9800, -51.753
1519.0000, -51.722
1519.0200, -51.696
1519.0400, -51.666
1519.0600, -51.624
1519.0800, -51.603
1519.1000, -51.596
1519.1200, -51.577
1519.1400, -51.548
1519.1600, -51.529
1519.1800, -51.505
1519.2000, -51.482
1519.2200, -51.444
1519.2400, -51.423
1519.2600, -51.400
1519.2800, -51.379
1519.3000, -51.352
1519.3200, -51.335
1519.3400, -51.301
1519.3600, -51.267
1519.3800, -51.238
1519.4000, -51.218
1519.4200, -51.195
1519.4400, -51.164
1519.4600, -51.153
1519.4800, -51.115
1519.5000, -51.076
1519.5200, -51.070
1519.5400, -51.024
1519.5600, -51.011
1519.5800, -50.994
1519.6000, -50.967
1519.6200, -50.923
1519.6400, -50.901
1519.6600, -50.871
1519.6800, -50.841
1519.7000, -50.817
1519.7200, -50.795
1519.7400, -50.761
1519.7600, -50.733
1519.7800, -50.707
1519.8000, -50.670
1519.8200, -50.640
1519.8400, -50.624
1519.8600, -50.603
1519.8800, -50.570
1519.9000, -50.533
1519.9200, -50.499
1519.9400, -50.475
1519.9600, -50.446
1519.9800, -50.413
1520.0000, -50.391
1520.0200, -50.364
1520.0400, -50.326
1520.0600, -50.303
1520.0800, -50.273
1520.1000, -50.241
1520.1200, -50.204
1520.1400, -50.181
1520.1600, -50.156
1520.1800, -50.119
1520.2000, -50.091
1520.2200, -50.064
1520.2400, -50.019
1520.2600, -50.006
1520.2800, -49.961
1520.3000, -49.941
1520.3200, -49.900
1520.3400, -49.875
1520.3600, -49.845
1520.3800, -49.814
1520.4000, -49.784
1520.4200, -49.737
1520.4400, -49.711
1520.4600, -49.683
1520.4800, -49.652
1520.5000, -49.624
1520.5200, -49.601
1520.5400, -49.572
1520.5600, -49.528
1520.5800, -49.488
1520.6000, -49.462
1520.6200, -49.421
1520.6400, -49.378
1520.6600, -49.357
1520.6800, -49.324
1520.7000, -49.285
1520.7200, -49.239
1520.7400, -49.231
1520.7600, -49.198
1520.7800, -49.165
1520.8000, -49.119
1520.8200, -49.085
1520.8400, -49.054
1520.8600, -49.004
1520.8800, -48.992
1520.9000, -48.949
1520.9200, -48.908
1520.9400, -48.876
1520.9600, -48.846
1520.9800, -48.812
1521.0000, -48.777
1521.0200, -48.737
1521.0400, -48.699
1521.0600, -48.669
1521.0800, -48.644
1521.1000, -48.596
1521.1200, -48.560
1521.1400, -48.528
1521.1600, -48.495
1521.1800, -48.463
1521.2000, -48.427
1521.2200, -48.382
1521.2400, -48.346
1521.2600, -48.312
1521.2800, -48.277
1521.3000, -48.243
1521.3200, -48.206
1521.3400, -48.166
1521.3600, -48.132
1521.3800, -48.086
1521.4000, -48.045
1521.4200, -48.017
1521.4400, -47.987
1521.4600, -47.942
1521.4800, -47.908
1521.5000, -47.866
1521.5200, -47.822
1521.5400, -47.788
1521.5600, -47.751
1521.5800, -47.708
1521.6000, -47.674
1521.6200, -47.625
1521.6400, -47.589
1521.6600, -47.545
1521.6800, -47.514
1521.7000, -47.477
1521.7200, -47.448
1521.7400, -47.402
1521.7600, -47.371
1521.7800, -47.322
1521.8000, -47.284
1521.8200, -47.246
1521.8400, -47.212
1521.8600, -47.159
1521.8800, -47.129
1521.9000, -47.092
1521.9200, -47.048
1521.9400, -47.015
1521.9600, -46.980
1521.9800, -46.939
1522.0000, -46.892
1522.0200, -46.856
1522.0400, -46.810
1522.0600, -46.777
1522.0800, -46.743
1522.1000, -46.711
1522.1200, -46.669
1522.1400, -46.616
1522.1600, -46.585
1522.1800, -46.560
1522.2000, -46.508
1522.2200, -46.465
1522.2400, -46.425
1522.2600, -46.382
1522.2800, -46.345
1522.3000, -46.317
1522.3200, -46.262
1522.3400, -46.210
1522.3600, -46.180
1522.3800, -46.134
1522.4000, -46.105
1522.4200, -46.066
1522.4400, -46.026
1522.4600, -45.984
1522.4800, -45.941
1522.5000, -45.899
1522.5200, -45.855
1522.5400, -45.808
1522.5600, -45.758
1522.5800, -45.721
1522.6000, -45.678
1522.6200, -45.638
1522.6400, -45.608
1522.6600, -45.559
1522.6800, -45.524
1522.7000, -45.481
1522.7200, -45.436
1522.7400, -45.391
1522.7600, -45.352
1522.7800, -45.311
1522.8000, -45.264
1522.8200, -45.219
1522.8400, -45.188
1522.8600, -45.148
1522.8800, -45.105
1522.9000, -45.067
1522.9200, -45.031
1522.9400, -44.993
1522.9600, -44.950
1522.9800, -44.909
1523.0000, -44.865
1523.0200, -44.826
1523.0400, -44.786
1523.0600, -44.746
1523.0800, -44.694
1523.1000, -44.658
1523.1200, -44.614
1523.1400, -44.573
1523.1600, -44.535
1523.1800, -44.496
1523.2000, -44.448
1523.2200, -44.407
1523.2400, -44.367
1523.2600, -44.324
1523.2800, -44.283
1523.3000, -44.251
1523.3200, -44.201
1523.3400, -44.165
1523.3600, -44.119
1523.3800, -44.073
1523.4000, -44.032
1523.4200, -43.995
1523.4400, -43.950
1523.4600, -43.911
1523.4800, -43.868
1523.5000, -43.820
1523.5200, -43.775
1523.5400, -43.745
1523.5600, -43.699
1523.5800, -43.652
1523.6000, -43.625
1523.6200, -43.572
1523.6400, -43.540
1523.6600, -43.495
1523.6800, -43.455
1523.7000, -43.416
1523.7200, -43.370
1523.7400, -43.333
1523.7600, -43.292
1523.7800, -43.252
1523.8000, -43.211
1523.8200, -43.171
1523.8400, -43.132
1523.8600, -43.095
1523.8800, -43.047
1523.9000, -43.002
1523.9200, -42.963
1523.9400, -42.929
1523.9600, -42.890
1523.9800, -42.854
1524.0000, -42.812
1524.0200, -42.767
1524.0400, -42.727
1524.0600, -42.690
1524.0800, -42.648
1524.1000, -42.609
1524.1200, -42.570
1524.1400, -42.529
1524.1600, -42.486
1524.1800, -42.445
1524.2000, -42.401
1524.2200, -42.365
1524.2400, -42.326
1524.2600, -42.286
1524.2800, -42.244
1524.3000, -42.212
1524.3200, -42.162
1524.3400, -42.129
1524.3600, -42.087
1524.3800, -42.046
1524.4000, -42.007
1524.4200, -41.968
1524.4400, -41.929
1524.4600, -41.887
1524.4800, -41.849
1524.5000, -41.808
1524.5200, -41.772
1524.5400, -41.727
1524.5600, -41.689
1524.5800, -41.657
1524.6000, -41.617
1524.6200, -41.579
1524.6400, -41.538
1524.6600, -41.496
1524.6800, -41.455
1524.7000, -41.416
1524.7200, -41.382
1524.7400, -41.343
1524.7600, -41.305
1524.7800, -41.268
1524.8000, -41.223
1524.8200, -41.181
1524.8400, -41.142
1524.8600, -41.103
1524.8800, -41.066
1524.9000, -41.031
1524.9200, -40.990
1524.9400, -40.949
1524.9600, -40.911
1524.9800, -40.874
1525.0000, -40.840
1525.0200, -40.800
1525.0400, -40.757
1525.0600, -40.719
1525.0800, -40.681
1525.1000, -40.639
1525.1200, -40.599
1525.1400, -40.559
1525.1600, -40.522
1525.1800, -40.483
1525.2000, -40.445
1525.2200, -40.412
1525.2400, -40.369
1525.2600, -40.329
1525.2800, -40.298
1525.3000, -40.257
1525.3200, -40.216
1525.3400, -40.179
1525.3600, -40.143
1525.3800, -40.104
1525.4000, -40.065
1525.4200, -40.026
1525.4400, -39.987
1525.4600, -39.951
1525.4800, -39.900
1525.5000, -39.867
1525.5200, -39.830
1525.5400, -39.791
1525.5600, -39.753
1525.5800, -39.715
1525.6000, -39.678
1525.6200, -39.640
1525.6400, -39.600
1525.6600, -39.565
1525.6800, -39.526
1525.7000, -39.488
1525.7200, -39.446
1525.7400, -39.408
1525.7600, -39.364
1525.7800, -39.328
1525.8000, -39.290
1525.8200, -39.250
1525.8400, -39.213
1525.8600, -39.176
1525.8800, -39.134
1525.9000, -39.102
1525.9200, -39.064
1525.9400, -39.033
1525.9600, -38.993
1525.9800, -38.958
1526.0000, -38.924
1526.0200, -38.890
1526.0400, -38.845
1526.0600, -38.805
1526.0800, -38.768
1526.1000, -38.731
1526.1200, -38.698
1526.1400, -38.659
1526.1600, -38.625
1526.1800, -38.573
1526.2000, -38.543
1526.2200, -38.507
1526.2400, -38.462
1526.2600, -38.419
1526.2800, -38.384
1526.3000, -38.349
1526.3200, -38.312
1526.3400, -38.274
1526.3600, -38.242
1526.3800, -38.204
1526.4000, -38.173
1526.4200, -38.125
1526.4400, -38.098
1526.4600, -38.057
1526.4800, -38.025
1526.5000, -37.988
1526.5200, -37.950
1526.5400, -37.909
1526.5600, -37.872
1526.5800, -37.836
1526.6000, -37.796
1526.6200, -37.760
1526.6400, -37.728
1526.6600, -37.682
1526.6800, -37.651
1526.7000, -37.608
1526.7200, -37.576
1526.7400, -37.542
1526.7600, -37.509
1526.7800, -37.464
1526.8000, -37.431
1526.8200, -37.394
1526.8400, -37.355
1526.8600, -37.325
1526.8800, -37.296
1526.9000, -37.249
1526.9200, -37.211
1526.9400, -37.179
1526.9600, -37.133
1526.9800, -37.087
1527.0000, -37.052
1527.0200, -37.011
1527.0400, -36.972
1527.0600, -36.943
1527.0800, -36.910
1527.1000, -36.862
1527.1200, -36.820
1527.1400, -36.792
1527.1600, -36.751
1527.1800, -36.717
1527.2000, -36.680
1527.2200, -36.639
1527.2400, -36.594
1527.2600, -36.552
1527.2800, -36.518
1527.3000, -36.491
1527.3200, -36.463
1527.3400, -36.402
1527.3600, -36.381
1527.3800, -36.342
1527.4000, -36.302
1527.4200, -36.255
1527.4400, -36.227
1527.4600, -36.184
1527.4800, -36.131
1527.5000, -36.097
1527.5200, -36.050
1527.5400, -36.006
1527.5600, -35.970
1527.5800, -35.932
1527.6000, -35.892
1527.6200, -35.844
1527.6400, -35.812
1527.6600, -35.779
1527.6800, -35.740
1527.7000, -35.700
1527.7200, -35.646
1527.7400, -35.605
1527.7600, -35.574
1527.7800, -35.538
1527.8000, -35.507
1527.8200, -35.461
1527.8400, -35.426
1527.8600, -35.391
1527.8800, -35.357
1527.9000, -35.306
1527.9200, -35.263
1527.9400, -35.224
1527.9600, -35.177
1527.9800, -35.146
1528.0000, -35.098
1528.0200, -35.062
1528.0400, -34.986
1528.0600, -34.960
1528.0800, -34.925
1528.1000, -34.886
1528.1200, -34.835
1528.1400, -34.794
1528.1600, -34.756
1528.1800, -34.705
1528.2000, -34.664
1528.2200, -34.633
1528.2400, -34.591
1528.2600, -34.551
1528.2800, -34.504
1528.3000, -34.480
1528.3200, -34.435
1528.3400, -34.394
1528.3600, -34.345
1528.3800, -34.312
1528.4000, -34.264
1528.4200, -34.229
1528.4400, -34.190
1528.4600, -34.153
1528.4800, -34.122
1528.5000, -34.088
1528.5200, -34.021
1528.5400, -34.002
1528.5600, -33.952
1528.5800, -33.922
1528.6000, -33.885
1528.6200, -33.853
1528.6400, -33.795
1528.6600, -33.764
1528.6800, -33.721
1528.7000, -33.683
1528.7200, -33.646
1528.7400, -33.608
1528.7600, -33.555
1528.7800, -33.512
1528.8000, -33.470
1528.8200, -33.411
1528.8400, -33.349
1528.8600, -33.303
1528.8800, -33.256
1528.9000, -33.207
1528.9200, -33.188
1528.9400, -33.144
1528.9600, -33.075
1528.9800, -33.013
1529.0000, -32.996
1529.0200, -32.947
1529.0400, -32.899
1529.0600, -32.859
1529.0800, -32.810
1529.1000, -32.765
1529.1200, -32.724
1529.1400, -32.671
1529.1600, -32.651
1529.1800, -32.620
1529.2000, -32.537
1529.2200, -32.524
1529.2400, -32.483
1529.2600, -32.444
1529.2800, -32.397
1529.3000, -32.371
1529.3200, -32.325
1529.3400, -32.279
1529.3600, -32.236
1529.3800, -32.182
1529.4000, -32.137
1529.4200, -32.105
1529.4400, -32.059
1529.4600, -32.034
1529.4800, -31.959
1529.5000, -31.947
1529.5200, -31.921
1529.5400, -31.899
1529.5600, -31.868
1529.5800, -31.814
1529.6000, -31.756
1529.6200, -31.696
1529.6400, -31.648
1529.6600, -31.607
1529.6800, -31.573
1529.7000, -31.540
1529.7200, -31.525
1529.7400, -31.472
1529.7600, -31.427
1529.7800, -31.377
1529.8000, -31.305
1529.8200, -31.293
1529.8400, -31.208
1529.8600, -31.155
1529.8800, -31.128
1529.9000, -31.034
1529.9200, -31.006
1529.9400, -31.025
1529.9600, -31.049
1529.9800, -30.908
1530.0000, -30.835
1530.0200, -30.786
1530.0400, -30.751
1530.0600, -30.674
1530.0800, -30.661
1530.1000, -30.629
1530.1200, -30.557
1530.1400, -30.479
1530.1600, -30.456
1530.1800, -30.504
1530.2000, -30.410
1530.2200, -30.445
1530.2400, -30.278
1530.2600, -30.503
1530.2800, -30.389
1530.3000, -30.319
1530.3200, -30.261
1530.3400, -30.251
1530.3600, -30.108
1530.3800, -30.077
1530.4000, -29.974
1530.4200, -29.850
1530.4400, -29.827
1530.4600, -29.845
1530.4800, -29.880
1530.5000, -29.818
1530.5200, -29.609
1530.5400, -29.652
1530.5600, -29.667
1530.5800, -29.632
1530.6000, -29.586
1530.6200, -29.530
1530.6400, -29.490
1530.6600, -29.472
1530.6800, -29.423
1530.7000, -29.465
1530.7200, -29.401
1530.7400, -29.351
1530.7600, -29.293
1530.7800, -29.247
1530.8000, -29.367
1530.8200, -29.271
1530.8400, -29.258
1530.8600, -29.304
1530.8800, -29.165
1530.9000, -29.110
1530.9200, -29.156
1530.9400, -29.059
1530.9600, -28.924
1530.9800, -29.028
1531.0000, -29.148
1531.0200, -29.031
1531.0400, -29.046
1531.0600, -29.027
1531.0800, -29.058
1531.1000, -28.962
1531.1200, -28.896
1531.1400, -28.799
1531.1600, -28.851
1531.1800, -28.793
1531.2000, -28.897
1531.2200, -28.645
1531.2400, -28.626
1531.2600, -28.662
1531.2800, -28.414
1531.3000, -28.311
1531.3200, -28.401
1531.3400, -28.347
1531.3600, -28.264
1531.3800, -28.156
1531.4000, -28.221
1531.4200, -28.218
1531.4400, -28.242
1531.4600, -28.146
1531.4800, -27.915
1531.5000, -28.069
1531.5200, -27.876
1531.5400, -28.197
1531.5600, -28.164
1531.5800, -28.147
1531.6000, -28.165
1531.6200, -28.194
1531.6400, -28.293
1531.6600, -28.246
1531.6800, -28.147
1531.7000, -27.900
1531.7200, -28.172
1531.7400, -27.866
1531.7600, -27.957
1531.7800, -28.078
1531.8000, -27.974
1531.8200, -27.729
1531.8400, -27.713
1531.8600, -27.720
1531.8800, -27.808
1531.9000, -27.738
1531.9200, -27.634
1531.9400, -27.516
1531.9600, -27.167
1531.9800, -27.809
1532.0000, -27.175
1532.0200, -27.927
1532.0400, -27.254
1532.0600, -28.053
1532.0800, -28.020
1532.1000, -27.547
1532.1200, -27.591
1532.1400, -28.071
1532.1600, -27.717
1532.1800, -27.531
1532.2000, -28.248
1532.2200, -28.201
1532.2400, -27.555
1532.2600, -27.509
1532.2800, -27.881
1532.3000, -27.740
1532.3200, -27.519
1532.3400, -27.798
1532.3600, -27.457
1532.3800, -25.213
1532.4000, -26.633
1532.4200, -26.744
1532.4400, -24.141
1532.4600, -26.716
1532.4800, -27.802
1532.5000, -28.053
1532.5200, -27.928
1532.5400, -27.626
1532.5600, -27.719
1532.5800, -26.189
1532.6000, -27.350
1532.6200, -28.166
1532.6400, -27.774
1532.6600, -27.713
1532.6800, -28.272
1532.7000, -27.424
1532.7200, -27.842
1532.7400, -27.812
1532.7600, -28.276
1532.7800, -28.087
1532.8000, -27.634
1532.8200, -27.976
1532.8400, -28.162
1532.8600, -27.744
1532.8800, -28.077
1532.9000, -27.981
1532.9200, -28.660
1532.9400, -28.875
1532.9600, -28.656
1532.9800, -27.882
1533.0000, -28.640
1533.0200, -28.663
1533.0400, -29.036
1533.0600, -28.888
1533.0800, -28.850
1533.1000, -28.814
1533.1200, -28.907
1533.1400, -29.096
1533.1600, -29.056
1533.1800, -29.009
1533.2000, -29.005
1533.2200, -29.044
1533.2400, -28.847
1533.2600, -29.324
1533.2800, -29.363
1533.3000, -28.790
1533.3200, -29.214
1533.3400, -29.327
1533.3600, -29.398
1533.3800, -29.433
1533.4000, -29.377
1533.4200, -29.406
1533.4400, -29.543
1533.4600, -29.578
1533.4800, -29.794
1533.5000, -29.697
1533.5200, -29.776
1533.5400, -29.858
1533.5600, -30.011
1533.5800, -30.119
1533.6000, -30.172
1533.6200, -30.324
1533.6400, -30.409
1533.6600, -30.379
1533.6800, -30.451
1533.7000, -30.535
1533.7200, -30.650
1533.7400, -30.761
1533.7600, -30.747
1533.7800, -30.892
1533.8000, -30.882
1533.8200, -31.107
1533.8400, -31.260
1533.8600, -31.149
1533.8800, -31.331
1533.9000, -31.421
1533.9200, -31.471
1533.9400, -31.499
1533.9600, -31.589
1533.9800, -31.538
1534.0000, -31.642
1534.0200, -31.773
1534.0400, -31.821
1534.0600, -31.928
1534.0800, -31.954
1534.1000, -31.915
1534.1200, -32.007
1534.1400, -32.040
1534.1600, -32.148
1534.1800, -32.175
1534.2000, -32.282
1534.2200, -32.379
1534.2400, -32.342
1534.2600, -32.453
1534.2800, -32.449
1534.3000, -32.546
1534.3200, -32.562
1534.3400, -32.617
1534.3600, -32.763
1534.3800, -32.794
1534.4000, -32.908
1534.4200, -32.927
1534.4400, -32.999
1534.4600, -33.099
1534.4800, -33.168
1534.5000, -33.224
1534.5200, -33.174
1534.5400, -33.281
1534.5600, -33.353
1534.5800, -33.448
1534.6000, -33.493
1534.6200, -33.579
1534.6400, -33.602
1534.6600, -33.631
1534.6800, -33.662
1534.7000, -33.681
1534.7200, -33.743
1534.7400, -33.950
1534.7600, -33.943
1534.7800, -34.068
1534.8000, -34.096
1534.8200, -34.139
1534.8400, -34.222
1534.8600, -34.264
1534.8800, -34.325
1534.9000, -34.359
1534.9200, -34.411
1534.9400, -34.468
1534.9600, -34.522
1534.9800, -34.606
1535.0000, -34.666
1535.0200, -34.753
1535.0400, -34.801
1535.0600, -34.859
1535.0800, -34.913
1535.1000, -34.955
1535.1200, -35.007
1535.1400, -35.062
1535.1600, -35.113
1535.1800, -35.170
1535.2000, -35.217
1535.2200, -35.273
1535.2400, -35.329
1535.2600, -35.392
1535.2800, -35.465
1535.3000, -35.523
1535.3200, -35.589
1535.3400, -35.639
1535.3600, -35.694
1535.3800, -35.752
1535.4000, -35.807
1535.4200, -35.847
1535.4400, -35.899
1535.4600, -35.957
1535.4800, -36.006
1535.5000, -36.065
1535.5200, -36.113
1535.5400, -36.164
1535.5600, -36.214
1535.5800, -36.269
1535.6000, -36.327
1535.6200, -36.386
1535.6400, -36.448
1535.6600, -36.487
1535.6800, -36.544
1535.7000, -36.600
1535.7200, -36.646
1535.7400, -36.697
1535.7600, -36.755
1535.7800, -36.796
1535.8000, -36.856
1535.8200, -36.906
1535.8400, -36.953
1535.8600, -36.996
1535.8800, -37.042
1535.9000, -37.095
1535.9200, -37.150
1535.9400, -37.186
1535.9600, -37.234
1535.9800, -37.286
1536.0000, -37.328
1536.0200, -37.383
1536.0400, -37.431
1536.0600, -37.467
1536.0800, -37.519
1536.1000, -37.562
1536.1200, -37.598
1536.1400, -37.644
1536.1600, -37.689
1536.1800, -37.724
1536.2000, -37.777
1536.2200, -37.836
1536.2400, -37.876
1536.2600, -37.902
1536.2800, -37.924
1536.3000, -37.978
1536.3200, -38.021
1536.3400, -38.055
1536.3600, -38.098
1536.3800, -38.133
1536.4000, -38.173
1536.4200, -38.215
1536.4400, -38.257
1536.4600, -38.291
1536.4800, -38.334
1536.5000, -38.369
1536.5200, -38.405
1536.5400, -38.459
1536.5600, -38.498
1536.5800, -38.526
1536.6000, -38.558
1536.6200, -38.591
1536.6400, -38.620
1536.6600, -38.655
1536.6800, -38.687
1536.7000, -38.711
1536.7200, -38.750
1536.7400, -38.789
1536.7600, -38.821
1536.7800, -38.859
1536.8000, -38.893
1536.8200, -38.922
1536.8400, -38.961
1536.8600, -38.984
1536.8800, -39.026
1536.9000, -39.060
1536.9200, -39.099
1536.9400, -39.134
1536.9600, -39.163
1536.9800, -39.188
1537.0000, -39.215
1537.0200, -39.245
1537.0400, -39.285
1537.0600, -39.316
1537.0800, -39.344
1537.1000, -39.372
1537.1200, -39.398
1537.1400, -39.429
1537.1600, -39.458
1537.1800, -39.473
1537.2000, -39.500
1537.2200, -39.541
1537.2400, -39.568
1537.2600, -39.583
1537.2800, -39.611
1537.3000, -39.635
1537.3200, -39.655
1537.3400, -39.683
1537.3600, -39.704
1537.3800, -39.732
1537.4000, -39.761
1537.4200, -39.783
1537.4400, -39.809
1537.4600, -39.838
1537.4800, -39.858
1537.5000, -39.875
1537.5200, -39.907
1537.5400, -39.922
1537.5600, -39.946
1537.5800, -39.967
1537.6000, -39.987
1537.6200, -40.009
1537.6400, -40.032
1537.6600, -40.053
1537.6800, -40.073
1537.7000, -40.099
1537.7200, -40.122
1537.7400, -40.138
1537.7600, -40.165
1537.7800, -40.175
1537.8000, -40.196
1537.8200, -40.223
1537.8400, -40.246
1537.8600, -40.265
1537.8800, -40.291
1537.9000, -40.303
1537.9200, -40.320
1537.9400, -40.345
1537.9600, -40.360
1537.9800, -40.378
1538.0000, -40.396
1538.0200, -40.415
1538.0400, -40.437
1538.0600, -40.453
1538.0800, -40.472
1538.1000, -40.484
1538.1200, -40.502
1538.1400, -40.533
1538.1600, -40.550
1538.1800, -40.558
1538.2000, -40.576
1538.2200, -40.585
1538.2400, -40.599
1538.2600, -40.613
1538.2800, -40.620
1538.3000, -40.634
1538.3200, -40.653
1538.3400, -40.659
1538.3600, -40.675
1538.3800, -40.697
1538.4000, -40.706
1538.4200, -40.719
1538.4400, -40.730
1538.4600, -40.739
1538.4800, -40.753
1538.5000, -40.762
1538.5200, -40.778
1538.5400, -40.787
1538.5600, -40.801
1538.5800, -40.812
1538.6000, -40.824
1538.6200, -40.832
1538.6400, -40.847
1538.6600, -40.850
1538.6800, -40.866
1538.7000, -40.872
1538.7200, -40.886
1538.7400, -40.892
1538.7600, -40.905
1538.7800, -40.915
1538.8000, -40.930
1538.8200, -40.930
1538.8400, -40.937
1538.8600, -40.947
1538.8800, -40.956
1538.9000, -40.963
1538.9200, -40.969
1538.9400, -40.974
1538.9600, -40.985
1538.9800, -40.994
1539.0000, -41.006
1539.0200, -41.004
1539.0400, -41.017
1539.0600, -41.035
1539.0800, -41.040
1539.1000, -41.041
1539.1200, -41.051
1539.1400, -41.052
1539.1600, -41.060
1539.1800, -41.064
1539.2000, -41.065
1539.2200, -41.074
1539.2400, -41.078
1539.2600, -41.077
1539.2800, -41.095
1539.3000, -41.102
1539.3200, -41.105
1539.3400, -41.114
1539.3600, -41.114
1539.3800, -41.118
1539.4000, -41.125
1539.4200, -41.130
1539.4400, -41.136
1539.4600, -41.136
1539.4800, -41.141
1539.5000, -41.147
1539.5200, -41.154
1539.5400, -41.162
1539.5600, -41.166
1539.5800, -41.173
1539.6000, -41.182
1539.6200, -41.183
1539.6400, -41.189
1539.6600, -41.195
1539.6800, -41.198
1539.7000, -41.195
1539.7200, -41.198
1539.7400, -41.200
1539.7600, -41.201
1539.7800, -41.202
1539.8000, -41.204
1539.8200, -41.207
1539.8400, -41.201
1539.8600, -41.208
1539.8800, -41.215
1539.9000, -41.212
1539.9200, -41.213
1539.9400, -41.213
1539.9600, -41.226
1539.9800, -41.230
1540.0000, -41.228
1540.0200, -41.227
1540.0400, -41.224
1540.0600, -41.222
1540.0800, -41.225
1540.1000, -41.228
1540.1200, -41.227
1540.1400, -41.231
1540.1600, -41.227
1540.1800, -41.227
1540.2000, -41.242
1540.2200, -41.243
1540.2400, -41.243
1540.2600, -41.238
1540.2800, -41.229
1540.3000, -41.228
1540.3200, -41.228
1540.3400, -41.227
1540.3600, -41.220
1540.3800, -41.234
1540.4000, -41.223
1540.4200, -41.224
1540.4400, -41.222
1540.4600, -41.223
1540.4800, -41.228
1540.5000, -41.231
1540.5200, -41.218
1540.5400, -41.223
1540.5600, -41.220
1540.5800, -41.219
1540.6000, -41.224
1540.6200, -41.229
1540.6400, -41.215
1540.6600, -41.215
1540.6800, -41.214
1540.7000, -41.211
1540.7200, -41.213
1540.7400, -41.208
1540.7600, -41.208
1540.7800, -41.205
1540.8000, -41.209
1540.8200, -41.211
1540.8400, -41.198
1540.8600, -41.193
1540.8800, -41.201
1540.9000, -41.200
1540.9200, -41.188
1540.9400, -41.192
1540.9600, -41.187
1540.9800, -41.176
1541.0000, -41.182
1541.0200, -41.175
1541.0400, -41.169
1541.0600, -41.175
1541.0800, -41.164
1541.1000, -41.164
1541.1200, -41.165
1541.1400, -41.153
1541.1600, -41.152
1541.1800, -41.151
1541.2000, -41.140
1541.2200, -41.145
1541.2400, -41.140
1541.2600, -41.133
1541.2800, -41.131
1541.3000, -41.131
1541.3200, -41.130
1541.3400, -41.127
1541.3600, -41.115
1541.3800, -41.124
1541.4000, -41.119
1541.4200, -41.120
1541.4400, -41.118
1541.4600, -41.116
1541.4800, -41.110
1541.5000, -41.111
1541.5200, -41.108
1541.5400, -41.107
1541.5600, -41.096
1541.5800, -41.097
1541.6000, -41.096
1541.6200, -41.093
1541.6400, -41.090
1541.6600, -41.084
1541.6800, -41.084
1541.7000, -41.083
1541.7200, -41.081
1541.7400, -41.069
1541.7600, -41.070
1541.7800, -41.070
1541.8000, -41.070
1541.8200, -41.061
1541.8400, -41.056
1541.8600, -41.056
1541.8800, -41.051
1541.9000, -41.045
1541.9200, -41.040
1541.9400, -41.035
1541.9600, -41.037
1541.9800, -41.026
1542.0000, -41.023
1542.0200, -41.028
1542.0400, -41.019
1542.0600, -41.003
1542.0800, -41.002
1542.1000, -40.994
1542.1200, -40.993
1542.1400, -40.992
1542.1600, -40.989
1542.1800, -40.984
1542.2000, -40.977
1542.2200, -40.979
1542.2400, -40.973
1542.2600, -40.966
1542.2800, -40.963
1542.3000, -40.959
1542.3200, -40.960
1542.3400, -40.943
1542.3600, -40.939
1542.3800, -40.935
1542.4000, -40.933
1542.4200, -40.932
1542.4400, -40.932
1542.4600, -40.916
1542.4800, -40.912
1542.5000, -40.906
1542.5200, -40.904
1542.5400, -40.902
1542.5600, -40.898
1542.5800, -40.891
1542.6000, -40.897
1542.6200, -40.896
1542.6400, -40.892
1542.6600, -40.879
1542.6800, -40.876
1542.7000, -40.881
1542.7200, -40.876
1542.7400, -40.864
1542.7600, -40.863
1542.7800, -40.862
1542.8000, -40.856
1542.8200, -40.854
1542.8400, -40.848
1542.8600, -40.843
1542.8800, -40.851
1542.9000, -40.833
1542.9200, -40.833
1542.9400, -40.836
1542.9600, -40.822
1542.9800, -40.816
1543.0000, -40.812
1543.0200, -40.803
1543.0400, -40.801
1543.0600, -40.797
1543.0800, -40.796
1543.1000, -40.782
1543.1200, -40.784
1543.1400, -40.782
1543.1600, -40.780
1543.1800, -40.779
1543.2000, -40.773
1543.2200, -40.767
1543.2400, -40.774
1543.2600, -40.765
1543.2800, -40.764
1543.3000, -40.765
1543.3200, -40.765
1543.3400, -40.765
1543.3600, -40.761
1543.3800, -40.754
1543.4000, -40.750
1543.4200, -40.741
1543.4400, -40.740
1543.4600, -40.735
1543.4800, -40.727
1543.5000, -40.721
1543.5200, -40.731
1543.5400, -40.727
1543.5600, -40.709
1543.5800, -40.706
1543.6000, -40.711
1543.6200, -40.714
1543.6400, -40.708
1543.6600, -40.701
1543.6800, -40.703
1543.7000, -40.697
1543.7200, -40.693
1543.7400, -40.681
1543.7600, -40.673
1543.7800, -40.675
1543.8000, -40.671
1543.8200, -40.662
1543.8400, -40.671
1543.8600, -40.666
1543.8800, -40.661
1543.9000, -40.665
1543.9200, -40.664
1543.9400, -40.662
1543.9600, -40.654
1543.9800, -40.653
1544.0000, -40.648
1544.0200, -40.652
1544.0400, -40.649
1544.0600, -40.646
1544.0800, -40.643
1544.1000, -40.643
1544.1200, -40.634
1544.1400, -40.638
1544.1600, -40.631
1544.1800, -40.629
1544.2000, -40.634
1544.2200, -40.638
1544.2400, -40.634
1544.2600, -40.635
1544.2800, -40.626
1544.3000, -40.628
1544.3200, -40.621
1544.3400, -40.622
1544.3600, -40.619
1544.3800, -40.615
1544.4000, -40.612
1544.4200, -40.616
1544.4400, -40.616
1544.4600, -40.611
1544.4800, -40.606
1544.5000, -40.609
1544.5200, -40.614
1544.5400, -40.603
1544.5600, -40.597
1544.5800, -40.601
1544.6000, -40.599
1544.6200, -40.596
1544.6400, -40.589
1544.6600, -40.588
1544.6800, -40.586
1544.7000, -40.587
1544.7200, -40.582
1544.7400, -40.590
1544.7600, -40.582
1544.7800, -40.577
1544.8000, -40.586
1544.8200, -40.588
1544.8400, -40.585
1544.8600, -40.581
1544.8800, -40.578
1544.9000, -40.575
1544.9200, -40.578
1544.9400, -40.576
1544.9600, -40.576
1544.9800, -40.578
1545.0000, -40.577
1545.0200, -40.572
1545.0400, -40.571
1545.0600, -40.574
1545.0800, -40.570
1545.1000, -40.571
1545.1200, -40.575
1545.1400, -40.574
1545.1600, -40.572
1545.1800, -40.569
1545.2000, -40.569
1545.2200, -40.568
1545.2400, -40.569
1545.2600, -40.572
1545.2800, -40.571
1545.3000, -40.570
1545.3200, -40.567
1545.3400, -40.584
1545.3600, -40.575
1545.3800, -40.568
1545.4000, -40.574
1545.4200, -40.571
1545.4400, -40.573
1545.4600, -40.560
1545.4800, -40.561
1545.5000, -40.559
1545.5200, -40.553
1545.5400, -40.550
1545.5600, -40.543
1545.5800, -40.536
1545.6000, -40.552
1545.6200, -40.543
1545.6400, -40.543
1545.6600, -40.556
1545.6800, -40.548
1545.7000, -40.546
1545.7200, -40.550
1545.7400, -40.549
1545.7600, -40.544
1545.7800, -40.539
1545.8000, -40.532
1545.8200, -40.529
1545.8400, -40.541
1545.8600, -40.536
1545.8800, -40.539
1545.9000, -40.540
1545.9200, -40.536
1545.9400, -40.529
1545.9600, -40.537
1545.9800, -40.527
1546.0000, -40.527
1546.0200, -40.533
1546.0400, -40.535
1546.0600, -40.533
1546.0800, -40.534
1546.1000, -40.528
1546.1200, -40.531
1546.1400, -40.530
1546.1600, -40.533
1546.1800, -40.534
1546.2000, -40.532
1546.2200, -40.534
1546.2400, -40.543
1546.2600, -40.542
1546.2800, -40.544
1546.3000, -40.539
1546.3200, -40.542
1546.3400, -40.546
1546.3600, -40.535
1546.3800, -40.541
1546.4000, -40.548
1546.4200, -40.545
1546.4400, -40.547
1546.4600, -40.545
1546.4800, -40.543
1546.5000, -40.547
1546.5200, -40.548
1546.5400, -40.542
1546.5600, -40.550
1546.5800, -40.551
1546.6000, -40.548
1546.6200, -40.551
1546.6400, -40.546
1546.6600, -40.552
1546.6800, -40.553
1546.7000, -40.554
1546.7200, -40.554
1546.7400, -40.555
1546.7600, -40.555
1546.7800, -40.552
1546.8000, -40.544
1546.8200, -40.551
1546.8400, -40.556
1546.8600, -40.557
1546.8800, -40.550
1546.9000, -40.547
1546.9200, -40.547
1546.9400, -40.550
1546.9600, -40.555
1546.9800, -40.560
1547.0000, -40.557
1547.0200, -40.551
1547.0400, -40.556
1547.0600, -40.552
1547.0800, -40.554
1547.1000, -40.555
1547.1200, -40.562
1547.1400, -40.558
1547.1600, -40.568
1547.1800, -40.573
1547.2000, -40.566
1547.2200, -40.570
1547.2400, -40.572
1547.2600, -40.568
1547.2800, -40.560
1547.3000, -40.568
1547.3200, -40.563
1547.3400, -40.570
1547.3600, -40.569
1547.3800, -40.571
1547.4000, -40.575
1547.4200, -40.569
1547.4400, -40.567
1547.4600, -40.571
1547.4800, -40.566
1547.5000, -40.557
1547.5200, -40.566
1547.5400, -40.566
1547.5600, -40.565
1547.5800, -40.563
1547.6000, -40.566
1547.6200, -40.566
1547.6400, -40.571
1547.6600, -40.574
1547.6800, -40.579
1547.7000, -40.583
1547.7200, -40.590
1547.7400, -40.590
1547.7600, -40.585
1547.7800, -40.578
1547.8000, -40.582
1547.8200, -40.585
1547.8400, -40.589
1547.8600, -40.591
1547.8800, -40.592
1547.9000, -40.582
1547.9200, -40.585
1547.9400, -40.597
1547.9600, -40.588
1547.9800, -40.591
1548.0000, -40.597
1548.0200, -40.607
1548.0400, -40.603
1548.0600, -40.604
1548.0800, -40.605
1548.1000, -40.602
1548.1200, -40.607
1548.1400, -40.606
1548.1600, -40.602
1548.1800, -40.598
1548.2000, -40.606
1548.2200, -40.608
1548.2400, -40.606
1548.2600, -40.610
1548.2800, -40.611
1548.3000, -40.612
1548.3200, -40.608
1548.3400, -40.605
1548.3600, -40.619
1548.3800, -40.617
1548.4000, -40.614
1548.4200, -40.619
1548.4400, -40.613
1548.4600, -40.621
1548.4800, -40.620
1548.5000, -40.619
1548.5200, -40.620
1548.5400, -40.617
1548.5600, -40.617
1548.5800, -40.619
1548.6000, -40.624
1548.6200, -40.629
1548.6400, -40.631
1548.6600, -40.636
1548.6800, -40.634
1548.7000, -40.632
1548.7200, -40.635
1548.7400, -40.642
1548.7600, -40.651
1548.7800, -40.656
1548.8000, -40.661
1548.8200, -40.664
1548.8400, -40.662
1548.8600, -40.660
1548.8800, -40.660
1548.9000, -40.662
1548.9200, -40.667
1548.9400, -40.668
1548.9600, -40.671
1548.9800, -40.671
1549.0000, -40.671
1549.0200, -40.674
1549.0400, -40.676
1549.0600, -40.680
1549.0800, -40.679
1549.1000, -40.678
1549.1200, -40.677
1549.1400, -40.677
1549.1600, -40.678
1549.1800, -40.676
1549.2000, -40.681
1549.2200, -40.683
1549.2400, -40.693
1549.2600, -40.683
1549.2800, -40.689
1549.3000, -40.687
1549.3200, -40.685
1549.3400, -40.684
1549.3600, -40.685
1549.3800, -40.686
1549.4000, -40.686
1549.4200, -40.692
1549.4400, -40.698
1549.4600, -40.699
1549.4800, -40.703
1549.5000, -40.703
1549.5200, -40.709
1549.5400, -40.716
1549.5600, -40.722
1549.5800, -40.716
1549.6000, -40.717
1549.6200, -40.721
1549.6400, -40.728
1549.6600, -40.732
1549.6800, -40.733
1549.7000, -40.729
1549.7200, -40.734
1549.7400, -40.744
1549.7600, -40.744
1549.7800, -40.742
1549.8000, -40.749
1549.8200, -40.755
1549.8400, -40.758
1549.8600, -40.763
1549.8800, -40.763
1549.9000, -40.762
1549.9200, -40.763
1549.9400, -40.755
1549.9600, -40.761
1549.9800, -40.764
1550.0000, -40.767
1550.0200, -40.768
1550.0400, -40.768
1550.0600, -40.765
1550.0800, -40.766
1550.1000, -40.776
1550.1200, -40.767
1550.1400, -40.767
1550.1600, -40.763
1550.1800, -40.769
1550.2000, -40.776
1550.2200, -40.775
1550.2400, -40.773
1550.2600, -40.780
1550.2800, -40.783
1550.3000, -40.789
1550.3200, -40.799
1550.3400, -40.802
1550.3600, -40.805
1550.3800, -40.808
1550.4000, -40.812
1550.4200, -40.815
1550.4400, -40.816
1550.4600, -40.817
1550.4800, -40.815
1550.5000, -40.820
1550.5200, -40.821
1550.5400, -40.826
1550.5600, -40.828
1550.5800, -40.830
1550.6000, -40.825
1550.6200, -40.829
1550.6400, -40.837
1550.6600, -40.843
1550.6800, -40.845
1550.7000, -40.850
1550.7200, -40.855
1550.7400, -40.856
1550.7600, -40.864
1550.7800, -40.865
1550.8000, -40.871
1550.8200, -40.876
1550.8400, -40.883
1550.8600, -40.884
1550.8800, -40.883
1550.9000, -40.891
1550.9200, -40.891
1550.9400, -40.893
1550.9600, -40.892
1550.9800, -40.892
1551.0000, -40.898
1551.0200, -40.896
1551.0400, -40.904
1551.0600, -40.905
1551.0800, -40.912
1551.1000, -40.913
1551.1200, -40.918
1551.1400, -40.918
1551.1600, -40.921
1551.1800, -40.925
1551.2000, -40.926
1551.2200, -40.930
1551.2400, -40.935
1551.2600, -40.940
1551.2800, -40.945
1551.3000, -40.947
1551.3200, -40.950
1551.3400, -40.950
1551.3600, -40.946
1551.3800, -40.953
1551.4000, -40.950
1551.4200, -40.954
1551.4400, -40.957
1551.4600, -40.962
1551.4800, -40.966
1551.5000, -40.961
1551.5200, -40.964
1551.5400, -40.964
1551.5600, -40.969
1551.5800, -40.972
1551.6000, -40.976
1551.6200, -40.982
1551.6400, -40.982
1551.6600, -40.992
1551.6800, -40.994
1551.7000, -40.994
1551.7200, -41.005
1551.7400, -41.007
1551.7600, -41.008
1551.7800, -41.006
1551.8000, -41.014
1551.8200, -41.015
1551.8400, -41.016
1551.8600, -41.014
1551.8800, -41.015
1551.9000, -41.026
1551.9200, -41.022
1551.9400, -41.028
1551.9600, -41.026
1551.9800, -41.030
1552.0000, -41.028
1552.0200, -41.033
1552.0400, -41.034
1552.0600, -41.037
1552.0800, -41.041
1552.1000, -41.044
1552.1200, -41.055
1552.1400, -41.060
1552.1600, -41.061
1552.1800, -41.067
1552.2000, -41.070
1552.2200, -41.073
1552.2400, -41.077
1552.2600, -41.071
1552.2800, -41.075
1552.3000, -41.074
1552.3200, -41.079
1552.3400, -41.083
1552.3600, -41.084
1552.3800, -41.081
1552.4000, -41.087
1552.4200, -41.088
1552.4400, -41.095
1552.4600, -41.091
1552.4800, -41.093
1552.5000, -41.097
1552.5200, -41.108
1552.5400, -41.105
1552.5600, -41.112
1552.5800, -41.110
1552.6000, -41.111
1552.6200, -41.125
1552.6400, -41.131
1552.6600, -41.134
1552.6800, -41.139
1552.7000, -41.145
1552.7200, -41.144
1552.7400, -41.144
1552.7600, -41.141
1552.7800, -41.147
1552.8000, -41.157
1552.8200, -41.151
1552.8400, -41.158
1552.8600, -41.152
1552.8800, -41.161
1552.9000, -41.163
1552.9200, -41.163
1552.9400, -41.164
1552.9600, -41.165
1552.9800, -41.166
1553.0000, -41.171
1553.0200, -41.172
1553.0400, -41.175
1553.0600, -41.177
1553.0800, -41.183
1553.1000, -41.185
1553.1200, -41.190
1553.1400, -41.194
1553.1600, -41.195
1553.1800, -41.197
1553.2000, -41.203
1553.2200, -41.206
1553.2400, -41.213
1553.2600, -41.216
1553.2800, -41.219
1553.3000, -41.221
1553.3200, -41.224
1553.3400, -41.230
1553.3600, -41.229
1553.3800, -41.232
1553.4000, -41.233
1553.4200, -41.234
1553.4400, -41.235
1553.4600, -41.238
1553.4800, -41.243
1553.5000, -41.238
1553.5200, -41.247
1553.5400, -41.246
1553.5600, -41.246
1553.5800, -41.250
1553.6000, -41.252
1553.6200, -41.251
1553.6400, -41.255
1553.6600, -41.256
1553.6800, -41.259
1553.7000, -41.260
1553.7200, -41.257
1553.7400, -41.264
1553.7600, -41.263
1553.7800, -41.266
1553.8000, -41.270
1553.8200, -41.271
1553.8400, -41.273
1553.8600, -41.274
1553.8800, -41.279
1553.9000, -41.282
1553.9200, -41.283
1553.9400, -41.285
1553.9600, -41.289
1553.9800, -41.291
1554.0000, -41.296
1554.0200, -41.301
1554.0400, -41.301
1554.0600, -41.303
1554.0800, -41.310
1554.1000, -41.314
1554.1200, -41.322
1554.1400, -41.330
1554.1600, -41.329
1554.1800, -41.328
1554.2000, -41.330
1554.2200, -41.332
1554.2400, -41.337
1554.2600, -41.338
1554.2800, -41.338
1554.3000, -41.346
1554.3200, -41.342
1554.3400, -41.349
1554.3600, -41.352
1554.3800, -41.344
1554.4000, -41.348
1554.4200, -41.349
1554.4400, -41.351
1554.4600, -41.354
1554.4800, -41.355
1554.5000, -41.353
1554.5200, -41.356
1554.5400, -41.359
1554.5600, -41.361
1554.5800, -41.362
1554.6000, -41.367
1554.6200, -41.369
1554.6400, -41.368
1554.6600, -41.376
1554.6800, -41.377
1554.7000, -41.381
1554.7200, -41.381
1554.7400, -41.380
1554.7600, -41.383
1554.7800, -41.380
1554.8000, -41.387
1554.8200, -41.390
1554.8400, -41.388
1554.8600, -41.391
1554.8800, -41.391
1554.9000, -41.397
1554.9200, -41.402
1554.9400, -41.399
1554.9600, -41.394
1554.9800, -41.398
1555.0000, -41.403
1555.0200, -41.407
1555.0400, -41.407
1555.0600, -41.401
1555.0800, -41.402
1555.1000, -41.403
1555.1200, -41.407
1555.1400, -41.410
1555.1600, -41.414
1555.1800, -41.425
1555.2000, -41.434
1555.2200, -41.434
1555.2400, -41.426
1555.2600, -41.427
1555.2800, -41.429
1555.3000, -41.435
1555.3200, -41.432
1555.3400, -41.440
1555.3600, -41.441
1555.3800, -41.443
1555.4000, -41.441
1555.4200, -41.441
1555.4400, -41.443
1555.4600, -41.454
1555.4800, -41.452
1555.5000, -41.456
1555.5200, -41.450
1555.5400, -41.456
1555.5600, -41.469
1555.5800, -41.471
1555.6000, -41.473
1555.6200, -41.476
1555.6400, -41.477
1555.6600, -41.478
1555.6800, -41.481
1555.7000, -41.484
1555.7200, -41.482
1555.7400, -41.484
1555.7600, -41.486
1555.7800, -41.492
1555.8000, -41.489
1555.8200, -41.499
1555.8400, -41.493
1555.8600, -41.499
1555.8800, -41.504
1555.9000, -41.510
1555.9200, -41.509
1555.9400, -41.513
1555.9600, -41.516
1555.9800, -41.524
1556.0000, -41.529
1556.0200, -41.532
1556.0400, -41.537
1556.0600, -41.543
1556.0800, -41.547
1556.1000, -41.557
1556.1200, -41.556
1556.1400, -41.556
1556.1600, -41.555
1556.1800, -41.558
1556.2000, -41.556
1556.2200, -41.565
1556.2400, -41.566
1556.2600, -41.567
1556.2800, -41.565
1556.3000, -41.564
1556.3200, -41.567
1556.3400, -41.572
1556.3600, -41.570
1556.3800, -41.578
1556.4000, -41.573
1556.4200, -41.574
1556.4400, -41.587
1556.4600, -41.579
1556.4800, -41.588
1556.5000, -41.589
1556.5200, -41.592
1556.5400, -41.594
1556.5600, -41.592
1556.5800, -41.594
1556.6000, -41.599
1556.6200, -41.603
1556.6400, -41.609
1556.6600, -41.613
1556.6800, -41.619
1556.7000, -41.624
1556.7200, -41.623
1556.7400, -41.626
1556.7600, -41.630
1556.7800, -41.634
1556.8000, -41.640
1556.8200, -41.643
1556.8400, -41.641
1556.8600, -41.643
1556.8800, -41.647
1556.9000, -41.659
1556.9200, -41.654
1556.9400, -41.657
1556.9600, -41.663
1556.9800, -41.665
1557.0000, -41.667
1557.0200, -41.677
1557.0400, -41.675
1557.0600, -41.670
1557.0800, -41.675
1557.1000, -41.679
1557.1200, -41.677
1557.1400, -41.679
1557.1600, -41.687
1557.1800, -41.686
1557.2000, -41.690
1557.2200, -41.695
1557.2400, -41.697
1557.2600, -41.703
1557.2800, -41.707
1557.3000, -41.710
1557.3200, -41.718
1557.3400, -41.722
1557.3600, -41.723
1557.3800, -41.732
1557.4000, -41.738
1557.4200, -41.745
1557.4400, -41.751
1557.4600, -41.755
1557.4800, -41.761
1557.5000, -41.763
1557.5200, -41.766
1557.5400, -41.772
1557.5600, -41.777
1557.5800, -41.780
1557.6000, -41.785
1557.6200, -41.782
1557.6400, -41.789
1557.6600, -41.797
1557.6800, -41.808
1557.7000, -41.813
1557.7200, -41.815
1557.7400, -41.823
1557.7600, -41.828
1557.7800, -41.832
1557.8000, -41.835
1557.8200, -41.839
1557.8400, -41.839
1557.8600, -41.842
1557.8800, -41.846
1557.9000, -41.852
1557.9200, -41.859
1557.9400, -41.855
1557.9600, -41.865
1557.9800, -41.870
1558.0000, -41.877
1558.0200, -41.880
1558.0400, -41.889
1558.0600, -41.896
1558.0800, -41.902
1558.1000, -41.913
1558.1200, -41.915
1558.1400, -41.920
1558.1600, -41.928
1558.1800, -41.930
1558.2000, -41.931
1558.2200, -41.937
1558.2400, -41.932
1558.2600, -41.946
1558.2800, -41.948
1558.3000, -41.954
1558.3200, -41.957
1558.3400, -41.961
1558.3600, -41.967
1558.3800, -41.973
1558.4000, -41.977
1558.4200, -41.983
1558.4400, -41.987
1558.4600, -41.995
1558.4800, -42.001
1558.5000, -42.000
1558.5200, -42.010
1558.5400, -42.014
1558.5600, -42.024
1558.5800, -42.030
1558.6000, -42.032
1558.6200, -42.036
1558.6400, -42.044
1558.6600, -42.053
1558.6800, -42.061
1558.7000, -42.067
1558.7200, -42.074
1558.7400, -42.075
1558.7600, -42.084
1558.7800, -42.088
1558.8000, -42.096
1558.8200, -42.108
1558.8400, -42.112
1558.8600, -42.117
1558.8800, -42.126
1558.9000, -42.123
1558.9200, -42.133
1558.9400, -42.148
1558.9600, -42.153
1558.9800, -42.159
1559.0000, -42.168
1559.0200, -42.175
1559.0400, -42.181
1559.0600, -42.187
1559.0800, -42.196
1559.1000, -42.206
1559.1200, -42.205
1559.1400, -42.220
1559.1600, -42.230
1559.1800, -42.238
1559.2000, -42.246
1559.2200, -42.258
1559.2400, -42.262
1559.2600, -42.266
1559.2800, -42.276
1559.3000, -42.280
1559.3200, -42.288
1559.3400, -42.301
1559.3600, -42.302
1559.3800, -42.313
1559.4000, -42.317
1559.4200, -42.325
1559.4400, -42.334
1559.4600, -42.344
1559.4800, -42.351
1559.5000, -42.362
1559.5200, -42.371
1559.5400, -42.383
1559.5600, -42.393
1559.5800, -42.400
1559.6000, -42.410
1559.6200, -42.417
1559.6400, -42.427
1559.6600, -42.426
1559.6800, -42.433
1559.7000, -42.447
1559.7200, -42.455
1559.7400, -42.465
1559.7600, -42.476
1559.7800, -42.483
1559.8000, -42.485
1559.8200, -42.503
1559.8400, -42.508
1559.8600, -42.509
1559.8800, -42.518
1559.9000, -42.530
1559.9200, -42.535
1559.9400, -42.544
1559.9600, -42.561
1559.9800, -42.578
1560.0000, -42.589
1560.0200, -42.591
1560.0400, -42.607
1560.0600, -42.618
1560.0800, -42.621
1560.1000, -42.637
1560.1200, -42.645
1560.1400, -42.654
1560.1600, -42.665
1560.1800, -42.677
1560.2000, -42.688
1560.2200, -42.700
1560.2400, -42.706
1560.2600, -42.721
1560.2800, -42.737
1560.3000, -42.746
1560.3200, -42.758
1560.3400, -42.768
1560.3600, -42.771
1560.3800, -42.784
1560.4000, -42.796
1560.4200, -42.802
1560.4400, -42.813
1560.4600, -42.822
1560.4800, -42.835
1560.5000, -42.845
1560.5200, -42.856
1560.5400, -42.872
1560.5600, -42.881
1560.5800, -42.892
1560.6000, -42.908
1560.6200, -42.920
1560.6400, -42.936
1560.6600, -42.944
1560.6800, -42.952
1560.7000, -42.971
1560.7200, -42.978
1560.7400, -42.989
1560.7600, -42.998
1560.7800, -43.005
1560.8000, -43.014
1560.8200, -43.026
1560.8400, -43.037
1560.8600, -43.049
1560.8800, -43.059
1560.9000, -43.071
1560.9200, -43.088
1560.9400, -43.094
1560.9600, -43.106
1560.9800, -43.114
1561.0000, -43.127
1561.0200, -43.139
1561.0400, -43.151
1561.0600, -43.163
1561.0800, -43.178
1561.1000, -43.192
1561.1200, -43.199
1561.1400, -43.213
1561.1600, -43.229
1561.1800, -43.243
1561.2000, -43.256
1561.2200, -43.271
1561.2400, -43.284
1561.2600, -43.295
1561.2800, -43.310
1561.3000, -43.323
1561.3200, -43.337
1561.3400, -43.356
1561.3600, -43.372
1561.3800, -43.384
1561.4000, -43.401
1561.4200, -43.411
1561.4400, -43.422
1561.4600, -43.435
1561.4800, -43.455
1561.5000, -43.465
1561.5200, -43.485
1561.5400, -43.496
1561.5600, -43.511
1561.5800, -43.530
1561.6000, -43.542
1561.6200, -43.558
1561.6400, -43.568
1561.6600, -43.584
1561.6800, -43.598
1561.7000, -43.616
1561.7200, -43.630
1561.7400, -43.649
1561.7600, -43.655
1561.7800, -43.673
1561.8000, -43.690
1561.8200, -43.703
1561.8400, -43.716
1561.8600, -43.728
1561.8800, -43.740
1561.9000, -43.752
1561.9200, -43.766
1561.9400, -43.783
1561.9600, -43.796
1561.9800, -43.808
1562.0000, -43.823
1562.0200, -43.837
1562.0400, -43.848
1562.0600, -43.865
1562.0800, -43.882
1562.1000, -43.903
1562.1200, -43.921
1562.1400, -43.932
1562.1600, -43.946
1562.1800, -43.964
1562.2000, -43.979
1562.2200, -43.997
1562.2400, -44.014
1562.2600, -44.031
1562.2800, -44.045
1562.3000, -44.061
1562.3200, -44.070
1562.3400, -44.092
1562.3600, -44.109
1562.3800, -44.118
1562.4000, -44.140
1562.4200, -44.151
1562.4400, -44.168
1562.4600, -44.188
1562.4800, -44.199
1562.5000, -44.212
1562.5200, -44.230
1562.5400, -44.246
1562.5600, -44.256
1562.5800, -44.277
1562.6000, -44.289
1562.6200, -44.310
1562.6400, -44.323
1562.6600, -44.339
1562.6800, -44.355
1562.7000, -44.367
1562.7200, -44.385
1562.7400, -44.401
1562.7600, -44.417
1562.7800, -44.432
1562.8000, -44.447
1562.8200, -44.463
1562.8400, -44.482
1562.8600, -44.498
1562.8800, -44.519
1562.9000, -44.532
1562.9200, -44.548
1562.9400, -44.567
1562.9600, -44.585
1562.9800, -44.600
1563.0000, -44.621
1563.0200, -44.640
1563.0400, -44.654
1563.0600, -44.677
1563.0800, -44.690
1563.1000, -44.711
1563.1200, -44.731
1563.1400, -44.749
1563.1600, -44.761
1563.1800, -44.780
1563.2000, -44.795
1563.2200, -44.817
1563.2400, -44.831
1563.2600, -44.844
1563.2800, -44.861
1563.3000, -44.879
1563.3200, -44.899
1563.3400, -44.915
1563.3600, -44.930
1563.3800, -44.949
1563.4000, -44.970
1563.4200, -44.985
1563.4400, -44.998
1563.4600, -45.025
1563.4800, -45.033
1563.5000, -45.058
1563.5200, -45.075
1563.5400, -45.090
1563.5600, -45.103
1563.5800, -45.117
1563.6000, -45.140
1563.6200, -45.160
1563.6400, -45.177
1563.6600, -45.195
1563.6800, -45.213
1563.7000, -45.231
1563.7200, -45.253
1563.7400, -45.266
1563.7600, -45.289
1563.7800, -45.308
1563.8000, -45.324
1563.8200, -45.338
1563.8400, -45.359
1563.8600, -45.381
1563.8800, -45.400
1563.9000, -45.418
1563.9200, -45.433
1563.9400, -45.457
1563.9600, -45.475
1563.9800, -45.495
1564.0000, -45.514
1564.0200, -45.532
1564.0400, -45.544
1564.0600, -45.562
1564.0800, -45.582
1564.1000, -45.606
1564.1200, -45.615
1564.1400, -45.636
1564.1600, -45.655
1564.1800, -45.671
1564.2000, -45.690
1564.2200, -45.711
1564.2400, -45.724
1564.2600, -45.746
1564.2800, -45.763
1564.3000, -45.778
1564.3200, -45.796
1564.3400, -45.821
1564.3600, -45.831
1564.3800, -45.855
1564.4000, -45.876
1564.4200, -45.895
1564.4400, -45.912
1564.4600, -45.931
1564.4800, -45.951
1564.5000, -45.969
1564.5200, -45.989
1564.5400, -46.011
1564.5600, -46.031
1564.5800, -46.049
1564.6000, -46.070
1564.6200, -46.087
1564.6400, -46.106
1564.6600, -46.127
1564.6800, -46.140
1564.7000, -46.162
1564.7200, -46.181
1564.7400, -46.202
1564.7600, -46.222
1564.7800, -46.238
1564.8000, -46.254
1564.8200, -46.277
1564.8400, -46.293
1564.8600, -46.317
1564.8800, -46.337
1564.9000, -46.355
1564.9200, -46.372
1564.9400, -46.391
1564.9600, -46.415
1564.9800, -46.436
1565.0000, -46.449
1565.0200, -46.471
1565.0400, -46.496
1565.0600, -46.514
1565.0800, -46.532
1565.1000, -46.551
1565.1200, -46.570
1565.1400, -46.588
1565.1600, -46.607
1565.1800, -46.631
1565.2000, -46.647
1565.2200, -46.668
1565.2400, -46.680
1565.2600, -46.704
1565.2800, -46.727
1565.3000, -46.747
1565.3200, -46.764
1565.3400, -46.786
1565.3600, -46.802
1565.3800, -46.824
1565.4000, -46.845
1565.4200, -46.865
1565.4400, -46.887
1565.4600, -46.907
1565.4800, -46.929
1565.5000, -46.947
1565.5200, -46.967
1565.5400, -46.984
1565.5600, -46.999
1565.5800, -47.022
1565.6000, -47.045
1565.6200, -47.068
1565.6400, -47.088
1565.6600, -47.103
1565.6800, -47.118
1565.7000, -47.142
1565.7200, -47.159
1565.7400, -47.188
1565.7600, -47.202
1565.7800, -47.223
1565.8000, -47.246
1565.8200, -47.261
1565.8400, -47.283
1565.8600, -47.307
1565.8800, -47.314
1565.9000, -47.337
1565.9200, -47.362
1565.9400, -47.382
1565.9600, -47.403
1565.9800, -47.421
1566.0000, -47.435
1566.0200, -47.461
1566.0400, -47.479
1566.0600, -47.501
1566.0800, -47.513
1566.1000, -47.540
1566.1200, -47.556
1566.1400, -47.577
1566.1600, -47.599
1566.1800, -47.616
1566.2000, -47.632
1566.2200, -47.655
1566.2400, -47.675
1566.2600, -47.694
1566.2800, -47.712
1566.3000, -47.731
1566.3200, -47.750
1566.3400, -47.774
1566.3600, -47.791
1566.3800, -47.816
1566.4000, -47.830
1566.4200, -47.852
1566.4400, -47.874
1566.4600, -47.894
1566.4800, -47.910
1566.5000, -47.932
1566.5200, -47.953
1566.5400, -47.974
1566.5600, -47.991
1566.5800, -48.012
1566.6000, -48.030
1566.6200, -48.051
1566.6400, -48.074
1566.6600, -48.094
1566.6800, -48.118
1566.7000, -48.131
1566.7200, -48.152
1566.7400, -48.174
1566.7600, -48.188
1566.7800, -48.212
1566.8000, -48.234
1566.8200, -48.250
1566.8400, -48.276
1566.8600, -48.294
1566.8800, -48.308
1566.9000, -48.326
1566.9200, -48.350
1566.9400, -48.364
1566.9600, -48.386
1566.9800, -48.407
1567.0000, -48.425
1567.0200, -48.448
1567.0400, -48.469
1567.0600, -48.491
1567.0800, -48.510
1567.1000, -48.529
1567.1200, -48.548
1567.1400, -48.570
1567.1600, -48.586
1567.1800, -48.608
1567.2000, -48.624
1567.2200, -48.644
1567.2400, -48.667
1567.2600, -48.687
1567.2800, -48.703
1567.3000, -48.730
1567.3200, -48.749
1567.3400, -48.766
1567.3600, -48.789
1567.3800, -48.807
1567.4000, -48.829
1567.4200, -48.847
1567.4400, -48.864
1567.4600, -48.888
1567.4800, -48.909
1567.5000, -48.927
1567.5200, -48.947
1567.5400, -48.966
1567.5600, -48.987
1567.5800, -49.007
1567.6000, -49.026
1567.6200, -49.054
1567.6400, -49.068
1567.6600, -49.090
1567.6800, -49.109
1567.7000, -49.126
1567.7200, -49.150
1567.7400, -49.163
1567.7600, -49.185
1567.7800, -49.205
1567.8000, -49.224
1567.8200, -49.238
1567.8400, -49.257
1567.8600, -49.277
1567.8800, -49.305
1567.9000, -49.327
1567.9200, -49.343
1567.9400, -49.359
1567.9600, -49.376
1567.9800, -49.395
1568.0000, -49.419
1568.0200, -49.430
1568.0400, -49.453
1568.0600, -49.475
1568.0800, -49.491
1568.1000, -49.515
1568.1200, -49.532
1568.1400, -49.560
1568.1600, -49.572
1568.1800, -49.598
1568.2000, -49.610
1568.2200, -49.634
1568.2400, -49.668
1568.2600, -49.683
1568.2800, -49.703
1568.3000, -49.723
1568.3200, -49.739
1568.3400, -49.759
1568.3600, -49.778
1568.3800, -49.799
1568.4000, -49.820
1568.4200, -49.840
1568.4400, -49.858
1568.4600, -49.876
1568.4800, -49.899
1568.5000, -49.890
1568.5200, -49.938
1568.5400, -49.957
1568.5600, -49.980
1568.5800, -49.990
1568.6000, -50.009
1568.6200, -50.035
1568.6400, -50.055
1568.6600, -50.071
1568.6800, -50.090
1568.7000, -50.111
1568.7200, -50.132
1568.7400, -50.149
1568.7600, -50.170
1568.7800, -50.191
1568.8000, -50.209
1568.8200, -50.225
1568.8400, -50.245
1568.8600, -50.264
1568.8800, -50.284
1568.9000, -50.301
1568.9200, -50.323
1568.9400, -50.338
1568.9600, -50.359
1568.9800, -50.379
1569.0000, -50.400
1569.0200, -50.417
1569.0400, -50.437
1569.0600, -50.460
1569.0800, -50.476
1569.1000, -50.495
1569.1200, -50.515
1569.1400, -50.539
1569.1600, -50.559
1569.1800, -50.578
1569.2000, -50.596
1569.2200, -50.616
1569.2400, -50.631
1569.2600, -50.650
1569.2800, -50.673
1569.3000, -50.691
1569.3200, -50.702
1569.3400, -50.722
1569.3600, -50.748
1569.3800, -50.763
1569.4000, -50.787
1569.4200, -50.808
1569.4400, -50.821
1569.4600, -50.840
1569.4800, -50.857
1569.5000, -50.876
1569.5200, -50.894
1569.5400, -50.911
1569.5600, -50.929
1569.5800, -50.956
1569.6000, -50.968
1569.6200, -50.992
1569.6400, -51.013
1569.6600, -51.028
1569.6800, -51.046
1569.7000, -51.066
1569.7200, -51.091
1569.7400, -51.101
1569.7600, -51.118
1569.7800, -51.143
1569.8000, -51.158
1569.8200, -51.178
1569.8400, -51.197
1569.8600, -51.214
1569.8800, -51.234
1569.9000, -51.254
1569.9200, -51.268
1569.9400, -51.291
1569.9600, -51.307
1569.9800, -51.331
1570.0000, -51.344
1570.0200, -51.365
1570.0400, -51.388
1570.0600, -51.400
1570.0800, -51.421
1570.1000, -51.439
1570.1200, -51.455
1570.1400, -51.477
1570.1600, -51.492
1570.1800, -51.514
1570.2000, -51.532
1570.2200, -51.561
1570.2400, -51.571
1570.2600, -51.589
1570.2800, -51.609
1570.3000, -51.625
1570.3200, -51.647
1570.3400, -51.663
1570.3600, -51.674
1570.3800, -51.699
1570.4000, -51.716
1570.4200, -51.731
1570.4400, -51.751
1570.4600, -51.770
1570.4800, -51.795
1570.5000, -51.809
1570.5200, -51.825
1570.5400, -51.843
1570.5600, -51.860
1570.5800, -51.879
1570.6000, -51.900
1570.6200, -51.913
1570.6400, -51.938
1570.6600, -51.954
1570.6800, -51.967
1570.7000, -51.990
1570.7200, -52.011
1570.7400, -52.031
1570.7600, -52.045
1570.7800, -52.064
1570.8000, -52.087
1570.8200, -52.106
1570.8400, -52.121
1570.8600, -52.140
1570.8800, -52.157
1570.9000, -52.172
1570.9200, -52.193
1570.9400, -52.213
1570.9600, -52.232
1570.9800, -52.246
1571.0000, -52.270
1571.0200, -52.283
1571.0400, -52.300
1571.0600, -52.320
1571.0800, -52.330
1571.1000, -52.348
1571.1200, -52.370
1571.1400, -52.393
1571.1600, -52.402
1571.1800, -52.426
1571.2000, -52.441
1571.2200, -52.458
1571.2400, -52.478
1571.2600, -52.495
1571.2800, -52.510
1571.3000, -52.533
1571.3200, -52.545
1571.3400, -52.562
1571.3600, -52.593
1571.3800, -52.602
1571.4000, -52.615
1571.4200, -52.636
1571.4400, -52.653
1571.4600, -52.673
1571.4800, -52.689
1571.5000, -52.707
1571.5200, -52.725
1571.5400, -52.744
1571.5600, -52.763
1571.5800, -52.783
1571.6000, -52.795
1571.6200, -52.816
1571.6400, -52.835
1571.6600, -52.848
1571.6800, -52.864
1571.7000, -52.886
1571.7200, -52.900
1571.7400, -52.922
1571.7600, -52.935
1571.7800, -52.953
1571.8000, -52.968
1571.8200, -52.983
1571.8400, -53.007
1571.8600, -53.021
1571.8800, -53.040
1571.9000, -53.057
1571.9200, -53.075
1571.9400, -53.093
1571.9600, -53.109
1571.9800, -53.120
1572.0000, -53.150
1572.0200, -53.157
1572.0400, -53.183
1572.0600, -53.193
1572.0800, -53.210
1572.1000, -53.239
1572.1200, -53.244
1572.1400, -53.262
1572.1600, -53.279
1572.1800, -53.300
1572.2000, -53.312
1572.2200, -53.329
1572.2400, -53.349
1572.2600, -53.360
1572.2800, -53.387
1572.3000, -53.404
1572.3200, -53.407
1572.3400, -53.431
1572.3600, -53.441
1572.3800, -53.465
1572.4000, -53.480
1572.4200, -53.496
1572.4400, -53.511
1572.4600, -53.530
1572.4800, -53.544
1572.5000, -53.556
1572.5200, -53.578
1572.5400, -53.598
1572.5600, -53.617
1572.5800, -53.632
1572.6000, -53.644
1572.6200, -53.667
1572.6400, -53.673
1572.6600, -53.698
1572.6800, -53.706
1572.7000, -53.725
1572.7200, -53.738
1572.7400, -53.754
1572.7600, -53.773
1572.7800, -53.790
1572.8000, -53.801
1572.8200, -53.828
1572.8400, -53.838
1572.8600, -53.851
1572.8800, -53.872
1572.9000, -53.895
1572.9200, -53.914
1572.9400, -53.924
1572.9600, -53.934
1572.9800, -53.952
1573.0000, -53.967
1573.0200, -53.994
1573.0400, -53.999
1573.0600, -54.016
1573.0800, -54.031
1573.1000, -54.055
1573.1200, -54.063
1573.1400, -54.082
1573.1600, -54.101
1573.1800, -54.106
1573.2000, -54.128
1573.2200, -54.143
1573.2400, -54.158
1573.2600, -54.179
1573.2800, -54.192
1573.3000, -54.208
1573.3200, -54.226
1573.3400, -54.236
1573.3600, -54.253
1573.3800, -54.268
1573.4000, -54.282
1573.4200, -54.296
1573.4400, -54.311
1573.4600, -54.326
1573.4800, -54.343
1573.5000, -54.366
1573.5200, -54.379
1573.5400, -54.390
1573.5600, -54.398
1573.5800, -54.424
1573.6000, -54.440
1573.6200, -54.455
1573.6400, -54.475
1573.6600, -54.478
1573.6800, -54.499
1573.7000, -54.515
1573.7200, -54.541
1573.7400, -54.547
1573.7600, -54.560
1573.7800, -54.568
1573.8000, -54.585
1573.8200, -54.614
1573.8400, -54.611
1573.8600, -54.635
1573.8800, -54.648
1573.9000, -54.668
1573.9200, -54.681
1573.9400, -54.693
1573.9600, -54.708
1573.9800, -54.726
1574.0000, -54.734
1574.0200, -54.761
1574.0400, -54.756
1574.0600, -54.778
1574.0800, -54.801
1574.1000, -54.818
1574.1200, -54.829
1574.1400, -54.842
1574.1600, -54.856
1574.1800, -54.871
1574.2000, -54.879
1574.2200, -54.906
1574.2400, -54.918
1574.2600, -54.929
1574.2800, -54.941
1574.3000, -54.957
1574.3200, -54.974
1574.3400, -54.985
1574.3600, -55.004
1574.3800, -55.024
1574.4000, -55.033
1574.4200, -55.044
1574.4400, -55.060
1574.4600, -55.079
1574.4800, -55.086
1574.5000, -55.118
1574.5200, -55.120
1574.5400, -55.138
1574.5600, -55.147
1574.5800, -55.166
1574.6000, -55.176
1574.6200, -55.202
1574.6400, -55.200
1574.6600, -55.216
1574.6800, -55.240
1574.7000, -55.256
1574.7200, -55.266
1574.7400, -55.277
1574.7600, -55.282
1574.7800, -55.309
1574.8000, -55.314
1574.8200, -55.334
1574.8400, -55.359
1574.8600, -55.362
1574.8800, -55.387
1574.9000, -55.389
1574.9200, -55.401
1574.9400, -55.423
1574.9600, -55.433
1574.9800, -55.455
1575.0000, -55.464
1575.0200, -55.467
1575.0400, -55.489
1575.0600, -55.494
1575.0800, -55.527
1575.1000, -55.522
1575.1200, -55.550
1575.1400, -55.550
1575.1600, -55.570
1575.1800, -55.587
1575.2000, -55.601
1575.2200, -55.614
1575.2400, -55.625
1575.2600, -55.642
1575.2800, -55.659
1575.3000, -55.666
1575.3200, -55.685
1575.3400, -55.690
1575.3600, -55.711
1575.3800, -55.724
1575.4000, -55.731
1575.4200, -55.751
1575.4400, -55.755
1575.4600, -55.781
1575.4800, -55.797
1575.5000, -55.795
1575.5200, -55.816
1575.5400, -55.828
1575.5600, -55.850
1575.5800, -55.855
1575.6000, -55.871
1575.6200, -55.880
1575.6400, -55.891
1575.6600, -55.901
1575.6800, -55.931
1575.7000, -55.933
1575.7200, -55.929
1575.7400, -55.961
1575.7600, -55.975
1575.7800, -55.988
1575.8000, -56.001
1575.8200, -56.007
1575.8400, -56.032
1575.8600, -56.037
1575.8800, -56.049
1575.9000, -56.061
1575.9200, -56.084
1575.9400, -56.087
1575.9600, -56.101
1575.9800, -56.120
1576.0000, -56.135
1576.0200, -56.141
1576.0400, -56.158
1576.0600, -56.168
1576.0800, -56.175
1576.1000, -56.189
1576.1200, -56.203
1576.1400, -56.216
1576.1600, -56.230
1576.1800, -56.246
1576.2000, -56.243
1576.2200, -56.259
1576.2400, -56.284
1576.2600, -56.292
1576.2800, -56.308
1576.3000, -56.302
1576.3200, -56.334
1576.3400, -56.345
1576.3600, -56.356
1576.3800, -56.369
1576.4000, -56.372
1576.4200, -56.379
1576.4400, -56.395
1576.4600, -56.408
1576.4800, -56.420
1576.5000, -56.432
1576.5200, -56.438
1576.5400, -56.444
1576.5600, -56.484
1576.5800, -56.479
1576.6000, -56.494
1576.6200, -56.488
1576.6400, -56.524
1576.6600, -56.526
1576.6800, -56.525
1576.7000, -56.544
1576.7200, -56.566
1576.7400, -56.577
1576.7600, -56.581
1576.7800, -56.592
1576.8000, -56.614
1576.8200, -56.618
1576.8400, -56.633
1576.8600, -56.642
1576.8800, -56.661
1576.9000, -56.658
1576.9200, -56.684
1576.9400, -56.687
1576.9600, -56.709
1576.9800, -56.717
1577.0000, -56.725
1577.0200, -56.733
1577.0400, -56.752
1577.0600, -56.756
1577.0800, -56.768
1577.1000, -56.776
1577.1200, -56.784
1577.1400, -56.802
1577.1600, -56.823
1577.1800, -56.824
1577.2000, -56.839
1577.2200, -56.848
1577.2400, -56.861
1577.2600, -56.866
1577.2800, -56.889
1577.3000, -56.882
1577.3200, -56.896
1577.3400, -56.908
1577.3600, -56.928
1577.3800, -56.938
1577.4000, -56.960
1577.4200, -56.971
1577.4400, -56.973
1577.4600, -56.982
1577.4800, -56.993
1577.5000, -57.005
1577.5200, -57.022
1577.5400, -57.025
1577.5600, -57.019
1577.5800, -57.053
1577.6000, -57.065
1577.6200, -57.067
1577.6400, -57.075
1577.6600, -57.093
1577.6800, -57.101
1577.7000, -57.118
1577.7200, -57.120
1577.7400, -57.115
1577.7600, -57.146
1577.7800, -57.160
1577.8000, -57.159
1577.8200, -57.174
1577.8400, -57.178
1577.8600, -57.196
1577.8800, -57.209
1577.9000, -57.223
1577.9200, -57.228
1577.9400, -57.231
1577.9600, -57.251
1577.9800, -57.260
1578.0000, -57.270
1578.0200, -57.278
1578.0400, -57.295
1578.0600, -57.309
1578.0800, -57.315
1578.1000, -57.324
1578.1200, -57.331
1578.1400, -57.350
1578.1600, -57.356
1578.1800, -57.365
1578.2000, -57.376
1578.2200, -57.383
1578.2400, -57.400
1578.2600, -57.406
1578.2800, -57.416
1578.3000, -57.421
1578.3200, -57.448
1578.3400, -57.446
1578.3600, -57.458
1578.3800, -57.461
1578.4000, -57.485
1578.4200, -57.475
1578.4400, -57.507
1578.4600, -57.498
1578.4800, -57.526
1578.5000, -57.527
1578.5200, -57.530
1578.5400, -57.541
1578.5600, -57.558
1578.5800, -57.580
1578.6000, -57.575
1578.6200, -57.599
1578.6400, -57.598
1578.6600, -57.623
1578.6800, -57.610
1578.7000, -57.630
1578.7200, -57.631
1578.7400, -57.645
1578.7600, -57.663
1578.7800, -57.666
1578.8000, -57.677
1578.8200, -57.691
1578.8400, -57.695
1578.8600, -57.710
1578.8800, -57.724
1578.9000, -57.726
1578.9200, -57.741
1578.9400, -57.752
1578.9600, -57.757
1578.9800, -57.765
1579.0000, -57.771
1579.0200, -57.782
1579.0400, -57.794
1579.0600, -57.795
1579.0800, -57.823
1579.1000, -57.821
1579.1200, -57.811
1579.1400, -57.852
1579.1600, -57.843
1579.1800, -57.868
1579.2000, -57.880
1579.2200, -57.863
1579.2400, -57.886
1579.2600, -57.900
1579.2800, -57.908
1579.3000, -57.904
1579.3200, -57.920
1579.3400, -57.935
1579.3600, -57.957
1579.3800, -57.945
1579.4000, -57.983
1579.4200, -57.968
1579.4400, -57.981
1579.4600, -57.994
1579.4800, -57.996
1579.5000, -58.020
1579.5200, -58.015
1579.5400, -58.040
1579.5600, -58.027
1579.5800, -58.044
1579.6000, -58.063
1579.6200, -58.061
1579.6400, -58.086
1579.6600, -58.095
1579.6800, -58.102
1579.7000, -58.098
1579.7200, -58.117
1579.7400, -58.120
1579.7600, -58.141
1579.7800, -58.129
1579.8000, -58.163
1579.8200, -58.157
1579.8400, -58.161
1579.8600, -58.184
1579.8800, -58.182
1579.9000, -58.188
1579.9200, -58.204
1579.9400, -58.205
1579.9600, -58.219
1579.9800, -58.226
1580.0000, -58.217
1580.0200, -58.241
1580.0400, -58.237
1580.0600, -58.264
1580.0800, -58.267
1580.1000, -58.273
1580.1200, -58.275
1580.1400, -58.286
1580.1600, -58.316
1580.1800, -58.326
1580.2000, -58.325
1580.2200, -58.314
1580.2400, -58.333
1580.2600, -58.341
1580.2800, -58.360
1580.3000, -58.364
1580.3200, -58.370
1580.3400, -58.374
1580.3600, -58.389
1580.3800, -58.392
1580.4000, -58.401
1580.4200, -58.414
1580.4400, -58.416
1580.4600, -58.430
1580.4800, -58.448
1580.5000, -58.426
1580.5200, -58.459
1580.5400, -58.469
1580.5600, -58.460
1580.5800, -58.472
1580.6000, -58.492
1580.6200, -58.490
1580.6400, -58.498
1580.6600, -58.514
1580.6800, -58.524
1580.7000, -58.514
1580.7200, -58.541
1580.7400, -58.544
1580.7600, -58.545
1580.7800, -58.570
1580.8000, -58.559
1580.8200, -58.577
1580.8400, -58.580
1580.8600, -58.580
1580.8800, -58.598
1580.9000, -58.597
1580.9200, -58.613
1580.9400, -58.641
1580.9600, -58.618
1580.9800, -58.625
1581.0000, -58.630
1581.0200, -58.663
1581.0400, -58.665
1581.0600, -58.654
1581.0800, -58.676
1581.1000, -58.700
1581.1200, -58.691
1581.1400, -58.695
1581.1600, -58.695
1581.1800, -58.711
1581.2000, -58.728
1581.2200, -58.740
1581.2400, -58.727
1581.2600, -58.752
1581.2800, -58.758
1581.3000, -58.773
1581.3200, -58.777
1581.3400, -58.783
1581.3600, -58.792
1581.3800, -58.779
1581.4000, -58.782
1581.4200, -58.803
1581.4400, -58.815
1581.4600, -58.814
1581.4800, -58.833
1581.5000, -58.834
1581.5200, -58.836
1581.5400, -58.852
1581.5600, -58.857
1581.5800, -58.857
1581.6000, -58.868
1581.6200, -58.874
1581.6400, -58.920
1581.6600, -58.870
1581.6800, -58.919
1581.7000, -58.914
1581.7200, -58.921
1581.7400, -58.920
1581.7600, -58.930
1581.7800, -58.933
1581.8000, -58.945
1581.8200, -58.957
1581.8400, -58.950
1581.8600, -58.967
1581.8800, -58.962
1581.9000, -58.988
1581.9200, -58.990
1581.9400, -58.999
1581.9600, -59.000
1581.9800, -59.030
1582.0000, -59.024
1582.0200, -59.012
1582.0400, -59.044
1582.0600, -59.038
1582.0800, -59.060
1582.1000, -59.035
1582.1200, -59.079
1582.1400, -59.078
1582.1600, -59.088
1582.1800, -59.085
1582.2000, -59.090
1582.2200, -59.097
1582.2400, -59.094
1582.2600, -59.117
1582.2800, -59.121
1582.3000, -59.141
1582.3200, -59.140
1582.3400, -59.118
1582.3600, -59.144
1582.3800, -59.168
1582.4000, -59.152
1582.4200, -59.157
1582.4400, -59.168
1582.4600, -59.187
1582.4800, -59.174
1582.5000, -59.185
1582.5200, -59.206
1582.5400, -59.213
1582.5600, -59.213
1582.5800, -59.213
1582.6000, -59.230
1582.6200, -59.243
1582.6400, -59.238
1582.6600, -59.268
1582.6800, -59.246
1582.7000, -59.278
1582.7200, -59.270
1582.7400, -59.282
1582.7600, -59.300
1582.7800, -59.303
1582.8000, -59.307
1582.8200, -59.265
1582.8400, -59.319
1582.8600, -59.305
1582.8800, -59.320
1582.9000, -59.332
1582.9200, -59.346
1582.9400, -59.358
1582.9600, -59.352
1582.9800, -59.359
1583.0000, -59.366
1583.0200, -59.364
1583.0400, -59.359
1583.0600, -59.402
1583.0800, -59.380
1583.1000, -59.398
1583.1200, -59.425
1583.1400, -59.390
1583.1600, -59.444
1583.1800, -59.403
1583.2000, -59.437
1583.2200, -59.445
1583.2400, -59.429
1583.2600, -59.472
1583.2800, -59.455
1583.3000, -59.468
1583.3200, -59.480
1583.3400, -59.494
1583.3600, -59.457
1583.3800, -59.504
1583.4000, -59.510
1583.4200, -59.483
1583.4400, -59.527
1583.4600, -59.506
1583.4800, -59.521
1583.5000, -59.559
1583.5200, -59.523
1583.5400, -59.559
1583.5600, -59.529
1583.5800, -59.543
1583.6000, -59.574
1583.6200, -59.565
1583.6400, -59.562
1583.6600, -59.574
1583.6800, -59.594
1583.7000, -59.587
1583.7200, -59.583
1583.7400, -59.616
1583.7600, -59.626
1583.7800, -59.614
1583.8000, -59.627
1583.8200, -59.627
1583.8400, -59.634
1583.8600, -59.606
1583.8800, -59.663
1583.9000, -59.645
1583.9200, -59.681
1583.9400, -59.684
1583.9600, -59.694
1583.9800, -59.675
1584.0000, -59.660
1584.0200, -59.720
1584.0400, -59.679
1584.0600, -59.686
1584.0800, -59.729
1584.1000, -59.698
1584.1200, -59.702
1584.1400, -59.746
1584.1600, -59.711
1584.1800, -59.730
1584.2000, -59.744
1584.2200, -59.783
1584.2400, -59.742
1584.2600, -59.791
1584.2800, -59.728
1584.3000, -59.798
1584.3200, -59.738
1584.3400, -59.810
1584.3600, -59.770
1584.3800, -59.809
1584.4000, -59.769
1584.4200, -59.805
1584.4400, -59.831
1584.4600, -59.806
1584.4800, -59.799
1584.5000, -59.833
1584.5200, -59.833
1584.5400, -59.831
1584.5600, -59.860
1584.5800, -59.842
1584.6000, -59.855
1584.6200, -59.874
1584.6400, -59.867
1584.6600, -59.899
1584.6800, -59.892
1584.7000, -59.888
1584.7200, -59.860
1584.7400, -59.898
1584.7600, -59.888
1584.7800, -59.923
1584.8000, -59.945
1584.8200, -59.904
1584.8400, -59.917
1584.8600, -59.912
1584.8800, -59.928
1584.9000, -59.946
1584.9200, -59.966
1584.9400, -59.965
1584.9600, -59.949
1584.9800, -59.965
1585.0000, -59.963
1585.0200, -59.971
1585.0400, -59.983
1585.0600, -59.967
1585.0800, -60.003
1585.1000, -59.994
1585.1200, -60.007
1585.1400, -59.995
1585.1600, -60.023
1585.1800, -60.001
1585.2000, -60.039
1585.2200, -60.015
1585.2400, -60.019
1585.2600, -60.030
1585.2800, -60.019
1585.3000, -60.053
1585.3200, -60.075
1585.3400, -60.021
1585.3600, -60.076
1585.3800, -60.070
1585.4000, -60.091
1585.4200, -60.069
1585.4400, -60.061
1585.4600, -60.091
1585.4800, -60.094
1585.5000, -60.143
1585.5200, -60.086
1585.5400, -60.118
1585.5600, -60.102
1585.5800, -60.119
1585.6000, -60.150
1585.6200, -60.130
1585.6400, -60.128
1585.6600, -60.136
1585.6800, -60.172
1585.7000, -60.119
1585.7200, -60.151
1585.7400, -60.192
1585.7600, -60.181
1585.7800, -60.159
1585.8000, -60.184
1585.8200, -60.210
1585.8400, -60.153
1585.8600, -60.184
1585.8800, -60.198
1585.9000, -60.192
1585.9200, -60.238
1585.9400, -60.187
1585.9600, -60.218
1585.9800, -60.212
1586.0000, -60.221
1586.0200, -60.272
1586.0400, -60.226
1586.0600, -60.216
1586.0800, -60.280
1586.1000, -60.243
1586.1200, -60.240
1586.1400, -60.279
1586.1600, -60.258
1586.1800, -60.240
1586.2000, -60.290
1586.2200, -60.284
1586.2400, -60.300
1586.2600, -60.287
1586.2800, -60.336
1586.3000, -60.301
1586.3200, -60.312
1586.3400, -60.300
1586.3600, -60.310
1586.3800, -60.318
1586.4000, -60.332
1586.4200, -60.332
1586.4400, -60.324
1586.4600, -60.354
1586.4800, -60.357
1586.5000, -60.334
1586.5200, -60.333
1586.5400, -60.389
1586.5600, -60.398
1586.5800, -60.398
1586.6000, -60.376
1586.6200, -60.339
1586.6400, -60.394
1586.6600, -60.386
1586.6800, -60.389
1586.7000, -60.454
1586.7200, -60.417
1586.7400, -60.384
1586.7600, -60.475
1586.7800, -60.425
1586.8000, -60.388
1586.8200, -60.445
1586.8400, -60.439
1586.8600, -60.443
1586.8800, -60.462
1586.9000, -60.482
1586.9200, -60.480
1586.9400, -60.466
1586.9600, -60.482
1586.9800, -60.494
1587.0000, -60.482
1587.0200, -60.501
1587.0400, -60.478
1587.0600, -60.499
1587.0800, -60.481
1587.1000, -60.525
1587.1200, -60.508
1587.1400, -60.541
1587.1600, -60.510
1587.1800, -60.520
1587.2000, -60.520
1587.2200, -60.536
1587.2400, -60.557
1587.2600, -60.581
1587.2800, -60.531
1587.3000, -60.550
1587.3200, -60.599
1587.3400, -60.560
1587.3600, -60.582
1587.3800, -60.567
1587.4000, -60.594
1587.4200, -60.596
1587.4400, -60.597
1587.4600, -60.626
1587.4800, -60.598
1587.5000, -60.618
1587.5200, -60.607
1587.5400, -60.617
1587.5600, -60.605
1587.5800, -60.620
1587.6000, -60.621
1587.6200, -60.640
1587.6400, -60.646
1587.6600, -60.622
1587.6800, -60.702
1587.7000, -60.624
1587.7200, -60.640
1587.7400, -60.671
1587.7600, -60.672
1587.7800, -60.655
1587.8000, -60.708
1587.8200, -60.662
1587.8400, -60.726
1587.8600, -60.724
1587.8800, -60.710
1587.9000, -60.727
1587.9200, -60.723
1587.9400, -60.710
1587.9600, -60.716
1587.9800, -60.722
1588.0000, -60.736
1588.0200, -60.717
1588.0400, -60.741
1588.0600, -60.747
1588.0800, -60.757
1588.1000, -60.750
1588.1200, -60.758
1588.1400, -60.781
1588.1600, -60.746
1588.1800, -60.781
1588.2000, -60.736
1588.2200, -60.788
1588.2400, -60.799
1588.2600, -60.779
1588.2800, -60.797
1588.3000, -60.799
1588.3200, -60.807
1588.3400, -60.806
1588.3600, -60.821
1588.3800, -60.852
1588.4000, -60.800
1588.4200, -60.833
1588.4400, -60.812
1588.4600, -60.856
1588.4800, -60.830
1588.5000, -60.842
1588.5200, -60.848
1588.5400, -60.869
1588.5600, -60.844
1588.5800, -60.853
1588.6000, -60.834
1588.6200, -60.881
1588.6400, -60.889
1588.6600, -60.873
1588.6800, -60.856
1588.7000, -60.941
1588.7200, -60.885
1588.7400, -60.880
1588.7600, -60.923
1588.7800, -60.876
1588.8000, -60.903
1588.8200, -60.947
1588.8400, -60.931
1588.8600, -60.911
1588.8800, -60.931
1588.9000, -60.942
1588.9200, -60.925
1588.9400, -60.940
1588.9600, -60.932
1588.9800, -60.958
1589.0000, -60.945
1589.0200, -60.935
1589.0400, -60.985
1589.0600, -60.947
1589.0800, -61.009
1589.1000, -60.973
1589.1200, -60.995
1589.1400, -60.942
1589.1600, -60.983
1589.1800, -60.993
1589.2000, -61.027
1589.2200, -61.003
1589.2400, -60.997
1589.2600, -61.025
1589.2800, -61.008
1589.3000, -61.035
1589.3200, -61.025
1589.3400, -60.986
1589.3600, -61.070
1589.3800, -61.054
1589.4000, -61.023
1589.4200, -61.033
1589.4400, -61.034
1589.4600, -61.077
1589.4800, -61.043
1589.5000, -61.095
1589.5200, -61.066
1589.5400, -61.067
1589.5600, -61.072
1589.5800, -61.066
1589.6000, -61.095
1589.6200, -61.112
1589.6400, -61.085
1589.6600, -61.103
1589.6800, -61.103
1589.7000, -61.108
1589.7200, -61.089
1589.7400, -61.111
1589.7600, -61.113
1589.7800, -61.125
1589.8000, -61.118
1589.8200, -61.100
1589.8400, -61.154
1589.8600, -61.160
1589.8800, -61.156
1589.9000, -61.118
1589.9200, -61.181
1589.9400, -61.162
1589.9600, -61.166
1589.9800, -61.169
1590.0000, -61.166
1590.0200, -61.201
1590.0400, -61.178
1590.0600, -61.173
1590.0800, -61.173
1590.1000, -61.197
1590.1200, -61.175
1590.1400, -61.200
1590.1600, -61.216
1590.1800, -61.205
1590.2000, -61.178
1590.2200, -61.219
1590.2400, -61.245
1590.2600, -61.195
1590.2800, -61.216
1590.3000, -61.234
1590.3200, -61.228
1590.3400, -61.265
1590.3600, -61.235
1590.3800, -61.254
1590.4000, -61.261
1590.4200, -61.262
1590.4400, -61.269
1590.4600, -61.246
1590.4800, -61.301
1590.5000, -61.280
1590.5200, -61.284
1590.5400, -61.292
1590.5600, -61.305
1590.5800, -61.273
1590.6000, -61.316
1590.6200, -61.315
1590.6400, -61.291
1590.6600, -61.350
1590.6800, -61.316
1590.7000, -61.341
1590.7200, -61.336
1590.7400, -61.337
1590.7600, -61.351
1590.7800, -61.328
1590.8000, -61.358
1590.8200, -61.356
1590.8400, -61.339
1590.8600, -61.359
1590.8800, -61.382
1590.9000, -61.350
1590.9200, -61.357
1590.9400, -61.372
1590.9600, -61.397
1590.9800, -61.367
1591.0000, -61.409
1591.0200, -61.381
1591.0400, -61.401
1591.0600, -61.387
1591.0800, -61.417
1591.1000, -61.418
1591.1200, -61.421
1591.1400, -61.416
1591.1600, -61.427
1591.1800, -61.452
1591.2000, -61.418
1591.2200, -61.452
1591.2400, -61.447
1591.2600, -61.456
1591.2800, -61.456
1591.3000, -61.467
1591.3200, -61.446
1591.3400, -61.462
1591.3600, -61.486
1591.3800, -61.486
1591.4000, -61.459
1591.4200, -61.512
1591.4400, -61.505
1591.4600, -61.458
1591.4800, -61.488
1591.5000, -61.549
1591.5200, -61.488
1591.5400, -61.525
1591.5600, -61.483
1591.5800, -61.519
1591.6000, -61.552
1591.6200, -61.532
1591.6400, -61.561
1591.6600, -61.540
1591.6800, -61.564
1591.7000, -61.550
1591.7200, -61.577
1591.7400, -61.536
1591.7600, -61.568
1591.7800, -61.589
1591.8000, -61.561
1591.8200, -61.614
1591.8400, -61.537
1591.8600, -61.625
1591.8800, -61.566
1591.9000, -61.581
1591.9200, -61.628
1591.9400, -61.600
1591.9600, -61.596
1591.9800, -61.603
1592.0000, -61.623
1592.0200, -61.659
1592.0400, -61.610
1592.0600, -61.630
1592.0800, -61.647
1592.1000, -61.629
1592.1200, -61.653
1592.1400, -61.628
1592.1600, -61.680
1592.1800, -61.660
1592.2000, -61.675
1592.2200, -61.688
1592.2400, -61.680
1592.2600, -61.688
1592.2800, -61.663
1592.3000, -61.691
1592.3200, -61.693
1592.3400, -61.684
1592.3600, -61.670
1592.3800, -61.682
1592.4000, -61.710
1592.4200, -61.695
1592.4400, -61.727
1592.4600, -61.695
1592.4800, -61.705
1592.5000, -61.754
1592.5200, -61.702
1592.5400, -61.737
1592.5600, -61.736
1592.5800, -61.751
1592.6000, -61.767
1592.6200, -61.745
1592.6400, -61.756
1592.6600, -61.740
1592.6800, -61.764
1592.7000, -61.790
1592.7200, -61.766
1592.7400, -61.793
1592.7600, -61.764
1592.7800, -61.794
1592.8000, -61.785
1592.8200, -61.798
1592.8400, -61.805
1592.8600, -61.814
1592.8800, -61.775
1592.9000, -61.795
1592.9200, -61.793
1592.9400, -61.813
1592.9600, -61.811
1592.9800, -61.836
1593.0000, -61.775
1593.0200, -61.866
1593.0400, -61.823
1593.0600, -61.821
1593.0800, -61.836
1593.1000, -61.852
1593.1200, -61.830
1593.1400, -61.839
1593.1600, -61.859
1593.1800, -61.846
1593.2000, -61.872
1593.2200, -61.903
1593.2400, -61.867
1593.2600, -61.875
1593.2800, -61.897
1593.3000, -61.818
1593.3200, -61.939
1593.3400, -61.844
1593.3600, -61.931
1593.3800, -61.869
1593.4000, -61.935
1593.4200, -61.909
1593.4400, -61.904
1593.4600, -61.921
1593.4800, -61.947
1593.5000, -61.891
1593.5200, -61.925
1593.5400, -61.934
1593.5600, -61.964
1593.5800, -61.966
1593.6000, -61.962
1593.6200, -61.922
1593.6400, -61.978
1593.6600, -61.925
1593.6800, -61.995
1593.7000, -61.925
1593.7200, -61.998
1593.7400, -61.992
1593.7600, -61.969
1593.7800, -61.994
1593.8000, -61.950
1593.8200, -62.001
1593.8400, -62.029
1593.8600, -61.949
1593.8800, -62.037
1593.9000, -61.987
1593.9200, -62.016
1593.9400, -61.999
1593.9600, -62.072
1593.9800, -61.981
1594.0000, -62.066
1594.0200, -62.028
1594.0400, -62.044
1594.0600, -62.029
1594.0800, -62.041
1594.1000, -62.046
1594.1200, -62.080
1594.1400, -61.999
1594.1600, -62.068
1594.1800, -62.093
1594.2000, -62.069
1594.2200, -62.076
1594.2400, -62.089
1594.2600, -62.112
1594.2800, -62.094
1594.3000, -62.037
1594.3200, -62.139
1594.3400, -62.109
1594.3600, -62.107
1594.3800, -62.106
1594.4000, -62.094
1594.4200, -62.131
1594.4400, -62.102
1594.4600, -62.136
1594.4800, -62.125
1594.5000, -62.094
1594.5200, -62.145
1594.5400, -62.150
1594.5600, -62.144
1594.5800, -62.150
1594.6000, -62.175
1594.6200, -62.169
1594.6400, -62.136
1594.6600, -62.205
1594.6800, -62.136
1594.7000, -62.203
1594.7200, -62.218
1594.7400, -62.152
1594.7600, -62.228
1594.7800, -62.185
1594.8000, -62.168
1594.8200, -62.205
1594.8400, -62.264
1594.8600, -62.207
1594.8800, -62.191
1594.9000, -62.185
1594.9200, -62.236
1594.9400, -62.203
1594.9600, -62.207
1594.9800, -62.231
1595.0000, -62.241
1595.0200, -62.298
1595.0400, -62.216
1595.0600, -62.257
1595.0800, -62.222
1595.1000, -62.275
1595.1200, -62.298
1595.1400, -62.267
1595.1600, -62.288
1595.1800, -62.241
1595.2000, -62.288
1595.2200, -62.334
1595.2400, -62.310
1595.2600, -62.293
1595.2800, -62.267
1595.3000, -62.256
1595.3200, -62.287
1595.3400, -62.345
1595.3600, -62.303
1595.3800, -62.335
1595.4000, -62.288
1595.4200, -62.370
1595.4400, -62.324
1595.4600, -62.340
1595.4800, -62.360
1595.5000, -62.335
1595.5200, -62.385
1595.5400, -62.270
1595.5600, -62.398
1595.5800, -62.347
1595.6000, -62.357
1595.6200, -62.334
1595.6400, -62.401
1595.6600, -62.345
1595.6800, -62.394
1595.7000, -62.393
1595.7200, -62.455
1595.7400, -62.367
1595.7600, -62.413
1595.7800, -62.405
1595.8000, -62.441
1595.8200, -62.394
1595.8400, -62.398
1595.8600, -62.433
1595.8800, -62.437
1595.9000, -62.447
1595.9200, -62.462
1595.9400, -62.416
1595.9600, -62.419
1595.9800, -62.447
1596.0000, -62.457
1596.0200, -62.480
1596.0400, -62.439
1596.0600, -62.467
1596.0800, -62.466
1596.1000, -62.456
1596.1200, -62.484
1596.1400, -62.523
1596.1600, -62.482
1596.1800, -62.484
1596.2000, -62.484
1596.2200, -62.462
1596.2400, -62.513
1596.2600, -62.451
1596.2800, -62.513
1596.3000, -62.503
1596.3200, -62.499
1596.3400, -62.614
1596.3600, -62.522
1596.3800, -62.496
1596.4000, -62.569
1596.4200, -62.520
1596.4400, -62.486
1596.4600, -62.545
1596.4800, -62.567
1596.5000, -62.522
1596.5200, -62.563
1596.5400, -62.527
1596.5600, -62.577
1596.5800, -62.542
1596.6000, -62.563
1596.6200, -62.605
1596.6400, -62.557
1596.6600, -62.605
1596.6800, -62.550
1596.7000, -62.604
1596.7200, -62.577
1596.7400, -62.614
1596.7600, -62.615
1596.7800, -62.589
1596.8000, -62.623
1596.8200, -62.644
1596.8400, -62.607
1596.8600, -62.595
1596.8800, -62.643
1596.9000, -62.622
1596.9200, -62.649
1596.9400, -62.621
1596.9600, -62.621
1596.9800, -62.681
1597.0000, -62.651
1597.0200, -62.599
1597.0400, -62.715
1597.0600, -62.613
1597.0800, -62.685
1597.1000, -62.663
1597.1200, -62.679
1597.1400, -62.613
1597.1600, -62.706
1597.1800, -62.684
1597.2000, -62.690
1597.2200, -62.681
1597.2400, -62.717
1597.2600, -62.713
1597.2800, -62.688
1597.3000, -62.722
1597.3200, -62.717
1597.3400, -62.730
1597.3600, -62.687
1597.3800, -62.716
1597.4000, -62.735
1597.4200, -62.750
1597.4400, -62.766
1597.4600, -62.765
1597.4800, -62.730
1597.5000, -62.723
1597.5200, -62.747
1597.5400, -62.769
1597.5600, -62.759
1597.5800, -62.744
1597.6000, -62.786
1597.6200, -62.762
1597.6400, -62.785
1597.6600, -62.761
1597.6800, -62.765
1597.7000, -62.794
1597.7200, -62.816
1597.7400, -62.778
1597.7600, -62.749
1597.7800, -62.797
1597.8000, -62.831
1597.8200, -62.835
1597.8400, -62.782
1597.8600, -62.821
1597.8800, -62.796
1597.9000, -62.812
1597.9200, -62.826
1597.9400, -62.818
1597.9600, -62.874
1597.9800, -62.816
1598.0000, -62.860
1598.0200, -62.836
1598.0400, -62.868
1598.0600, -62.852
1598.0800, -62.873
1598.1000, -62.887
1598.1200, -62.862
1598.1400, -62.892
1598.1600, -62.829
1598.1800, -62.908
1598.2000, -62.861
1598.2200, -62.897
1598.2400, -62.894
1598.2600, -62.900
1598.2800, -62.886
1598.3000, -62.934
1598.3200, -62.929
1598.3400, -62.875
1598.3600, -62.907
1598.3800, -62.904
1598.4000, -62.972
1598.4200, -62.912
1598.4400, -62.912
1598.4600, -62.939
1598.4800, -62.938
1598.5000, -62.955
1598.5200, -62.948
1598.5400, -62.932
1598.5600, -62.947
1598.5800, -62.960
1598.6000, -62.989
1598.6200, -62.968
1598.6400, -62.999
1598.6600, -62.959
1598.6800, -63.014
1598.7000, -62.982
1598.7200, -62.974
1598.7400, -63.083
1598.7600, -62.975
1598.7800, -63.056
1598.8000, -62.987
1598.8200, -63.029
1598.8400, -63.018
1598.8600, -62.987
1598.8800, -63.042
1598.9000, -62.994
1598.9200, -63.043
1598.9400, -63.020
1598.9600, -63.042
1598.9800, -63.044
1599.0000, -63.006
1599.0200, -63.096
1599.0400, -63.049
1599.0600, -63.124
1599.0800, -63.039
1599.1000, -63.111
1599.1200, -63.060
1599.1400, -63.050
1599.1600, -63.113
1599.1800, -63.058
1599.2000, -63.118
1599.2200, -63.123
1599.2400, -63.113
1599.2600, -63.117
1599.2800, -63.085
1599.3000, -63.196
1599.3200, -63.052
1599.3400, -63.136
1599.3600, -63.127
1599.3800, -63.156
1599.4000, -63.146
1599.4200, -63.121
1599.4400, -63.140
1599.4600, -63.194
1599.4800, -63.145
1599.5000, -63.216
1599.5200, -63.108
1599.5400, -63.215
1599.5600, -63.146
1599.5800, -63.205
1599.6000, -63.151
1599.6200, -63.171
1599.6400, -63.197
1599.6600, -63.189
1599.6800, -63.213
1599.7000, -63.225
1599.7200, -63.211
1599.7400, -63.167
1599.7600, -63.198
1599.7800, -63.250
1599.8000, -63.141
1599.8200, -63.234
1599.8400, -63.257
1599.8600, -63.239
1599.8800, -63.258
1599.9000, -63.267
1599.9200, -63.227
1599.9400, -63.300
1599.9600, -63.275
1599.9800, -63.280
1600.0000, -63.224
