70BCSV 	
// AQ6370B OPTICAL SPECTRUM ANALYZER //                 
25
"CTRWL",1550.000000
"SPAN", 100.000000
"START WL",1500.000000
"STOP WL",1600.000000
"WLFREQ", 0
"REFL",-28.8
"LSCL", 5.0
"RESLN",0.100
"AVG",   1
"SMPLAUTO",      0
"SMPL",       5001
"SMPLINTVL",0.0200
"HIGH1"
"MEAS"
"LSUNT",0
"NMSKH","OFF"
"RESCOR",0
"RESPARM", 9050
"FREQPARM", 9050






"[TRACE DATA]"
1500.0000, -61.901
1500.0200, -61.859
1500.0400, -61.858
1500.0600, -61.874
1500.0800, -61.860
1500.1000, -61.897
1500.1200, -61.866
1500.1400, -61.835
1500.1600, -61.794
1500.1800, -61.817
1500.2000, -61.830
1500.2200, -61.850
1500.2400, -61.801
1500.2600, -61.839
1500.2800, -61.779
1500.3000, -61.862
1500.3200, -61.807
1500.3400, -61.753
1500.3600, -61.810
1500.3800, -61.814
1500.4000, -61.761
1500.4200, -61.807
1500.4400, -61.740
1500.4600, -61.743
1500.4800, -61.750
1500.5000, -61.756
1500.5200, -61.747
1500.5400, -61.766
1500.5600, -61.725
1500.5800, -61.740
1500.6000, -61.729
1500.6200, -61.694
1500.6400, -61.746
1500.6600, -61.732
1500.6800, -61.685
1500.7000, -61.685
1500.7200, -61.726
1500.7400, -61.709
1500.7600, -61.666
1500.7800, -61.664
1500.8000, -61.666
1500.8200, -61.697
1500.8400, -61.643
1500.8600, -61.651
1500.8800, -61.661
1500.9000, -61.617
1500.9200, -61.611
1500.9400, -61.626
1500.9600, -61.648
1500.9800, -61.603
1501.0000, -61.607
1501.0200, -61.559
1501.0400, -61.636
1501.0600, -61.576
1501.0800, -61.602
1501.1000, -61.542
1501.1200, -61.595
1501.1400, -61.577
1501.1600, -61.555
1501.1800, -61.570
1501.2000, -61.532
1501.2200, -61.553
1501.2400, -61.554
1501.2600, -61.528
1501.2800, -61.555
1501.3000, -61.522
1501.3200, -61.512
1501.3400, -61.516
1501.3600, -61.488
1501.3800, -61.469
1501.4000, -61.502
1501.4200, -61.512
1501.4400, -61.484
1501.4600, -61.473
1501.4800, -61.475
1501.5000, -61.430
1501.5200, -61.469
1501.5400, -61.467
1501.5600, -61.434
1501.5800, -61.435
1501.6000, -61.454
1501.6200, -61.437
1501.6400, -61.439
1501.6600, -61.424
1501.6800, -61.414
1501.7000, -61.395
1501.7200, -61.414
1501.7400, -61.414
1501.7600, -61.429
1501.7800, -61.372
1501.8000, -61.403
1501.8200, -61.371
1501.8400, -61.365
1501.8600, -61.362
1501.8800, -61.374
1501.9000, -61.362
1501.9200, -61.358
1501.9400, -61.336
1501.9600, -61.315
1501.9800, -61.361
1502.0000, -61.286
1502.0200, -61.317
1502.0400, -61.316
1502.0600, -61.309
1502.0800, -61.283
1502.1000, -61.281
1502.1200, -61.292
1502.1400, -61.283
1502.1600, -61.302
1502.1800, -61.265
1502.2000, -61.233
1502.2200, -61.239
1502.2400, -61.256
1502.2600, -61.237
1502.2800, -61.232
1502.3000, -61.220
1502.3200, -61.247
1502.3400, -61.226
1502.3600, -61.199
1502.3800, -61.171
1502.4000, -61.187
1502.4200, -61.200
1502.4400, -61.182
1502.4600, -61.176
1502.4800, -61.181
1502.5000, -61.152
1502.5200, -61.158
1502.5400, -61.154
1502.5600, -61.139
1502.5800, -61.135
1502.6000, -61.115
1502.6200, -61.117
1502.6400, -61.120
1502.6600, -61.113
1502.6800, -61.113
1502.7000, -61.098
1502.7200, -61.099
1502.7400, -61.127
1502.7600, -61.094
1502.7800, -61.081
1502.8000, -61.088
1502.8200, -61.065
1502.8400, -61.062
1502.8600, -61.035
1502.8800, -61.040
1502.9000, -61.031
1502.9200, -61.050
1502.9400, -61.001
1502.9600, -60.994
1502.9800, -61.023
1503.0000, -61.016
1503.0200, -60.999
1503.0400, -60.977
1503.0600, -60.960
1503.0800, -60.962
1503.1000, -60.950
1503.1200, -60.972
1503.1400, -60.962
1503.1600, -60.957
1503.1800, -60.955
1503.2000, -60.945
1503.2200, -60.927
1503.2400, -60.893
1503.2600, -60.906
1503.2800, -60.917
1503.3000, -60.925
1503.3200, -60.906
1503.3400, -60.911
1503.3600, -60.881
1503.3800, -60.881
1503.4000, -60.890
1503.4200, -60.834
1503.4400, -60.851
1503.4600, -60.872
1503.4800, -60.834
1503.5000, -60.855
1503.5200, -60.819
1503.5400, -60.843
1503.5600, -60.789
1503.5800, -60.820
1503.6000, -60.828
1503.6200, -60.783
1503.6400, -60.765
1503.6600, -60.781
1503.6800, -60.755
1503.7000, -60.759
1503.7200, -60.778
1503.7400, -60.733
1503.7600, -60.775
1503.7800, -60.717
1503.8000, -60.738
1503.8200, -60.695
1503.8400, -60.721
1503.8600, -60.730
1503.8800, -60.718
1503.9000, -60.715
1503.9200, -60.705
1503.9400, -60.681
1503.9600, -60.640
1503.9800, -60.693
1504.0000, -60.674
1504.0200, -60.659
1504.0400, -60.649
1504.0600, -60.648
1504.0800, -60.651
1504.1000, -60.611
1504.1200, -60.622
1504.1400, -60.590
1504.1600, -60.598
1504.1800, -60.617
1504.2000, -60.555
1504.2200, -60.566
1504.2400, -60.587
1504.2600, -60.573
1504.2800, -60.559
1504.3000, -60.550
1504.3200, -60.561
1504.3400, -60.535
1504.3600, -60.552
1504.3800, -60.524
1504.4000, -60.551
1504.4200, -60.530
1504.4400, -60.495
1504.4600, -60.503
1504.4800, -60.471
1504.5000, -60.482
1504.5200, -60.473
1504.5400, -60.481
1504.5600, -60.448
1504.5800, -60.469
1504.6000, -60.431
1504.6200, -60.442
1504.6400, -60.431
1504.6600, -60.425
1504.6800, -60.439
1504.7000, -60.393
1504.7200, -60.406
1504.7400, -60.411
1504.7600, -60.379
1504.7800, -60.373
1504.8000, -60.377
1504.8200, -60.363
1504.8400, -60.355
1504.8600, -60.342
1504.8800, -60.349
1504.9000, -60.355
1504.9200, -60.330
1504.9400, -60.315
1504.9600, -60.292
1504.9800, -60.298
1505.0000, -60.278
1505.0200, -60.294
1505.0400, -60.292
1505.0600, -60.297
1505.0800, -60.258
1505.1000, -60.252
1505.1200, -60.246
1505.1400, -60.239
1505.1600, -60.235
1505.1800, -60.229
1505.2000, -60.226
1505.2200, -60.182
1505.2400, -60.224
1505.2600, -60.193
1505.2800, -60.183
1505.3000, -60.179
1505.3200, -60.179
1505.3400, -60.189
1505.3600, -60.139
1505.3800, -60.152
1505.4000, -60.162
1505.4200, -60.137
1505.4400, -60.115
1505.4600, -60.115
1505.4800, -60.124
1505.5000, -60.112
1505.5200, -60.085
1505.5400, -60.099
1505.5600, -60.074
1505.5800, -60.055
1505.6000, -60.074
1505.6200, -60.064
1505.6400, -60.044
1505.6600, -60.046
1505.6800, -60.033
1505.7000, -60.018
1505.7200, -60.027
1505.7400, -60.003
1505.7600, -60.009
1505.7800, -59.991
1505.8000, -59.992
1505.8200, -59.991
1505.8400, -59.981
1505.8600, -59.951
1505.8800, -59.969
1505.9000, -59.961
1505.9200, -59.939
1505.9400, -59.927
1505.9600, -59.926
1505.9800, -59.927
1506.0000, -59.902
1506.0200, -59.895
1506.0400, -59.904
1506.0600, -59.884
1506.0800, -59.894
1506.1000, -59.881
1506.1200, -59.869
1506.1400, -59.853
1506.1600, -59.843
1506.1800, -59.845
1506.2000, -59.825
1506.2200, -59.819
1506.2400, -59.812
1506.2600, -59.818
1506.2800, -59.790
1506.3000, -59.795
1506.3200, -59.803
1506.3400, -59.773
1506.3600, -59.753
1506.3800, -59.791
1506.4000, -59.752
1506.4200, -59.758
1506.4400, -59.732
1506.4600, -59.727
1506.4800, -59.700
1506.5000, -59.713
1506.5200, -59.700
1506.5400, -59.692
1506.5600, -59.679
1506.5800, -59.691
1506.6000, -59.674
1506.6200, -59.665
1506.6400, -59.664
1506.6600, -59.660
1506.6800, -59.655
1506.7000, -59.621
1506.7200, -59.625
1506.7400, -59.614
1506.7600, -59.601
1506.7800, -59.597
1506.8000, -59.590
1506.8200, -59.576
1506.8400, -59.593
1506.8600, -59.555
1506.8800, -59.571
1506.9000, -59.563
1506.9200, -59.556
1506.9400, -59.552
1506.9600, -59.520
1506.9800, -59.521
1507.0000, -59.498
1507.0200, -59.512
1507.0400, -59.493
1507.0600, -59.499
1507.0800, -59.478
1507.1000, -59.494
1507.1200, -59.466
1507.1400, -59.468
1507.1600, -59.449
1507.1800, -59.434
1507.2000, -59.441
1507.2200, -59.440
1507.2400, -59.432
1507.2600, -59.430
1507.2800, -59.418
1507.3000, -59.403
1507.3200, -59.380
1507.3400, -59.382
1507.3600, -59.367
1507.3800, -59.364
1507.4000, -59.361
1507.4200, -59.326
1507.4400, -59.337
1507.4600, -59.328
1507.4800, -59.332
1507.5000, -59.293
1507.5200, -59.308
1507.5400, -59.295
1507.5600, -59.285
1507.5800, -59.283
1507.6000, -59.275
1507.6200, -59.277
1507.6400, -59.241
1507.6600, -59.245
1507.6800, -59.243
1507.7000, -59.228
1507.7200, -59.218
1507.7400, -59.212
1507.7600, -59.215
1507.7800, -59.184
1507.8000, -59.182
1507.8200, -59.177
1507.8400, -59.173
1507.8600, -59.159
1507.8800, -59.152
1507.9000, -59.159
1507.9200, -59.123
1507.9400, -59.129
1507.9600, -59.110
1507.9800, -59.117
1508.0000, -59.081
1508.0200, -59.115
1508.0400, -59.079
1508.0600, -59.085
1508.0800, -59.070
1508.1000, -59.069
1508.1200, -59.045
1508.1400, -59.054
1508.1600, -59.038
1508.1800, -59.039
1508.2000, -59.016
1508.2200, -59.007
1508.2400, -59.022
1508.2600, -59.005
1508.2800, -59.010
1508.3000, -58.983
1508.3200, -58.979
1508.3400, -58.963
1508.3600, -58.972
1508.3800, -58.936
1508.4000, -58.928
1508.4200, -58.936
1508.4400, -58.914
1508.4600, -58.922
1508.4800, -58.892
1508.5000, -58.904
1508.5200, -58.895
1508.5400, -58.875
1508.5600, -58.888
1508.5800, -58.881
1508.6000, -58.856
1508.6200, -58.831
1508.6400, -58.839
1508.6600, -58.832
1508.6800, -58.832
1508.7000, -58.814
1508.7200, -58.816
1508.7400, -58.804
1508.7600, -58.787
1508.7800, -58.780
1508.8000, -58.795
1508.8200, -58.763
1508.8400, -58.782
1508.8600, -58.752
1508.8800, -58.732
1508.9000, -58.733
1508.9200, -58.726
1508.9400, -58.715
1508.9600, -58.703
1508.9800, -58.685
1509.0000, -58.699
1509.0200, -58.677
1509.0400, -58.673
1509.0600, -58.677
1509.0800, -58.640
1509.1000, -58.661
1509.1200, -58.655
1509.1400, -58.635
1509.1600, -58.612
1509.1800, -58.611
1509.2000, -58.599
1509.2200, -58.590
1509.2400, -58.580
1509.2600, -58.580
1509.2800, -58.560
1509.3000, -58.557
1509.3200, -58.529
1509.3400, -58.542
1509.3600, -58.502
1509.3800, -58.515
1509.4000, -58.498
1509.4200, -58.484
1509.4400, -58.481
1509.4600, -58.483
1509.4800, -58.481
1509.5000, -58.463
1509.5200, -58.452
1509.5400, -58.444
1509.5600, -58.417
1509.5800, -58.413
1509.6000, -58.416
1509.6200, -58.420
1509.6400, -58.388
1509.6600, -58.405
1509.6800, -58.367
1509.7000, -58.368
1509.7200, -58.370
1509.7400, -58.336
1509.7600, -58.350
1509.7800, -58.343
1509.8000, -58.327
1509.8200, -58.329
1509.8400, -58.307
1509.8600, -58.305
1509.8800, -58.277
1509.9000, -58.268
1509.9200, -58.283
1509.9400, -58.275
1509.9600, -58.260
1509.9800, -58.235
1510.0000, -58.258
1510.0200, -58.225
1510.0400, -58.207
1510.0600, -58.215
1510.0800, -58.193
1510.1000, -58.188
1510.1200, -58.168
1510.1400, -58.156
1510.1600, -58.178
1510.1800, -58.147
1510.2000, -58.138
1510.2200, -58.137
1510.2400, -58.129
1510.2600, -58.102
1510.2800, -58.077
1510.3000, -58.076
1510.3200, -58.075
1510.3400, -58.048
1510.3600, -58.036
1510.3800, -58.031
1510.4000, -58.033
1510.4200, -58.031
1510.4400, -58.018
1510.4600, -58.011
1510.4800, -57.972
1510.5000, -57.977
1510.5200, -57.961
1510.5400, -57.954
1510.5600, -57.947
1510.5800, -57.922
1510.6000, -57.925
1510.6200, -57.925
1510.6400, -57.906
1510.6600, -57.893
1510.6800, -57.883
1510.7000, -57.868
1510.7200, -57.856
1510.7400, -57.854
1510.7600, -57.837
1510.7800, -57.836
1510.8000, -57.820
1510.8200, -57.805
1510.8400, -57.801
1510.8600, -57.786
1510.8800, -57.781
1510.9000, -57.768
1510.9200, -57.753
1510.9400, -57.745
1510.9600, -57.745
1510.9800, -57.717
1511.0000, -57.714
1511.0200, -57.711
1511.0400, -57.699
1511.0600, -57.681
1511.0800, -57.667
1511.1000, -57.668
1511.1200, -57.643
1511.1400, -57.634
1511.1600, -57.642
1511.1800, -57.622
1511.2000, -57.603
1511.2200, -57.575
1511.2400, -57.593
1511.2600, -57.555
1511.2800, -57.563
1511.3000, -57.544
1511.3200, -57.536
1511.3400, -57.513
1511.3600, -57.528
1511.3800, -57.502
1511.4000, -57.492
1511.4200, -57.497
1511.4400, -57.457
1511.4600, -57.446
1511.4800, -57.448
1511.5000, -57.427
1511.5200, -57.423
1511.5400, -57.397
1511.5600, -57.396
1511.5800, -57.391
1511.6000, -57.361
1511.6200, -57.372
1511.6400, -57.351
1511.6600, -57.351
1511.6800, -57.318
1511.7000, -57.328
1511.7200, -57.315
1511.7400, -57.306
1511.7600, -57.285
1511.7800, -57.275
1511.8000, -57.257
1511.8200, -57.250
1511.8400, -57.247
1511.8600, -57.228
1511.8800, -57.216
1511.9000, -57.198
1511.9200, -57.193
1511.9400, -57.184
1511.9600, -57.179
1511.9800, -57.160
1512.0000, -57.155
1512.0200, -57.135
1512.0400, -57.114
1512.0600, -57.123
1512.0800, -57.109
1512.1000, -57.100
1512.1200, -57.089
1512.1400, -57.074
1512.1600, -57.059
1512.1800, -57.048
1512.2000, -57.032
1512.2200, -57.022
1512.2400, -57.021
1512.2600, -57.008
1512.2800, -56.980
1512.3000, -56.981
1512.3200, -56.978
1512.3400, -56.952
1512.3600, -56.950
1512.3800, -56.946
1512.4000, -56.941
1512.4200, -56.909
1512.4400, -56.907
1512.4600, -56.890
1512.4800, -56.878
1512.5000, -56.863
1512.5200, -56.858
1512.5400, -56.839
1512.5600, -56.826
1512.5800, -56.814
1512.6000, -56.810
1512.6200, -56.796
1512.6400, -56.781
1512.6600, -56.785
1512.6800, -56.765
1512.7000, -56.752
1512.7200, -56.733
1512.7400, -56.727
1512.7600, -56.718
1512.7800, -56.717
1512.8000, -56.686
1512.8200, -56.681
1512.8400, -56.671
1512.8600, -56.660
1512.8800, -56.650
1512.9000, -56.631
1512.9200, -56.634
1512.9400, -56.621
1512.9600, -56.605
1512.9800, -56.599
1513.0000, -56.586
1513.0200, -56.570
1513.0400, -56.548
1513.0600, -56.546
1513.0800, -56.529
1513.1000, -56.520
1513.1200, -56.500
1513.1400, -56.493
1513.1600, -56.485
1513.1800, -56.474
1513.2000, -56.461
1513.2200, -56.446
1513.2400, -56.427
1513.2600, -56.436
1513.2800, -56.417
1513.3000, -56.395
1513.3200, -56.382
1513.3400, -56.379
1513.3600, -56.349
1513.3800, -56.348
1513.4000, -56.331
1513.4200, -56.320
1513.4400, -56.310
1513.4600, -56.295
1513.4800, -56.290
1513.5000, -56.263
1513.5200, -56.263
1513.5400, -56.248
1513.5600, -56.235
1513.5800, -56.219
1513.6000, -56.220
1513.6200, -56.201
1513.6400, -56.188
1513.6600, -56.169
1513.6800, -56.161
1513.7000, -56.149
1513.7200, -56.139
1513.7400, -56.129
1513.7600, -56.116
1513.7800, -56.101
1513.8000, -56.102
1513.8200, -56.077
1513.8400, -56.063
1513.8600, -56.039
1513.8800, -56.048
1513.9000, -56.017
1513.9200, -56.018
1513.9400, -55.998
1513.9600, -55.999
1513.9800, -55.979
1514.0000, -55.974
1514.0200, -55.957
1514.0400, -55.939
1514.0600, -55.909
1514.0800, -55.905
1514.1000, -55.889
1514.1200, -55.883
1514.1400, -55.866
1514.1600, -55.859
1514.1800, -55.842
1514.2000, -55.830
1514.2200, -55.829
1514.2400, -55.797
1514.2600, -55.795
1514.2800, -55.783
1514.3000, -55.755
1514.3200, -55.755
1514.3400, -55.739
1514.3600, -55.724
1514.3800, -55.705
1514.4000, -55.701
1514.4200, -55.681
1514.4400, -55.668
1514.4600, -55.661
1514.4800, -55.644
1514.5000, -55.624
1514.5200, -55.613
1514.5400, -55.611
1514.5600, -55.605
1514.5800, -55.582
1514.6000, -55.561
1514.6200, -55.545
1514.6400, -55.544
1514.6600, -55.535
1514.6800, -55.519
1514.7000, -55.512
1514.7200, -55.483
1514.7400, -55.467
1514.7600, -55.456
1514.7800, -55.445
1514.8000, -55.443
1514.8200, -55.420
1514.8400, -55.413
1514.8600, -55.411
1514.8800, -55.387
1514.9000, -55.363
1514.9200, -55.363
1514.9400, -55.340
1514.9600, -55.341
1514.9800, -55.310
1515.0000, -55.311
1515.0200, -55.266
1515.0400, -55.263
1515.0600, -55.254
1515.0800, -55.232
1515.1000, -55.222
1515.1200, -55.205
1515.1400, -55.192
1515.1600, -55.186
1515.1800, -55.165
1515.2000, -55.162
1515.2200, -55.151
1515.2400, -55.121
1515.2600, -55.102
1515.2800, -55.088
1515.3000, -55.079
1515.3200, -55.063
1515.3400, -55.049
1515.3600, -55.036
1515.3800, -55.016
1515.4000, -55.009
1515.4200, -54.993
1515.4400, -54.984
1515.4600, -54.948
1515.4800, -54.946
1515.5000, -54.941
1515.5200, -54.927
1515.5400, -54.904
1515.5600, -54.898
1515.5800, -54.877
1515.6000, -54.861
1515.6200, -54.856
1515.6400, -54.842
1515.6600, -54.820
1515.6800, -54.811
1515.7000, -54.795
1515.7200, -54.776
1515.7400, -54.765
1515.7600, -54.752
1515.7800, -54.727
1515.8000, -54.722
1515.8200, -54.707
1515.8400, -54.683
1515.8600, -54.686
1515.8800, -54.667
1515.9000, -54.657
1515.9200, -54.636
1515.9400, -54.621
1515.9600, -54.599
1515.9800, -54.577
1516.0000, -54.562
1516.0200, -54.540
1516.0400, -54.530
1516.0600, -54.515
1516.0800, -54.498
1516.1000, -54.482
1516.1200, -54.468
1516.1400, -54.457
1516.1600, -54.442
1516.1800, -54.418
1516.2000, -54.397
1516.2200, -54.385
1516.2400, -54.373
1516.2600, -54.357
1516.2800, -54.339
1516.3000, -54.326
1516.3200, -54.320
1516.3400, -54.293
1516.3600, -54.280
1516.3800, -54.259
1516.4000, -54.242
1516.4200, -54.232
1516.4400, -54.216
1516.4600, -54.193
1516.4800, -54.179
1516.5000, -54.155
1516.5200, -54.145
1516.5400, -54.133
1516.5600, -54.116
1516.5800, -54.096
1516.6000, -54.085
1516.6200, -54.068
1516.6400, -54.046
1516.6600, -54.029
1516.6800, -54.014
1516.7000, -53.992
1516.7200, -53.981
1516.7400, -53.963
1516.7600, -53.951
1516.7800, -53.924
1516.8000, -53.916
1516.8200, -53.900
1516.8400, -53.883
1516.8600, -53.872
1516.8800, -53.848
1516.9000, -53.819
1516.9200, -53.800
1516.9400, -53.790
1516.9600, -53.767
1516.9800, -53.755
1517.0000, -53.728
1517.0200, -53.710
1517.0400, -53.697
1517.0600, -53.678
1517.0800, -53.664
1517.1000, -53.651
1517.1200, -53.631
1517.1400, -53.598
1517.1600, -53.581
1517.1800, -53.571
1517.2000, -53.542
1517.2200, -53.534
1517.2400, -53.508
1517.2600, -53.488
1517.2800, -53.480
1517.3000, -53.458
1517.3200, -53.443
1517.3400, -53.429
1517.3600, -53.411
1517.3800, -53.395
1517.4000, -53.370
1517.4200, -53.349
1517.4400, -53.329
1517.4600, -53.314
1517.4800, -53.291
1517.5000, -53.280
1517.5200, -53.269
1517.5400, -53.248
1517.5600, -53.219
1517.5800, -53.204
1517.6000, -53.183
1517.6200, -53.163
1517.6400, -53.143
1517.6600, -53.123
1517.6800, -53.104
1517.7000, -53.079
1517.7200, -53.051
1517.7400, -53.045
1517.7600, -53.023
1517.7800, -53.009
1517.8000, -52.986
1517.8200, -52.970
1517.8400, -52.944
1517.8600, -52.914
1517.8800, -52.890
1517.9000, -52.876
1517.9200, -52.852
1517.9400, -52.835
1517.9600, -52.824
1517.9800, -52.798
1518.0000, -52.784
1518.0200, -52.763
1518.0400, -52.746
1518.0600, -52.718
1518.0800, -52.680
1518.1000, -52.673
1518.1200, -52.650
1518.1400, -52.629
1518.1600, -52.605
1518.1800, -52.580
1518.2000, -52.568
1518.2200, -52.540
1518.2400, -52.523
1518.2600, -52.505
1518.2800, -52.483
1518.3000, -52.454
1518.3200, -52.448
1518.3400, -52.428
1518.3600, -52.402
1518.3800, -52.379
1518.4000, -52.351
1518.4200, -52.333
1518.4400, -52.318
1518.4600, -52.293
1518.4800, -52.267
1518.5000, -52.241
1518.5200, -52.217
1518.5400, -52.198
1518.5600, -52.178
1518.5800, -52.152
1518.6000, -52.128
1518.6200, -52.101
1518.6400, -52.094
1518.6600, -52.057
1518.6800, -52.047
1518.7000, -52.017
1518.7200, -51.994
1518.7400, -51.976
1518.7600, -51.957
1518.7800, -51.932
1518.8000, -51.897
1518.8200, -51.879
1518.8400, -51.852
1518.8600, -51.821
1518.8800, -51.804
1518.9000, -51.778
1518.9200, -51.745
1518.9400, -51.739
1518.9600, -51.707
1518.9800, -51.697
1519.0000, -51.671
1519.0200, -51.633
1519.0400, -51.611
1519.0600, -51.588
1519.0800, -51.564
1519.1000, -51.537
1519.1200, -51.511
1519.1400, -51.486
1519.1600, -51.461
1519.1800, -51.437
1519.2000, -51.416
1519.2200, -51.389
1519.2400, -51.360
1519.2600, -51.347
1519.2800, -51.314
1519.3000, -51.279
1519.3200, -51.253
1519.3400, -51.231
1519.3600, -51.208
1519.3800, -51.188
1519.4000, -51.157
1519.4200, -51.129
1519.4400, -51.109
1519.4600, -51.072
1519.4800, -51.045
1519.5000, -51.026
1519.5200, -50.995
1519.5400, -50.969
1519.5600, -50.944
1519.5800, -50.920
1519.6000, -50.880
1519.6200, -50.864
1519.6400, -50.845
1519.6600, -50.816
1519.6800, -50.788
1519.7000, -50.753
1519.7200, -50.727
1519.7400, -50.681
1519.7600, -50.665
1519.7800, -50.637
1519.8000, -50.608
1519.8200, -50.577
1519.8400, -50.562
1519.8600, -50.522
1519.8800, -50.513
1519.9000, -50.477
1519.9200, -50.450
1519.9400, -50.420
1519.9600, -50.376
1519.9800, -50.352
1520.0000, -50.323
1520.0200, -50.299
1520.0400, -50.262
1520.0600, -50.231
1520.0800, -50.193
1520.1000, -50.167
1520.1200, -50.138
1520.1400, -50.106
1520.1600, -50.082
1520.1800, -50.046
1520.2000, -50.027
1520.2200, -50.000
1520.2400, -49.963
1520.2600, -49.931
1520.2800, -49.899
1520.3000, -49.872
1520.3200, -49.843
1520.3400, -49.813
1520.3600, -49.777
1520.3800, -49.751
1520.4000, -49.714
1520.4200, -49.684
1520.4400, -49.650
1520.4600, -49.620
1520.4800, -49.588
1520.5000, -49.562
1520.5200, -49.541
1520.5400, -49.483
1520.5600, -49.468
1520.5800, -49.430
1520.6000, -49.393
1520.6200, -49.373
1520.6400, -49.335
1520.6600, -49.297
1520.6800, -49.256
1520.7000, -49.226
1520.7200, -49.196
1520.7400, -49.158
1520.7600, -49.121
1520.7800, -49.097
1520.8000, -49.053
1520.8200, -49.034
1520.8400, -48.991
1520.8600, -48.962
1520.8800, -48.926
1520.9000, -48.873
1520.9200, -48.844
1520.9400, -48.810
1520.9600, -48.772
1520.9800, -48.738
1521.0000, -48.703
1521.0200, -48.667
1521.0400, -48.632
1521.0600, -48.599
1521.0800, -48.562
1521.1000, -48.528
1521.1200, -48.491
1521.1400, -48.464
1521.1600, -48.418
1521.1800, -48.381
1521.2000, -48.351
1521.2200, -48.314
1521.2400, -48.281
1521.2600, -48.250
1521.2800, -48.206
1521.3000, -48.164
1521.3200, -48.135
1521.3400, -48.092
1521.3600, -48.061
1521.3800, -48.023
1521.4000, -47.984
1521.4200, -47.927
1521.4400, -47.909
1521.4600, -47.887
1521.4800, -47.822
1521.5000, -47.799
1521.5200, -47.755
1521.5400, -47.720
1521.5600, -47.694
1521.5800, -47.653
1521.6000, -47.606
1521.6200, -47.564
1521.6400, -47.526
1521.6600, -47.488
1521.6800, -47.447
1521.7000, -47.404
1521.7200, -47.367
1521.7400, -47.329
1521.7600, -47.297
1521.7800, -47.256
1521.8000, -47.219
1521.8200, -47.183
1521.8400, -47.124
1521.8600, -47.091
1521.8800, -47.058
1521.9000, -47.018
1521.9200, -46.977
1521.9400, -46.937
1521.9600, -46.896
1521.9800, -46.860
1522.0000, -46.820
1522.0200, -46.785
1522.0400, -46.745
1522.0600, -46.699
1522.0800, -46.670
1522.1000, -46.625
1522.1200, -46.590
1522.1400, -46.544
1522.1600, -46.506
1522.1800, -46.469
1522.2000, -46.437
1522.2200, -46.393
1522.2400, -46.348
1522.2600, -46.302
1522.2800, -46.261
1522.3000, -46.223
1522.3200, -46.186
1522.3400, -46.146
1522.3600, -46.101
1522.3800, -46.054
1522.4000, -46.029
1522.4200, -45.971
1522.4400, -45.947
1522.4600, -45.891
1522.4800, -45.863
1522.5000, -45.823
1522.5200, -45.783
1522.5400, -45.729
1522.5600, -45.687
1522.5800, -45.648
1522.6000, -45.601
1522.6200, -45.562
1522.6400, -45.516
1522.6600, -45.479
1522.6800, -45.443
1522.7000, -45.398
1522.7200, -45.361
1522.7400, -45.320
1522.7600, -45.275
1522.7800, -45.219
1522.8000, -45.189
1522.8200, -45.149
1522.8400, -45.106
1522.8600, -45.066
1522.8800, -45.023
1522.9000, -44.981
1522.9200, -44.941
1522.9400, -44.899
1522.9600, -44.861
1522.9800, -44.816
1523.0000, -44.775
1523.0200, -44.745
1523.0400, -44.693
1523.0600, -44.657
1523.0800, -44.613
1523.1000, -44.573
1523.1200, -44.533
1523.1400, -44.497
1523.1600, -44.445
1523.1800, -44.419
1523.2000, -44.371
1523.2200, -44.326
1523.2400, -44.284
1523.2600, -44.243
1523.2800, -44.201
1523.3000, -44.153
1523.3200, -44.113
1523.3400, -44.081
1523.3600, -44.028
1523.3800, -43.997
1523.4000, -43.943
1523.4200, -43.909
1523.4400, -43.862
1523.4600, -43.828
1523.4800, -43.775
1523.5000, -43.739
1523.5200, -43.699
1523.5400, -43.655
1523.5600, -43.613
1523.5800, -43.570
1523.6000, -43.534
1523.6200, -43.496
1523.6400, -43.444
1523.6600, -43.411
1523.6800, -43.370
1523.7000, -43.325
1523.7200, -43.278
1523.7400, -43.242
1523.7600, -43.200
1523.7800, -43.159
1523.8000, -43.119
1523.8200, -43.076
1523.8400, -43.038
1523.8600, -42.997
1523.8800, -42.953
1523.9000, -42.912
1523.9200, -42.872
1523.9400, -42.834
1523.9600, -42.796
1523.9800, -42.752
1524.0000, -42.716
1524.0200, -42.673
1524.0400, -42.635
1524.0600, -42.596
1524.0800, -42.554
1524.1000, -42.510
1524.1200, -42.476
1524.1400, -42.429
1524.1600, -42.392
1524.1800, -42.350
1524.2000, -42.310
1524.2200, -42.270
1524.2400, -42.228
1524.2600, -42.187
1524.2800, -42.151
1524.3000, -42.111
1524.3200, -42.074
1524.3400, -42.030
1524.3600, -41.989
1524.3800, -41.950
1524.4000, -41.911
1524.4200, -41.869
1524.4400, -41.831
1524.4600, -41.791
1524.4800, -41.752
1524.5000, -41.708
1524.5200, -41.667
1524.5400, -41.629
1524.5600, -41.594
1524.5800, -41.550
1524.6000, -41.518
1524.6200, -41.478
1524.6400, -41.436
1524.6600, -41.394
1524.6800, -41.355
1524.7000, -41.315
1524.7200, -41.277
1524.7400, -41.238
1524.7600, -41.198
1524.7800, -41.163
1524.8000, -41.121
1524.8200, -41.080
1524.8400, -41.040
1524.8600, -40.999
1524.8800, -40.963
1524.9000, -40.923
1524.9200, -40.884
1524.9400, -40.844
1524.9600, -40.806
1524.9800, -40.770
1525.0000, -40.733
1525.0200, -40.693
1525.0400, -40.652
1525.0600, -40.612
1525.0800, -40.567
1525.1000, -40.529
1525.1200, -40.493
1525.1400, -40.454
1525.1600, -40.415
1525.1800, -40.374
1525.2000, -40.338
1525.2200, -40.303
1525.2400, -40.266
1525.2600, -40.229
1525.2800, -40.185
1525.3000, -40.151
1525.3200, -40.112
1525.3400, -40.072
1525.3600, -40.033
1525.3800, -39.995
1525.4000, -39.957
1525.4200, -39.918
1525.4400, -39.875
1525.4600, -39.836
1525.4800, -39.794
1525.5000, -39.757
1525.5200, -39.712
1525.5400, -39.680
1525.5600, -39.640
1525.5800, -39.594
1525.6000, -39.560
1525.6200, -39.524
1525.6400, -39.486
1525.6600, -39.449
1525.6800, -39.405
1525.7000, -39.366
1525.7200, -39.325
1525.7400, -39.287
1525.7600, -39.247
1525.7800, -39.208
1525.8000, -39.169
1525.8200, -39.131
1525.8400, -39.088
1525.8600, -39.053
1525.8800, -39.011
1525.9000, -38.976
1525.9200, -38.943
1525.9400, -38.903
1525.9600, -38.869
1525.9800, -38.837
1526.0000, -38.801
1526.0200, -38.761
1526.0400, -38.724
1526.0600, -38.685
1526.0800, -38.648
1526.1000, -38.609
1526.1200, -38.571
1526.1400, -38.539
1526.1600, -38.503
1526.1800, -38.468
1526.2000, -38.421
1526.2200, -38.376
1526.2400, -38.343
1526.2600, -38.301
1526.2800, -38.261
1526.3000, -38.223
1526.3200, -38.189
1526.3400, -38.152
1526.3600, -38.118
1526.3800, -38.078
1526.4000, -38.050
1526.4200, -38.020
1526.4400, -37.967
1526.4600, -37.932
1526.4800, -37.904
1526.5000, -37.861
1526.5200, -37.820
1526.5400, -37.786
1526.5600, -37.742
1526.5800, -37.709
1526.6000, -37.667
1526.6200, -37.632
1526.6400, -37.594
1526.6600, -37.554
1526.6800, -37.521
1526.7000, -37.484
1526.7200, -37.447
1526.7400, -37.416
1526.7600, -37.378
1526.7800, -37.344
1526.8000, -37.303
1526.8200, -37.263
1526.8400, -37.230
1526.8600, -37.190
1526.8800, -37.154
1526.9000, -37.119
1526.9200, -37.083
1526.9400, -37.031
1526.9600, -36.992
1526.9800, -36.969
1527.0000, -36.921
1527.0200, -36.860
1527.0400, -36.822
1527.0600, -36.794
1527.0800, -36.771
1527.1000, -36.739
1527.1200, -36.703
1527.1400, -36.652
1527.1600, -36.620
1527.1800, -36.585
1527.2000, -36.548
1527.2200, -36.509
1527.2400, -36.468
1527.2600, -36.425
1527.2800, -36.388
1527.3000, -36.343
1527.3200, -36.309
1527.3400, -36.271
1527.3600, -36.243
1527.3800, -36.186
1527.4000, -36.169
1527.4200, -36.126
1527.4400, -36.082
1527.4600, -36.036
1527.4800, -35.997
1527.5000, -35.953
1527.5200, -35.906
1527.5400, -35.861
1527.5600, -35.821
1527.5800, -35.781
1527.6000, -35.746
1527.6200, -35.708
1527.6400, -35.670
1527.6600, -35.638
1527.6800, -35.600
1527.7000, -35.542
1527.7200, -35.504
1527.7400, -35.460
1527.7600, -35.426
1527.7800, -35.388
1527.8000, -35.346
1527.8200, -35.294
1527.8400, -35.265
1527.8600, -35.221
1527.8800, -35.178
1527.9000, -35.149
1527.9200, -35.100
1527.9400, -35.062
1527.9600, -35.019
1527.9800, -34.972
1528.0000, -34.949
1528.0200, -34.883
1528.0400, -34.858
1528.0600, -34.802
1528.0800, -34.748
1528.1000, -34.716
1528.1200, -34.677
1528.1400, -34.627
1528.1600, -34.573
1528.1800, -34.538
1528.2000, -34.492
1528.2200, -34.456
1528.2400, -34.404
1528.2600, -34.363
1528.2800, -34.339
1528.3000, -34.300
1528.3200, -34.259
1528.3400, -34.234
1528.3600, -34.187
1528.3800, -34.120
1528.4000, -34.101
1528.4200, -34.058
1528.4400, -34.019
1528.4600, -33.975
1528.4800, -33.944
1528.5000, -33.902
1528.5200, -33.867
1528.5400, -33.832
1528.5600, -33.796
1528.5800, -33.766
1528.6000, -33.724
1528.6200, -33.674
1528.6400, -33.638
1528.6600, -33.595
1528.6800, -33.558
1528.7000, -33.521
1528.7200, -33.488
1528.7400, -33.440
1528.7600, -33.392
1528.7800, -33.330
1528.8000, -33.286
1528.8200, -33.235
1528.8400, -33.188
1528.8600, -33.141
1528.8800, -33.092
1528.9000, -33.041
1528.9200, -32.992
1528.9400, -32.943
1528.9600, -32.904
1528.9800, -32.870
1529.0000, -32.787
1529.0200, -32.772
1529.0400, -32.720
1529.0600, -32.677
1529.0800, -32.623
1529.1000, -32.581
1529.1200, -32.535
1529.1400, -32.491
1529.1600, -32.442
1529.1800, -32.399
1529.2000, -32.354
1529.2200, -32.338
1529.2400, -32.277
1529.2600, -32.246
1529.2800, -32.199
1529.3000, -32.153
1529.3200, -32.102
1529.3400, -32.056
1529.3600, -32.003
1529.3800, -31.945
1529.4000, -31.892
1529.4200, -31.844
1529.4400, -31.827
1529.4600, -31.764
1529.4800, -31.726
1529.5000, -31.713
1529.5200, -31.691
1529.5400, -31.669
1529.5600, -31.628
1529.5800, -31.593
1529.6000, -31.530
1529.6200, -31.478
1529.6400, -31.428
1529.6600, -31.376
1529.6800, -31.343
1529.7000, -31.312
1529.7200, -31.263
1529.7400, -31.218
1529.7600, -31.195
1529.7800, -31.149
1529.8000, -31.078
1529.8200, -31.006
1529.8400, -30.965
1529.8600, -30.912
1529.8800, -30.852
1529.9000, -30.846
1529.9200, -30.798
1529.9400, -30.846
1529.9600, -30.752
1529.9800, -30.712
1530.0000, -30.672
1530.0200, -30.604
1530.0400, -30.655
1530.0600, -30.492
1530.0800, -30.554
1530.1000, -30.422
1530.1200, -30.358
1530.1400, -30.359
1530.1600, -30.326
1530.1800, -30.388
1530.2000, -30.319
1530.2200, -30.339
1530.2400, -30.178
1530.2600, -30.210
1530.2800, -30.207
1530.3000, -30.121
1530.3200, -30.121
1530.3400, -30.019
1530.3600, -29.966
1530.3800, -29.918
1530.4000, -29.846
1530.4200, -29.753
1530.4400, -29.778
1530.4600, -29.707
1530.4800, -29.800
1530.5000, -29.675
1530.5200, -29.551
1530.5400, -29.579
1530.5600, -29.533
1530.5800, -29.376
1530.6000, -29.333
1530.6200, -29.359
1530.6400, -29.235
1530.6600, -29.193
1530.6800, -29.289
1530.7000, -29.229
1530.7200, -29.134
1530.7400, -29.197
1530.7600, -29.105
1530.7800, -29.196
1530.8000, -29.130
1530.8200, -29.149
1530.8400, -29.034
1530.8600, -29.035
1530.8800, -29.020
1530.9000, -28.999
1530.9200, -28.994
1530.9400, -28.888
1530.9600, -28.891
1530.9800, -28.954
1531.0000, -28.919
1531.0200, -28.809
1531.0400, -28.888
1531.0600, -28.894
1531.0800, -28.886
1531.1000, -28.740
1531.1200, -28.703
1531.1400, -28.692
1531.1600, -28.644
1531.1800, -28.573
1531.2000, -28.566
1531.2200, -28.676
1531.2400, -28.363
1531.2600, -28.470
1531.2800, -28.218
1531.3000, -28.129
1531.3200, -28.136
1531.3400, -27.942
1531.3600, -28.031
1531.3800, -28.011
1531.4000, -27.964
1531.4200, -28.113
1531.4400, -27.916
1531.4600, -27.741
1531.4800, -27.860
1531.5000, -28.016
1531.5200, -27.607
1531.5400, -27.991
1531.5600, -28.054
1531.5800, -27.979
1531.6000, -27.947
1531.6200, -28.110
1531.6400, -28.151
1531.6600, -27.865
1531.6800, -27.926
1531.7000, -27.785
1531.7200, -27.753
1531.7400, -27.051
1531.7600, -27.833
1531.7800, -27.352
1531.8000, -27.692
1531.8200, -27.620
1531.8400, -27.613
1531.8600, -27.507
1531.8800, -27.194
1531.9000, -27.413
1531.9200, -27.091
1531.9400, -26.875
1531.9600, -27.445
1531.9800, -27.178
1532.0000, -27.337
1532.0200, -27.547
1532.0400, -27.447
1532.0600, -27.090
1532.0800, -26.818
1532.1000, -27.369
1532.1200, -27.180
1532.1400, -27.595
1532.1600, -27.626
1532.1800, -27.679
1532.2000, -28.053
1532.2200, -27.753
1532.2400, -27.597
1532.2600, -26.992
1532.2800, -27.408
1532.3000, -28.060
1532.3200, -26.636
1532.3400, -27.665
1532.3600, -27.601
1532.3800, -27.931
1532.4000, -27.616
1532.4200, -27.531
1532.4400, -27.659
1532.4600, -27.044
1532.4800, -28.034
1532.5000, -27.469
1532.5200, -27.390
1532.5400, -27.336
1532.5600, -27.219
1532.5800, -27.025
1532.6000, -27.418
1532.6200, -28.272
1532.6400, -27.613
1532.6600, -27.544
1532.6800, -27.292
1532.7000, -27.957
1532.7200, -27.430
1532.7400, -27.097
1532.7600, -27.926
1532.7800, -27.923
1532.8000, -27.370
1532.8200, -27.198
1532.8400, -27.956
1532.8600, -27.806
1532.8800, -27.907
1532.9000, -28.093
1532.9200, -27.987
1532.9400, -27.939
1532.9600, -28.138
1532.9800, -28.210
1533.0000, -27.556
1533.0200, -28.563
1533.0400, -28.690
1533.0600, -28.530
1533.0800, -28.162
1533.1000, -28.744
1533.1200, -28.422
1533.1400, -28.244
1533.1600, -28.754
1533.1800, -28.933
1533.2000, -28.684
1533.2200, -28.903
1533.2400, -28.456
1533.2600, -29.028
1533.2800, -29.052
1533.3000, -29.143
1533.3200, -29.198
1533.3400, -29.201
1533.3600, -29.309
1533.3800, -29.255
1533.4000, -29.304
1533.4200, -29.353
1533.4400, -29.388
1533.4600, -29.629
1533.4800, -29.598
1533.5000, -29.716
1533.5200, -29.748
1533.5400, -29.818
1533.5600, -30.002
1533.5800, -30.145
1533.6000, -30.131
1533.6200, -30.169
1533.6400, -30.181
1533.6600, -30.339
1533.6800, -30.517
1533.7000, -30.489
1533.7200, -30.628
1533.7400, -30.621
1533.7600, -30.716
1533.7800, -30.840
1533.8000, -30.915
1533.8200, -31.087
1533.8400, -31.115
1533.8600, -31.055
1533.8800, -31.232
1533.9000, -31.310
1533.9200, -31.462
1533.9400, -31.562
1533.9600, -31.502
1533.9800, -31.516
1534.0000, -31.564
1534.0200, -31.595
1534.0400, -31.689
1534.0600, -31.834
1534.0800, -31.819
1534.1000, -31.878
1534.1200, -31.907
1534.1400, -32.004
1534.1600, -32.000
1534.1800, -32.061
1534.2000, -32.219
1534.2200, -32.188
1534.2400, -32.280
1534.2600, -32.365
1534.2800, -32.295
1534.3000, -32.373
1534.3200, -32.506
1534.3400, -32.568
1534.3600, -32.693
1534.3800, -32.714
1534.4000, -32.869
1534.4200, -32.861
1534.4400, -32.916
1534.4600, -32.986
1534.4800, -33.090
1534.5000, -33.153
1534.5200, -33.175
1534.5400, -33.246
1534.5600, -33.296
1534.5800, -33.398
1534.6000, -33.431
1534.6200, -33.446
1534.6400, -33.505
1534.6600, -33.550
1534.6800, -33.626
1534.7000, -33.673
1534.7200, -33.713
1534.7400, -33.867
1534.7600, -33.828
1534.7800, -33.883
1534.8000, -33.990
1534.8200, -33.991
1534.8400, -34.106
1534.8600, -34.133
1534.8800, -34.287
1534.9000, -34.310
1534.9200, -34.314
1534.9400, -34.371
1534.9600, -34.388
1534.9800, -34.483
1535.0000, -34.561
1535.0200, -34.624
1535.0400, -34.694
1535.0600, -34.731
1535.0800, -34.797
1535.1000, -34.865
1535.1200, -34.894
1535.1400, -34.958
1535.1600, -35.009
1535.1800, -35.093
1535.2000, -35.129
1535.2200, -35.191
1535.2400, -35.229
1535.2600, -35.289
1535.2800, -35.351
1535.3000, -35.420
1535.3200, -35.481
1535.3400, -35.536
1535.3600, -35.595
1535.3800, -35.647
1535.4000, -35.707
1535.4200, -35.755
1535.4400, -35.806
1535.4600, -35.855
1535.4800, -35.910
1535.5000, -35.977
1535.5200, -36.029
1535.5400, -36.078
1535.5600, -36.124
1535.5800, -36.182
1535.6000, -36.231
1535.6200, -36.281
1535.6400, -36.353
1535.6600, -36.413
1535.6800, -36.475
1535.7000, -36.511
1535.7200, -36.573
1535.7400, -36.619
1535.7600, -36.660
1535.7800, -36.715
1535.8000, -36.775
1535.8200, -36.822
1535.8400, -36.871
1535.8600, -36.920
1535.8800, -36.968
1535.9000, -37.011
1535.9200, -37.056
1535.9400, -37.104
1535.9600, -37.155
1535.9800, -37.209
1536.0000, -37.253
1536.0200, -37.288
1536.0400, -37.345
1536.0600, -37.380
1536.0800, -37.426
1536.1000, -37.464
1536.1200, -37.514
1536.1400, -37.560
1536.1600, -37.620
1536.1800, -37.647
1536.2000, -37.685
1536.2200, -37.729
1536.2400, -37.769
1536.2600, -37.805
1536.2800, -37.842
1536.3000, -37.895
1536.3200, -37.942
1536.3400, -37.984
1536.3600, -38.019
1536.3800, -38.042
1536.4000, -38.090
1536.4200, -38.136
1536.4400, -38.179
1536.4600, -38.221
1536.4800, -38.257
1536.5000, -38.296
1536.5200, -38.335
1536.5400, -38.371
1536.5600, -38.416
1536.5800, -38.453
1536.6000, -38.482
1536.6200, -38.506
1536.6400, -38.551
1536.6600, -38.584
1536.6800, -38.611
1536.7000, -38.642
1536.7200, -38.677
1536.7400, -38.713
1536.7600, -38.744
1536.7800, -38.780
1536.8000, -38.815
1536.8200, -38.849
1536.8400, -38.885
1536.8600, -38.916
1536.8800, -38.953
1536.9000, -38.989
1536.9200, -39.026
1536.9400, -39.054
1536.9600, -39.089
1536.9800, -39.114
1537.0000, -39.147
1537.0200, -39.183
1537.0400, -39.207
1537.0600, -39.246
1537.0800, -39.288
1537.1000, -39.303
1537.1200, -39.333
1537.1400, -39.362
1537.1600, -39.386
1537.1800, -39.410
1537.2000, -39.434
1537.2200, -39.469
1537.2400, -39.502
1537.2600, -39.528
1537.2800, -39.548
1537.3000, -39.558
1537.3200, -39.592
1537.3400, -39.622
1537.3600, -39.650
1537.3800, -39.676
1537.4000, -39.698
1537.4200, -39.725
1537.4400, -39.750
1537.4600, -39.768
1537.4800, -39.798
1537.5000, -39.825
1537.5200, -39.849
1537.5400, -39.860
1537.5600, -39.892
1537.5800, -39.914
1537.6000, -39.928
1537.6200, -39.954
1537.6400, -39.974
1537.6600, -39.996
1537.6800, -40.012
1537.7000, -40.029
1537.7200, -40.053
1537.7400, -40.073
1537.7600, -40.094
1537.7800, -40.118
1537.8000, -40.135
1537.8200, -40.164
1537.8400, -40.181
1537.8600, -40.199
1537.8800, -40.225
1537.9000, -40.241
1537.9200, -40.262
1537.9400, -40.283
1537.9600, -40.292
1537.9800, -40.315
1538.0000, -40.343
1538.0200, -40.349
1538.0400, -40.366
1538.0600, -40.386
1538.0800, -40.404
1538.1000, -40.416
1538.1200, -40.436
1538.1400, -40.467
1538.1600, -40.487
1538.1800, -40.497
1538.2000, -40.511
1538.2200, -40.513
1538.2400, -40.542
1538.2600, -40.556
1538.2800, -40.566
1538.3000, -40.575
1538.3200, -40.589
1538.3400, -40.601
1538.3600, -40.612
1538.3800, -40.623
1538.4000, -40.644
1538.4200, -40.660
1538.4400, -40.671
1538.4600, -40.676
1538.4800, -40.693
1538.5000, -40.701
1538.5200, -40.711
1538.5400, -40.728
1538.5600, -40.739
1538.5800, -40.751
1538.6000, -40.760
1538.6200, -40.770
1538.6400, -40.780
1538.6600, -40.793
1538.6800, -40.805
1538.7000, -40.815
1538.7200, -40.824
1538.7400, -40.837
1538.7600, -40.838
1538.7800, -40.858
1538.8000, -40.861
1538.8200, -40.873
1538.8400, -40.883
1538.8600, -40.893
1538.8800, -40.894
1538.9000, -40.911
1538.9200, -40.913
1538.9400, -40.916
1538.9600, -40.926
1538.9800, -40.932
1539.0000, -40.942
1539.0200, -40.944
1539.0400, -40.955
1539.0600, -40.967
1539.0800, -40.983
1539.1000, -40.987
1539.1200, -40.992
1539.1400, -40.987
1539.1600, -41.005
1539.1800, -41.010
1539.2000, -41.013
1539.2200, -41.018
1539.2400, -41.022
1539.2600, -41.024
1539.2800, -41.028
1539.3000, -41.041
1539.3200, -41.058
1539.3400, -41.062
1539.3600, -41.066
1539.3800, -41.068
1539.4000, -41.071
1539.4200, -41.075
1539.4400, -41.079
1539.4600, -41.082
1539.4800, -41.085
1539.5000, -41.090
1539.5200, -41.095
1539.5400, -41.102
1539.5600, -41.109
1539.5800, -41.115
1539.6000, -41.122
1539.6200, -41.128
1539.6400, -41.130
1539.6600, -41.136
1539.6800, -41.133
1539.7000, -41.136
1539.7200, -41.140
1539.7400, -41.146
1539.7600, -41.150
1539.7800, -41.152
1539.8000, -41.150
1539.8200, -41.160
1539.8400, -41.151
1539.8600, -41.149
1539.8800, -41.155
1539.9000, -41.157
1539.9200, -41.157
1539.9400, -41.158
1539.9600, -41.159
1539.9800, -41.171
1540.0000, -41.171
1540.0200, -41.174
1540.0400, -41.173
1540.0600, -41.169
1540.0800, -41.171
1540.1000, -41.174
1540.1200, -41.174
1540.1400, -41.177
1540.1600, -41.173
1540.1800, -41.172
1540.2000, -41.171
1540.2200, -41.183
1540.2400, -41.187
1540.2600, -41.185
1540.2800, -41.171
1540.3000, -41.172
1540.3200, -41.171
1540.3400, -41.165
1540.3600, -41.166
1540.3800, -41.162
1540.4000, -41.163
1540.4200, -41.161
1540.4400, -41.158
1540.4600, -41.159
1540.4800, -41.156
1540.5000, -41.156
1540.5200, -41.159
1540.5400, -41.156
1540.5600, -41.159
1540.5800, -41.159
1540.6000, -41.161
1540.6200, -41.152
1540.6400, -41.154
1540.6600, -41.157
1540.6800, -41.158
1540.7000, -41.158
1540.7200, -41.154
1540.7400, -41.158
1540.7600, -41.145
1540.7800, -41.146
1540.8000, -41.143
1540.8200, -41.141
1540.8400, -41.136
1540.8600, -41.131
1540.8800, -41.135
1540.9000, -41.142
1540.9200, -41.134
1540.9400, -41.135
1540.9600, -41.128
1540.9800, -41.130
1541.0000, -41.128
1541.0200, -41.123
1541.0400, -41.120
1541.0600, -41.115
1541.0800, -41.109
1541.1000, -41.103
1541.1200, -41.102
1541.1400, -41.106
1541.1600, -41.103
1541.1800, -41.094
1541.2000, -41.092
1541.2200, -41.090
1541.2400, -41.087
1541.2600, -41.081
1541.2800, -41.079
1541.3000, -41.073
1541.3200, -41.071
1541.3400, -41.069
1541.3600, -41.069
1541.3800, -41.064
1541.4000, -41.064
1541.4200, -41.061
1541.4400, -41.060
1541.4600, -41.059
1541.4800, -41.058
1541.5000, -41.051
1541.5200, -41.056
1541.5400, -41.044
1541.5600, -41.045
1541.5800, -41.041
1541.6000, -41.043
1541.6200, -41.036
1541.6400, -41.029
1541.6600, -41.023
1541.6800, -41.020
1541.7000, -41.019
1541.7200, -41.015
1541.7400, -41.015
1541.7600, -41.008
1541.7800, -41.003
1541.8000, -41.006
1541.8200, -41.007
1541.8400, -41.005
1541.8600, -40.999
1541.8800, -40.999
1541.9000, -40.992
1541.9200, -40.988
1541.9400, -40.982
1541.9600, -40.980
1541.9800, -40.972
1542.0000, -40.967
1542.0200, -40.960
1542.0400, -40.962
1542.0600, -40.958
1542.0800, -40.954
1542.1000, -40.937
1542.1200, -40.941
1542.1400, -40.936
1542.1600, -40.929
1542.1800, -40.928
1542.2000, -40.922
1542.2200, -40.918
1542.2400, -40.915
1542.2600, -40.910
1542.2800, -40.907
1542.3000, -40.900
1542.3200, -40.895
1542.3400, -40.891
1542.3600, -40.886
1542.3800, -40.882
1542.4000, -40.879
1542.4200, -40.870
1542.4400, -40.864
1542.4600, -40.859
1542.4800, -40.854
1542.5000, -40.853
1542.5200, -40.848
1542.5400, -40.842
1542.5600, -40.844
1542.5800, -40.830
1542.6000, -40.830
1542.6200, -40.829
1542.6400, -40.825
1542.6600, -40.818
1542.6800, -40.815
1542.7000, -40.812
1542.7200, -40.817
1542.7400, -40.806
1542.7600, -40.807
1542.7800, -40.801
1542.8000, -40.801
1542.8200, -40.795
1542.8400, -40.788
1542.8600, -40.787
1542.8800, -40.780
1542.9000, -40.771
1542.9200, -40.768
1542.9400, -40.760
1542.9600, -40.761
1542.9800, -40.760
1543.0000, -40.754
1543.0200, -40.748
1543.0400, -40.742
1543.0600, -40.737
1543.0800, -40.730
1543.1000, -40.729
1543.1200, -40.722
1543.1400, -40.720
1543.1600, -40.718
1543.1800, -40.715
1543.2000, -40.712
1543.2200, -40.708
1543.2400, -40.707
1543.2600, -40.708
1543.2800, -40.701
1543.3000, -40.707
1543.3200, -40.699
1543.3400, -40.701
1543.3600, -40.694
1543.3800, -40.690
1543.4000, -40.689
1543.4200, -40.690
1543.4400, -40.684
1543.4600, -40.685
1543.4800, -40.675
1543.5000, -40.669
1543.5200, -40.664
1543.5400, -40.664
1543.5600, -40.655
1543.5800, -40.653
1543.6000, -40.650
1543.6200, -40.655
1543.6400, -40.654
1543.6600, -40.649
1543.6800, -40.646
1543.7000, -40.647
1543.7200, -40.639
1543.7400, -40.633
1543.7600, -40.622
1543.7800, -40.617
1543.8000, -40.613
1543.8200, -40.611
1543.8400, -40.607
1543.8600, -40.607
1543.8800, -40.614
1543.9000, -40.608
1543.9200, -40.607
1543.9400, -40.610
1543.9600, -40.605
1543.9800, -40.598
1544.0000, -40.597
1544.0200, -40.597
1544.0400, -40.596
1544.0600, -40.590
1544.0800, -40.588
1544.1000, -40.584
1544.1200, -40.580
1544.1400, -40.578
1544.1600, -40.575
1544.1800, -40.575
1544.2000, -40.574
1544.2200, -40.576
1544.2400, -40.581
1544.2600, -40.573
1544.2800, -40.573
1544.3000, -40.572
1544.3200, -40.569
1544.3400, -40.569
1544.3600, -40.568
1544.3800, -40.567
1544.4000, -40.558
1544.4200, -40.557
1544.4400, -40.556
1544.4600, -40.558
1544.4800, -40.549
1544.5000, -40.547
1544.5200, -40.547
1544.5400, -40.554
1544.5600, -40.548
1544.5800, -40.548
1544.6000, -40.547
1544.6200, -40.543
1544.6400, -40.540
1544.6600, -40.534
1544.6800, -40.532
1544.7000, -40.528
1544.7200, -40.529
1544.7400, -40.526
1544.7600, -40.523
1544.7800, -40.532
1544.8000, -40.532
1544.8200, -40.530
1544.8400, -40.528
1544.8600, -40.527
1544.8800, -40.519
1544.9000, -40.516
1544.9200, -40.514
1544.9400, -40.514
1544.9600, -40.512
1544.9800, -40.514
1545.0000, -40.511
1545.0200, -40.510
1545.0400, -40.511
1545.0600, -40.512
1545.0800, -40.514
1545.1000, -40.505
1545.1200, -40.513
1545.1400, -40.507
1545.1600, -40.511
1545.1800, -40.506
1545.2000, -40.510
1545.2200, -40.513
1545.2400, -40.511
1545.2600, -40.515
1545.2800, -40.516
1545.3000, -40.510
1545.3200, -40.509
1545.3400, -40.513
1545.3600, -40.512
1545.3800, -40.508
1545.4000, -40.507
1545.4200, -40.510
1545.4400, -40.511
1545.4600, -40.514
1545.4800, -40.510
1545.5000, -40.502
1545.5200, -40.500
1545.5400, -40.495
1545.5600, -40.491
1545.5800, -40.486
1545.6000, -40.488
1545.6200, -40.491
1545.6400, -40.494
1545.6600, -40.494
1545.6800, -40.495
1545.7000, -40.500
1545.7200, -40.497
1545.7400, -40.501
1545.7600, -40.499
1545.7800, -40.490
1545.8000, -40.486
1545.8200, -40.485
1545.8400, -40.488
1545.8600, -40.487
1545.8800, -40.485
1545.9000, -40.487
1545.9200, -40.487
1545.9400, -40.486
1545.9600, -40.486
1545.9800, -40.484
1546.0000, -40.478
1546.0200, -40.490
1546.0400, -40.482
1546.0600, -40.483
1546.0800, -40.475
1546.1000, -40.477
1546.1200, -40.478
1546.1400, -40.483
1546.1600, -40.487
1546.1800, -40.483
1546.2000, -40.488
1546.2200, -40.491
1546.2400, -40.501
1546.2600, -40.503
1546.2800, -40.493
1546.3000, -40.483
1546.3200, -40.480
1546.3400, -40.481
1546.3600, -40.486
1546.3800, -40.493
1546.4000, -40.488
1546.4200, -40.498
1546.4400, -40.502
1546.4600, -40.497
1546.4800, -40.494
1546.5000, -40.494
1546.5200, -40.494
1546.5400, -40.491
1546.5600, -40.493
1546.5800, -40.498
1546.6000, -40.501
1546.6200, -40.499
1546.6400, -40.498
1546.6600, -40.504
1546.6800, -40.498
1546.7000, -40.491
1546.7200, -40.497
1546.7400, -40.497
1546.7600, -40.495
1546.7800, -40.490
1546.8000, -40.488
1546.8200, -40.486
1546.8400, -40.486
1546.8600, -40.486
1546.8800, -40.484
1546.9000, -40.475
1546.9200, -40.486
1546.9400, -40.483
1546.9600, -40.485
1546.9800, -40.485
1547.0000, -40.487
1547.0200, -40.487
1547.0400, -40.483
1547.0600, -40.485
1547.0800, -40.488
1547.1000, -40.487
1547.1200, -40.486
1547.1400, -40.490
1547.1600, -40.493
1547.1800, -40.494
1547.2000, -40.495
1547.2200, -40.496
1547.2400, -40.496
1547.2600, -40.499
1547.2800, -40.497
1547.3000, -40.501
1547.3200, -40.503
1547.3400, -40.505
1547.3600, -40.505
1547.3800, -40.502
1547.4000, -40.501
1547.4200, -40.500
1547.4400, -40.500
1547.4600, -40.499
1547.4800, -40.498
1547.5000, -40.506
1547.5200, -40.498
1547.5400, -40.499
1547.5600, -40.506
1547.5800, -40.505
1547.6000, -40.498
1547.6200, -40.507
1547.6400, -40.510
1547.6600, -40.516
1547.6800, -40.517
1547.7000, -40.516
1547.7200, -40.522
1547.7400, -40.522
1547.7600, -40.523
1547.7800, -40.523
1547.8000, -40.524
1547.8200, -40.524
1547.8400, -40.527
1547.8600, -40.524
1547.8800, -40.521
1547.9000, -40.528
1547.9200, -40.527
1547.9400, -40.537
1547.9600, -40.541
1547.9800, -40.539
1548.0000, -40.538
1548.0200, -40.553
1548.0400, -40.559
1548.0600, -40.559
1548.0800, -40.559
1548.1000, -40.548
1548.1200, -40.542
1548.1400, -40.538
1548.1600, -40.538
1548.1800, -40.542
1548.2000, -40.542
1548.2200, -40.552
1548.2400, -40.558
1548.2600, -40.560
1548.2800, -40.549
1548.3000, -40.562
1548.3200, -40.563
1548.3400, -40.555
1548.3600, -40.564
1548.3800, -40.557
1548.4000, -40.568
1548.4200, -40.560
1548.4400, -40.559
1548.4600, -40.569
1548.4800, -40.566
1548.5000, -40.555
1548.5200, -40.562
1548.5400, -40.560
1548.5600, -40.560
1548.5800, -40.561
1548.6000, -40.564
1548.6200, -40.567
1548.6400, -40.567
1548.6600, -40.570
1548.6800, -40.573
1548.7000, -40.567
1548.7200, -40.578
1548.7400, -40.578
1548.7600, -40.586
1548.7800, -40.589
1548.8000, -40.595
1548.8200, -40.597
1548.8400, -40.595
1548.8600, -40.604
1548.8800, -40.599
1548.9000, -40.599
1548.9200, -40.602
1548.9400, -40.616
1548.9600, -40.621
1548.9800, -40.619
1549.0000, -40.608
1549.0200, -40.613
1549.0400, -40.610
1549.0600, -40.614
1549.0800, -40.612
1549.1000, -40.608
1549.1200, -40.614
1549.1400, -40.617
1549.1600, -40.620
1549.1800, -40.607
1549.2000, -40.623
1549.2200, -40.629
1549.2400, -40.625
1549.2600, -40.625
1549.2800, -40.619
1549.3000, -40.620
1549.3200, -40.619
1549.3400, -40.620
1549.3600, -40.623
1549.3800, -40.627
1549.4000, -40.619
1549.4200, -40.631
1549.4400, -40.637
1549.4600, -40.639
1549.4800, -40.642
1549.5000, -40.642
1549.5200, -40.650
1549.5400, -40.656
1549.5600, -40.658
1549.5800, -40.662
1549.6000, -40.654
1549.6200, -40.653
1549.6400, -40.664
1549.6600, -40.667
1549.6800, -40.668
1549.7000, -40.672
1549.7200, -40.672
1549.7400, -40.675
1549.7600, -40.672
1549.7800, -40.678
1549.8000, -40.684
1549.8200, -40.689
1549.8400, -40.695
1549.8600, -40.699
1549.8800, -40.707
1549.9000, -40.710
1549.9200, -40.701
1549.9400, -40.698
1549.9600, -40.705
1549.9800, -40.707
1550.0000, -40.713
1550.0200, -40.717
1550.0400, -40.715
1550.0600, -40.711
1550.0800, -40.702
1550.1000, -40.715
1550.1200, -40.714
1550.1400, -40.710
1550.1600, -40.710
1550.1800, -40.711
1550.2000, -40.717
1550.2200, -40.720
1550.2400, -40.724
1550.2600, -40.730
1550.2800, -40.733
1550.3000, -40.727
1550.3200, -40.744
1550.3400, -40.744
1550.3600, -40.746
1550.3800, -40.750
1550.4000, -40.752
1550.4200, -40.753
1550.4400, -40.754
1550.4600, -40.757
1550.4800, -40.760
1550.5000, -40.766
1550.5200, -40.767
1550.5400, -40.763
1550.5600, -40.769
1550.5800, -40.767
1550.6000, -40.772
1550.6200, -40.778
1550.6400, -40.781
1550.6600, -40.795
1550.6800, -40.791
1550.7000, -40.794
1550.7200, -40.805
1550.7400, -40.820
1550.7600, -40.825
1550.7800, -40.830
1550.8000, -40.832
1550.8200, -40.829
1550.8400, -40.825
1550.8600, -40.828
1550.8800, -40.831
1550.9000, -40.832
1550.9200, -40.845
1550.9400, -40.847
1550.9600, -40.846
1550.9800, -40.844
1551.0000, -40.843
1551.0200, -40.847
1551.0400, -40.850
1551.0600, -40.857
1551.0800, -40.858
1551.1000, -40.862
1551.1200, -40.860
1551.1400, -40.867
1551.1600, -40.868
1551.1800, -40.873
1551.2000, -40.874
1551.2200, -40.875
1551.2400, -40.881
1551.2600, -40.883
1551.2800, -40.889
1551.3000, -40.901
1551.3200, -40.900
1551.3400, -40.891
1551.3600, -40.891
1551.3800, -40.895
1551.4000, -40.893
1551.4200, -40.897
1551.4400, -40.898
1551.4600, -40.898
1551.4800, -40.898
1551.5000, -40.900
1551.5200, -40.905
1551.5400, -40.908
1551.5600, -40.909
1551.5800, -40.912
1551.6000, -40.923
1551.6200, -40.931
1551.6400, -40.935
1551.6600, -40.939
1551.6800, -40.944
1551.7000, -40.944
1551.7200, -40.945
1551.7400, -40.941
1551.7600, -40.943
1551.7800, -40.946
1551.8000, -40.955
1551.8200, -40.959
1551.8400, -40.963
1551.8600, -40.961
1551.8800, -40.960
1551.9000, -40.964
1551.9200, -40.968
1551.9400, -40.973
1551.9600, -40.971
1551.9800, -40.975
1552.0000, -40.974
1552.0200, -40.975
1552.0400, -40.985
1552.0600, -40.989
1552.0800, -40.989
1552.1000, -40.992
1552.1200, -40.994
1552.1400, -41.004
1552.1600, -41.008
1552.1800, -41.017
1552.2000, -41.028
1552.2200, -41.024
1552.2400, -41.016
1552.2600, -41.017
1552.2800, -41.020
1552.3000, -41.024
1552.3200, -41.029
1552.3400, -41.031
1552.3600, -41.029
1552.3800, -41.033
1552.4000, -41.038
1552.4200, -41.040
1552.4400, -41.043
1552.4600, -41.044
1552.4800, -41.041
1552.5000, -41.044
1552.5200, -41.057
1552.5400, -41.051
1552.5600, -41.055
1552.5800, -41.066
1552.6000, -41.061
1552.6200, -41.070
1552.6400, -41.083
1552.6600, -41.087
1552.6800, -41.092
1552.7000, -41.098
1552.7200, -41.094
1552.7400, -41.098
1552.7600, -41.095
1552.7800, -41.097
1552.8000, -41.101
1552.8200, -41.102
1552.8400, -41.112
1552.8600, -41.116
1552.8800, -41.115
1552.9000, -41.119
1552.9200, -41.122
1552.9400, -41.121
1552.9600, -41.123
1552.9800, -41.121
1553.0000, -41.123
1553.0200, -41.125
1553.0400, -41.123
1553.0600, -41.132
1553.0800, -41.137
1553.1000, -41.134
1553.1200, -41.136
1553.1400, -41.139
1553.1600, -41.144
1553.1800, -41.149
1553.2000, -41.156
1553.2200, -41.155
1553.2400, -41.158
1553.2600, -41.159
1553.2800, -41.172
1553.3000, -41.172
1553.3200, -41.176
1553.3400, -41.178
1553.3600, -41.177
1553.3800, -41.181
1553.4000, -41.183
1553.4200, -41.176
1553.4400, -41.178
1553.4600, -41.182
1553.4800, -41.191
1553.5000, -41.191
1553.5200, -41.190
1553.5400, -41.188
1553.5600, -41.192
1553.5800, -41.191
1553.6000, -41.199
1553.6200, -41.197
1553.6400, -41.202
1553.6600, -41.205
1553.6800, -41.201
1553.7000, -41.206
1553.7200, -41.203
1553.7400, -41.211
1553.7600, -41.210
1553.7800, -41.212
1553.8000, -41.213
1553.8200, -41.216
1553.8400, -41.218
1553.8600, -41.221
1553.8800, -41.223
1553.9000, -41.222
1553.9200, -41.224
1553.9400, -41.224
1553.9600, -41.235
1553.9800, -41.240
1554.0000, -41.247
1554.0200, -41.251
1554.0400, -41.246
1554.0600, -41.248
1554.0800, -41.252
1554.1000, -41.260
1554.1200, -41.260
1554.1400, -41.266
1554.1600, -41.268
1554.1800, -41.273
1554.2000, -41.277
1554.2200, -41.283
1554.2400, -41.283
1554.2600, -41.285
1554.2800, -41.289
1554.3000, -41.295
1554.3200, -41.299
1554.3400, -41.302
1554.3600, -41.300
1554.3800, -41.294
1554.4000, -41.294
1554.4200, -41.297
1554.4400, -41.294
1554.4600, -41.295
1554.4800, -41.300
1554.5000, -41.299
1554.5200, -41.304
1554.5400, -41.307
1554.5600, -41.305
1554.5800, -41.307
1554.6000, -41.312
1554.6200, -41.313
1554.6400, -41.325
1554.6600, -41.327
1554.6800, -41.325
1554.7000, -41.326
1554.7200, -41.332
1554.7400, -41.330
1554.7600, -41.329
1554.7800, -41.325
1554.8000, -41.331
1554.8200, -41.332
1554.8400, -41.335
1554.8600, -41.346
1554.8800, -41.352
1554.9000, -41.354
1554.9200, -41.348
1554.9400, -41.346
1554.9600, -41.348
1554.9800, -41.349
1555.0000, -41.354
1555.0200, -41.352
1555.0400, -41.350
1555.0600, -41.351
1555.0800, -41.351
1555.1000, -41.356
1555.1200, -41.356
1555.1400, -41.360
1555.1600, -41.366
1555.1800, -41.368
1555.2000, -41.379
1555.2200, -41.382
1555.2400, -41.383
1555.2600, -41.390
1555.2800, -41.386
1555.3000, -41.389
1555.3200, -41.394
1555.3400, -41.393
1555.3600, -41.387
1555.3800, -41.393
1555.4000, -41.394
1555.4200, -41.396
1555.4400, -41.396
1555.4600, -41.393
1555.4800, -41.397
1555.5000, -41.404
1555.5200, -41.411
1555.5400, -41.416
1555.5600, -41.414
1555.5800, -41.421
1555.6000, -41.423
1555.6200, -41.424
1555.6400, -41.426
1555.6600, -41.426
1555.6800, -41.424
1555.7000, -41.427
1555.7200, -41.426
1555.7400, -41.426
1555.7600, -41.430
1555.7800, -41.435
1555.8000, -41.435
1555.8200, -41.438
1555.8400, -41.443
1555.8600, -41.444
1555.8800, -41.453
1555.9000, -41.456
1555.9200, -41.452
1555.9400, -41.460
1555.9600, -41.462
1555.9800, -41.468
1556.0000, -41.475
1556.0200, -41.478
1556.0400, -41.481
1556.0600, -41.489
1556.0800, -41.488
1556.1000, -41.489
1556.1200, -41.493
1556.1400, -41.497
1556.1600, -41.505
1556.1800, -41.500
1556.2000, -41.505
1556.2200, -41.512
1556.2400, -41.514
1556.2600, -41.515
1556.2800, -41.512
1556.3000, -41.514
1556.3200, -41.514
1556.3400, -41.515
1556.3600, -41.514
1556.3800, -41.518
1556.4000, -41.518
1556.4200, -41.530
1556.4400, -41.536
1556.4600, -41.532
1556.4800, -41.538
1556.5000, -41.539
1556.5200, -41.541
1556.5400, -41.545
1556.5600, -41.541
1556.5800, -41.545
1556.6000, -41.543
1556.6200, -41.549
1556.6400, -41.557
1556.6600, -41.559
1556.6800, -41.564
1556.7000, -41.570
1556.7200, -41.573
1556.7400, -41.574
1556.7600, -41.574
1556.7800, -41.584
1556.8000, -41.587
1556.8200, -41.594
1556.8400, -41.597
1556.8600, -41.598
1556.8800, -41.602
1556.9000, -41.606
1556.9200, -41.609
1556.9400, -41.615
1556.9600, -41.616
1556.9800, -41.618
1557.0000, -41.631
1557.0200, -41.634
1557.0400, -41.631
1557.0600, -41.624
1557.0800, -41.625
1557.1000, -41.632
1557.1200, -41.633
1557.1400, -41.638
1557.1600, -41.640
1557.1800, -41.643
1557.2000, -41.649
1557.2200, -41.650
1557.2400, -41.648
1557.2600, -41.654
1557.2800, -41.659
1557.3000, -41.667
1557.3200, -41.672
1557.3400, -41.676
1557.3600, -41.682
1557.3800, -41.684
1557.4000, -41.693
1557.4200, -41.699
1557.4400, -41.700
1557.4600, -41.705
1557.4800, -41.713
1557.5000, -41.715
1557.5200, -41.716
1557.5400, -41.720
1557.5600, -41.723
1557.5800, -41.728
1557.6000, -41.732
1557.6200, -41.737
1557.6400, -41.739
1557.6600, -41.749
1557.6800, -41.759
1557.7000, -41.763
1557.7200, -41.766
1557.7400, -41.773
1557.7600, -41.778
1557.7800, -41.780
1557.8000, -41.785
1557.8200, -41.792
1557.8400, -41.790
1557.8600, -41.798
1557.8800, -41.805
1557.9000, -41.809
1557.9200, -41.816
1557.9400, -41.810
1557.9600, -41.813
1557.9800, -41.822
1558.0000, -41.826
1558.0200, -41.837
1558.0400, -41.842
1558.0600, -41.846
1558.0800, -41.857
1558.1000, -41.864
1558.1200, -41.866
1558.1400, -41.873
1558.1600, -41.876
1558.1800, -41.882
1558.2000, -41.888
1558.2200, -41.892
1558.2400, -41.900
1558.2600, -41.899
1558.2800, -41.907
1558.3000, -41.913
1558.3200, -41.912
1558.3400, -41.913
1558.3600, -41.922
1558.3800, -41.930
1558.4000, -41.932
1558.4200, -41.937
1558.4400, -41.940
1558.4600, -41.944
1558.4800, -41.950
1558.5000, -41.957
1558.5200, -41.966
1558.5400, -41.970
1558.5600, -41.983
1558.5800, -41.986
1558.6000, -41.997
1558.6200, -41.998
1558.6400, -42.004
1558.6600, -42.013
1558.6800, -42.021
1558.7000, -42.028
1558.7200, -42.039
1558.7400, -42.036
1558.7600, -42.040
1558.7800, -42.048
1558.8000, -42.055
1558.8200, -42.066
1558.8400, -42.070
1558.8600, -42.084
1558.8800, -42.090
1558.9000, -42.093
1558.9200, -42.101
1558.9400, -42.105
1558.9600, -42.113
1558.9800, -42.120
1559.0000, -42.128
1559.0200, -42.134
1559.0400, -42.143
1559.0600, -42.149
1559.0800, -42.159
1559.1000, -42.165
1559.1200, -42.173
1559.1400, -42.185
1559.1600, -42.189
1559.1800, -42.197
1559.2000, -42.206
1559.2200, -42.211
1559.2400, -42.220
1559.2600, -42.225
1559.2800, -42.231
1559.3000, -42.239
1559.3200, -42.248
1559.3400, -42.258
1559.3600, -42.263
1559.3800, -42.271
1559.4000, -42.276
1559.4200, -42.285
1559.4400, -42.296
1559.4600, -42.299
1559.4800, -42.316
1559.5000, -42.323
1559.5200, -42.332
1559.5400, -42.345
1559.5600, -42.357
1559.5800, -42.363
1559.6000, -42.371
1559.6200, -42.380
1559.6400, -42.383
1559.6600, -42.388
1559.6800, -42.398
1559.7000, -42.411
1559.7200, -42.418
1559.7400, -42.432
1559.7600, -42.440
1559.7800, -42.450
1559.8000, -42.452
1559.8200, -42.460
1559.8400, -42.469
1559.8600, -42.477
1559.8800, -42.482
1559.9000, -42.491
1559.9200, -42.502
1559.9400, -42.508
1559.9600, -42.521
1559.9800, -42.539
1560.0000, -42.556
1560.0200, -42.562
1560.0400, -42.568
1560.0600, -42.579
1560.0800, -42.589
1560.1000, -42.594
1560.1200, -42.602
1560.1400, -42.613
1560.1600, -42.620
1560.1800, -42.634
1560.2000, -42.648
1560.2200, -42.656
1560.2400, -42.669
1560.2600, -42.684
1560.2800, -42.695
1560.3000, -42.707
1560.3200, -42.722
1560.3400, -42.731
1560.3600, -42.736
1560.3800, -42.743
1560.4000, -42.756
1560.4200, -42.764
1560.4400, -42.777
1560.4600, -42.784
1560.4800, -42.801
1560.5000, -42.818
1560.5200, -42.825
1560.5400, -42.837
1560.5600, -42.847
1560.5800, -42.862
1560.6000, -42.878
1560.6200, -42.888
1560.6400, -42.899
1560.6600, -42.913
1560.6800, -42.927
1560.7000, -42.939
1560.7200, -42.950
1560.7400, -42.963
1560.7600, -42.968
1560.7800, -42.978
1560.8000, -42.987
1560.8200, -42.995
1560.8400, -43.002
1560.8600, -43.020
1560.8800, -43.033
1560.9000, -43.048
1560.9200, -43.052
1560.9400, -43.064
1560.9600, -43.076
1560.9800, -43.082
1561.0000, -43.094
1561.0200, -43.107
1561.0400, -43.112
1561.0600, -43.127
1561.0800, -43.139
1561.1000, -43.152
1561.1200, -43.165
1561.1400, -43.176
1561.1600, -43.194
1561.1800, -43.208
1561.2000, -43.214
1561.2200, -43.232
1561.2400, -43.241
1561.2600, -43.254
1561.2800, -43.270
1561.3000, -43.283
1561.3200, -43.296
1561.3400, -43.312
1561.3600, -43.327
1561.3800, -43.348
1561.4000, -43.353
1561.4200, -43.367
1561.4400, -43.381
1561.4600, -43.396
1561.4800, -43.408
1561.5000, -43.427
1561.5200, -43.442
1561.5400, -43.455
1561.5600, -43.473
1561.5800, -43.484
1561.6000, -43.502
1561.6200, -43.515
1561.6400, -43.526
1561.6600, -43.539
1561.6800, -43.558
1561.7000, -43.572
1561.7200, -43.582
1561.7400, -43.602
1561.7600, -43.623
1561.7800, -43.636
1561.8000, -43.642
1561.8200, -43.658
1561.8400, -43.674
1561.8600, -43.683
1561.8800, -43.697
1561.9000, -43.712
1561.9200, -43.723
1561.9400, -43.739
1561.9600, -43.752
1561.9800, -43.764
1562.0000, -43.777
1562.0200, -43.791
1562.0400, -43.812
1562.0600, -43.825
1562.0800, -43.841
1562.1000, -43.865
1562.1200, -43.877
1562.1400, -43.899
1562.1600, -43.910
1562.1800, -43.928
1562.2000, -43.945
1562.2200, -43.960
1562.2400, -43.976
1562.2600, -44.001
1562.2800, -44.015
1562.3000, -44.019
1562.3200, -44.043
1562.3400, -44.053
1562.3600, -44.071
1562.3800, -44.095
1562.4000, -44.111
1562.4200, -44.127
1562.4400, -44.140
1562.4600, -44.152
1562.4800, -44.173
1562.5000, -44.186
1562.5200, -44.200
1562.5400, -44.209
1562.5600, -44.229
1562.5800, -44.244
1562.6000, -44.260
1562.6200, -44.276
1562.6400, -44.293
1562.6600, -44.311
1562.6800, -44.318
1562.7000, -44.337
1562.7200, -44.356
1562.7400, -44.368
1562.7600, -44.381
1562.7800, -44.400
1562.8000, -44.413
1562.8200, -44.431
1562.8400, -44.445
1562.8600, -44.458
1562.8800, -44.479
1562.9000, -44.496
1562.9200, -44.517
1562.9400, -44.535
1562.9600, -44.549
1562.9800, -44.572
1563.0000, -44.583
1563.0200, -44.610
1563.0400, -44.621
1563.0600, -44.640
1563.0800, -44.656
1563.1000, -44.677
1563.1200, -44.699
1563.1400, -44.715
1563.1600, -44.727
1563.1800, -44.743
1563.2000, -44.764
1563.2200, -44.775
1563.2400, -44.797
1563.2600, -44.815
1563.2800, -44.830
1563.3000, -44.847
1563.3200, -44.865
1563.3400, -44.875
1563.3600, -44.897
1563.3800, -44.916
1563.4000, -44.935
1563.4200, -44.942
1563.4400, -44.965
1563.4600, -44.982
1563.4800, -44.999
1563.5000, -45.019
1563.5200, -45.038
1563.5400, -45.054
1563.5600, -45.067
1563.5800, -45.082
1563.6000, -45.103
1563.6200, -45.121
1563.6400, -45.137
1563.6600, -45.157
1563.6800, -45.172
1563.7000, -45.192
1563.7200, -45.214
1563.7400, -45.236
1563.7600, -45.249
1563.7800, -45.269
1563.8000, -45.287
1563.8200, -45.302
1563.8400, -45.316
1563.8600, -45.345
1563.8800, -45.362
1563.9000, -45.379
1563.9200, -45.400
1563.9400, -45.419
1563.9600, -45.442
1563.9800, -45.460
1564.0000, -45.474
1564.0200, -45.488
1564.0400, -45.507
1564.0600, -45.527
1564.0800, -45.548
1564.1000, -45.566
1564.1200, -45.587
1564.1400, -45.601
1564.1600, -45.618
1564.1800, -45.637
1564.2000, -45.659
1564.2200, -45.674
1564.2400, -45.695
1564.2600, -45.713
1564.2800, -45.727
1564.3000, -45.747
1564.3200, -45.768
1564.3400, -45.783
1564.3600, -45.803
1564.3800, -45.826
1564.4000, -45.844
1564.4200, -45.867
1564.4400, -45.883
1564.4600, -45.899
1564.4800, -45.923
1564.5000, -45.942
1564.5200, -45.959
1564.5400, -45.980
1564.5600, -45.997
1564.5800, -46.017
1564.6000, -46.039
1564.6200, -46.065
1564.6400, -46.079
1564.6600, -46.091
1564.6800, -46.114
1564.7000, -46.133
1564.7200, -46.152
1564.7400, -46.173
1564.7600, -46.188
1564.7800, -46.212
1564.8000, -46.226
1564.8200, -46.247
1564.8400, -46.264
1564.8600, -46.290
1564.8800, -46.310
1564.9000, -46.325
1564.9200, -46.343
1564.9400, -46.374
1564.9600, -46.395
1564.9800, -46.412
1565.0000, -46.427
1565.0200, -46.439
1565.0400, -46.460
1565.0600, -46.484
1565.0800, -46.503
1565.1000, -46.519
1565.1200, -46.541
1565.1400, -46.559
1565.1600, -46.580
1565.1800, -46.597
1565.2000, -46.615
1565.2200, -46.634
1565.2400, -46.656
1565.2600, -46.675
1565.2800, -46.696
1565.3000, -46.717
1565.3200, -46.737
1565.3400, -46.756
1565.3600, -46.774
1565.3800, -46.794
1565.4000, -46.814
1565.4200, -46.832
1565.4400, -46.853
1565.4600, -46.873
1565.4800, -46.900
1565.5000, -46.922
1565.5200, -46.940
1565.5400, -46.951
1565.5600, -46.973
1565.5800, -46.995
1565.6000, -47.013
1565.6200, -47.036
1565.6400, -47.056
1565.6600, -47.074
1565.6800, -47.091
1565.7000, -47.109
1565.7200, -47.131
1565.7400, -47.144
1565.7600, -47.171
1565.7800, -47.188
1565.8000, -47.207
1565.8200, -47.228
1565.8400, -47.248
1565.8600, -47.268
1565.8800, -47.287
1565.9000, -47.304
1565.9200, -47.328
1565.9400, -47.354
1565.9600, -47.371
1565.9800, -47.390
1566.0000, -47.408
1566.0200, -47.428
1566.0400, -47.449
1566.0600, -47.471
1566.0800, -47.487
1566.1000, -47.508
1566.1200, -47.526
1566.1400, -47.543
1566.1600, -47.561
1566.1800, -47.587
1566.2000, -47.604
1566.2200, -47.625
1566.2400, -47.646
1566.2600, -47.664
1566.2800, -47.680
1566.3000, -47.702
1566.3200, -47.718
1566.3400, -47.740
1566.3600, -47.761
1566.3800, -47.790
1566.4000, -47.805
1566.4200, -47.820
1566.4400, -47.841
1566.4600, -47.862
1566.4800, -47.882
1566.5000, -47.901
1566.5200, -47.920
1566.5400, -47.942
1566.5600, -47.962
1566.5800, -47.982
1566.6000, -48.004
1566.6200, -48.021
1566.6400, -48.042
1566.6600, -48.060
1566.6800, -48.077
1566.7000, -48.097
1566.7200, -48.122
1566.7400, -48.137
1566.7600, -48.161
1566.7800, -48.174
1566.8000, -48.199
1566.8200, -48.222
1566.8400, -48.243
1566.8600, -48.266
1566.8800, -48.282
1566.9000, -48.299
1566.9200, -48.316
1566.9400, -48.341
1566.9600, -48.357
1566.9800, -48.373
1567.0000, -48.392
1567.0200, -48.415
1567.0400, -48.438
1567.0600, -48.456
1567.0800, -48.479
1567.1000, -48.498
1567.1200, -48.518
1567.1400, -48.538
1567.1600, -48.558
1567.1800, -48.575
1567.2000, -48.594
1567.2200, -48.614
1567.2400, -48.643
1567.2600, -48.661
1567.2800, -48.677
1567.3000, -48.696
1567.3200, -48.715
1567.3400, -48.736
1567.3600, -48.756
1567.3800, -48.779
1567.4000, -48.798
1567.4200, -48.814
1567.4400, -48.834
1567.4600, -48.857
1567.4800, -48.876
1567.5000, -48.898
1567.5200, -48.922
1567.5400, -48.937
1567.5600, -48.957
1567.5800, -48.973
1567.6000, -48.996
1567.6200, -49.019
1567.6400, -49.036
1567.6600, -49.054
1567.6800, -49.079
1567.7000, -49.097
1567.7200, -49.122
1567.7400, -49.135
1567.7600, -49.158
1567.7800, -49.179
1567.8000, -49.196
1567.8200, -49.214
1567.8400, -49.227
1567.8600, -49.247
1567.8800, -49.266
1567.9000, -49.290
1567.9200, -49.310
1567.9400, -49.326
1567.9600, -49.349
1567.9800, -49.368
1568.0000, -49.385
1568.0200, -49.406
1568.0400, -49.424
1568.0600, -49.453
1568.0800, -49.473
1568.1000, -49.488
1568.1200, -49.506
1568.1400, -49.526
1568.1600, -49.542
1568.1800, -49.566
1568.2000, -49.586
1568.2200, -49.605
1568.2400, -49.625
1568.2600, -49.647
1568.2800, -49.661
1568.3000, -49.686
1568.3200, -49.705
1568.3400, -49.729
1568.3600, -49.744
1568.3800, -49.767
1568.4000, -49.795
1568.4200, -49.805
1568.4400, -49.826
1568.4600, -49.845
1568.4800, -49.862
1568.5000, -49.885
1568.5200, -49.901
1568.5400, -49.922
1568.5600, -49.945
1568.5800, -49.962
1568.6000, -49.983
1568.6200, -50.003
1568.6400, -50.024
1568.6600, -50.043
1568.6800, -50.064
1568.7000, -50.082
1568.7200, -50.099
1568.7400, -50.115
1568.7600, -50.133
1568.7800, -50.158
1568.8000, -50.180
1568.8200, -50.198
1568.8400, -50.218
1568.8600, -50.233
1568.8800, -50.259
1568.9000, -50.274
1568.9200, -50.293
1568.9400, -50.310
1568.9600, -50.326
1568.9800, -50.351
1569.0000, -50.374
1569.0200, -50.391
1569.0400, -50.406
1569.0600, -50.427
1569.0800, -50.448
1569.1000, -50.468
1569.1200, -50.484
1569.1400, -50.510
1569.1600, -50.526
1569.1800, -50.547
1569.2000, -50.568
1569.2200, -50.585
1569.2400, -50.603
1569.2600, -50.626
1569.2800, -50.642
1569.3000, -50.663
1569.3200, -50.676
1569.3400, -50.700
1569.3600, -50.713
1569.3800, -50.731
1569.4000, -50.751
1569.4200, -50.774
1569.4400, -50.791
1569.4600, -50.817
1569.4800, -50.829
1569.5000, -50.851
1569.5200, -50.867
1569.5400, -50.891
1569.5600, -50.904
1569.5800, -50.927
1569.6000, -50.943
1569.6200, -50.958
1569.6400, -50.982
1569.6600, -51.001
1569.6800, -51.022
1569.7000, -51.046
1569.7200, -51.061
1569.7400, -51.073
1569.7600, -51.096
1569.7800, -51.115
1569.8000, -51.132
1569.8200, -51.146
1569.8400, -51.165
1569.8600, -51.186
1569.8800, -51.202
1569.9000, -51.219
1569.9200, -51.241
1569.9400, -51.264
1569.9600, -51.281
1569.9800, -51.299
1570.0000, -51.318
1570.0200, -51.335
1570.0400, -51.356
1570.0600, -51.371
1570.0800, -51.393
1570.1000, -51.412
1570.1200, -51.429
1570.1400, -51.451
1570.1600, -51.468
1570.1800, -51.487
1570.2000, -51.505
1570.2200, -51.526
1570.2400, -51.542
1570.2600, -51.563
1570.2800, -51.576
1570.3000, -51.601
1570.3200, -51.613
1570.3400, -51.637
1570.3600, -51.649
1570.3800, -51.672
1570.4000, -51.689
1570.4200, -51.707
1570.4400, -51.725
1570.4600, -51.743
1570.4800, -51.763
1570.5000, -51.783
1570.5200, -51.795
1570.5400, -51.816
1570.5600, -51.839
1570.5800, -51.853
1570.6000, -51.874
1570.6200, -51.891
1570.6400, -51.903
1570.6600, -51.927
1570.6800, -51.943
1570.7000, -51.964
1570.7200, -51.979
1570.7400, -52.004
1570.7600, -52.018
1570.7800, -52.036
1570.8000, -52.058
1570.8200, -52.075
1570.8400, -52.091
1570.8600, -52.114
1570.8800, -52.135
1570.9000, -52.145
1570.9200, -52.169
1570.9400, -52.182
1570.9600, -52.206
1570.9800, -52.224
1571.0000, -52.235
1571.0200, -52.255
1571.0400, -52.273
1571.0600, -52.297
1571.0800, -52.312
1571.1000, -52.330
1571.1200, -52.346
1571.1400, -52.364
1571.1600, -52.384
1571.1800, -52.400
1571.2000, -52.412
1571.2200, -52.437
1571.2400, -52.448
1571.2600, -52.472
1571.2800, -52.490
1571.3000, -52.514
1571.3200, -52.527
1571.3400, -52.542
1571.3600, -52.566
1571.3800, -52.578
1571.4000, -52.599
1571.4200, -52.613
1571.4400, -52.633
1571.4600, -52.654
1571.4800, -52.665
1571.5000, -52.686
1571.5200, -52.701
1571.5400, -52.726
1571.5600, -52.742
1571.5800, -52.752
1571.6000, -52.770
1571.6200, -52.787
1571.6400, -52.809
1571.6600, -52.823
1571.6800, -52.844
1571.7000, -52.861
1571.7200, -52.876
1571.7400, -52.894
1571.7600, -52.910
1571.7800, -52.926
1571.8000, -52.947
1571.8200, -52.967
1571.8400, -52.981
1571.8600, -52.999
1571.8800, -53.019
1571.9000, -53.036
1571.9200, -53.051
1571.9400, -53.064
1571.9600, -53.086
1571.9800, -53.100
1572.0000, -53.118
1572.0200, -53.145
1572.0400, -53.159
1572.0600, -53.180
1572.0800, -53.196
1572.1000, -53.205
1572.1200, -53.224
1572.1400, -53.240
1572.1600, -53.260
1572.1800, -53.277
1572.2000, -53.289
1572.2200, -53.308
1572.2400, -53.324
1572.2600, -53.345
1572.2800, -53.355
1572.3000, -53.378
1572.3200, -53.392
1572.3400, -53.413
1572.3600, -53.428
1572.3800, -53.447
1572.4000, -53.455
1572.4200, -53.477
1572.4400, -53.499
1572.4600, -53.505
1572.4800, -53.514
1572.5000, -53.544
1572.5200, -53.561
1572.5400, -53.574
1572.5600, -53.593
1572.5800, -53.604
1572.6000, -53.630
1572.6200, -53.635
1572.6400, -53.665
1572.6600, -53.676
1572.6800, -53.689
1572.7000, -53.702
1572.7200, -53.715
1572.7400, -53.738
1572.7600, -53.751
1572.7800, -53.767
1572.8000, -53.791
1572.8200, -53.807
1572.8400, -53.811
1572.8600, -53.838
1572.8800, -53.855
1572.9000, -53.866
1572.9200, -53.887
1572.9400, -53.904
1572.9600, -53.914
1572.9800, -53.933
1573.0000, -53.953
1573.0200, -53.962
1573.0400, -53.984
1573.0600, -53.995
1573.0800, -54.015
1573.1000, -54.024
1573.1200, -54.049
1573.1400, -54.061
1573.1600, -54.078
1573.1800, -54.089
1573.2000, -54.105
1573.2200, -54.125
1573.2400, -54.138
1573.2600, -54.152
1573.2800, -54.171
1573.3000, -54.179
1573.3200, -54.199
1573.3400, -54.223
1573.3600, -54.223
1573.3800, -54.244
1573.4000, -54.267
1573.4200, -54.273
1573.4400, -54.294
1573.4600, -54.308
1573.4800, -54.321
1573.5000, -54.327
1573.5200, -54.356
1573.5400, -54.379
1573.5600, -54.382
1573.5800, -54.403
1573.6000, -54.421
1573.6200, -54.436
1573.6400, -54.456
1573.6600, -54.468
1573.6800, -54.493
1573.7000, -54.498
1573.7200, -54.517
1573.7400, -54.522
1573.7600, -54.541
1573.7800, -54.562
1573.8000, -54.577
1573.8200, -54.587
1573.8400, -54.604
1573.8600, -54.622
1573.8800, -54.628
1573.9000, -54.657
1573.9200, -54.657
1573.9400, -54.673
1573.9600, -54.693
1573.9800, -54.702
1574.0000, -54.718
1574.0200, -54.748
1574.0400, -54.741
1574.0600, -54.768
1574.0800, -54.781
1574.1000, -54.790
1574.1200, -54.814
1574.1400, -54.821
1574.1600, -54.841
1574.1800, -54.852
1574.2000, -54.871
1574.2200, -54.877
1574.2400, -54.895
1574.2600, -54.917
1574.2800, -54.918
1574.3000, -54.954
1574.3200, -54.949
1574.3400, -54.972
1574.3600, -54.994
1574.3800, -54.996
1574.4000, -55.019
1574.4200, -55.030
1574.4400, -55.045
1574.4600, -55.068
1574.4800, -55.072
1574.5000, -55.093
1574.5200, -55.098
1574.5400, -55.117
1574.5600, -55.130
1574.5800, -55.156
1574.6000, -55.159
1574.6200, -55.176
1574.6400, -55.196
1574.6600, -55.199
1574.6800, -55.216
1574.7000, -55.234
1574.7200, -55.242
1574.7400, -55.267
1574.7600, -55.268
1574.7800, -55.288
1574.8000, -55.302
1574.8200, -55.315
1574.8400, -55.327
1574.8600, -55.352
1574.8800, -55.361
1574.9000, -55.368
1574.9200, -55.396
1574.9400, -55.400
1574.9600, -55.424
1574.9800, -55.425
1575.0000, -55.440
1575.0200, -55.458
1575.0400, -55.473
1575.0600, -55.488
1575.0800, -55.490
1575.1000, -55.511
1575.1200, -55.526
1575.1400, -55.545
1575.1600, -55.549
1575.1800, -55.565
1575.2000, -55.589
1575.2200, -55.598
1575.2400, -55.603
1575.2600, -55.623
1575.2800, -55.645
1575.3000, -55.647
1575.3200, -55.673
1575.3400, -55.682
1575.3600, -55.690
1575.3800, -55.700
1575.4000, -55.714
1575.4200, -55.722
1575.4400, -55.749
1575.4600, -55.762
1575.4800, -55.775
1575.5000, -55.793
1575.5200, -55.816
1575.5400, -55.806
1575.5600, -55.819
1575.5800, -55.839
1575.6000, -55.853
1575.6200, -55.863
1575.6400, -55.886
1575.6600, -55.883
1575.6800, -55.906
1575.7000, -55.913
1575.7200, -55.945
1575.7400, -55.939
1575.7600, -55.943
1575.7800, -55.977
1575.8000, -55.984
1575.8200, -55.988
1575.8400, -56.008
1575.8600, -56.019
1575.8800, -56.029
1575.9000, -56.049
1575.9200, -56.067
1575.9400, -56.078
1575.9600, -56.077
1575.9800, -56.100
1576.0000, -56.101
1576.0200, -56.126
1576.0400, -56.142
1576.0600, -56.143
1576.0800, -56.167
1576.1000, -56.178
1576.1200, -56.184
1576.1400, -56.200
1576.1600, -56.203
1576.1800, -56.232
1576.2000, -56.236
1576.2200, -56.261
1576.2400, -56.265
1576.2600, -56.276
1576.2800, -56.287
1576.3000, -56.305
1576.3200, -56.308
1576.3400, -56.328
1576.3600, -56.325
1576.3800, -56.355
1576.4000, -56.357
1576.4200, -56.374
1576.4400, -56.376
1576.4600, -56.391
1576.4800, -56.405
1576.5000, -56.415
1576.5200, -56.424
1576.5400, -56.435
1576.5600, -56.455
1576.5800, -56.455
1576.6000, -56.480
1576.6200, -56.481
1576.6400, -56.509
1576.6600, -56.510
1576.6800, -56.515
1576.7000, -56.539
1576.7200, -56.552
1576.7400, -56.557
1576.7600, -56.569
1576.7800, -56.577
1576.8000, -56.589
1576.8200, -56.597
1576.8400, -56.617
1576.8600, -56.641
1576.8800, -56.627
1576.9000, -56.653
1576.9200, -56.660
1576.9400, -56.663
1576.9600, -56.680
1576.9800, -56.697
1577.0000, -56.714
1577.0200, -56.717
1577.0400, -56.729
1577.0600, -56.744
1577.0800, -56.754
1577.1000, -56.760
1577.1200, -56.781
1577.1400, -56.794
1577.1600, -56.802
1577.1800, -56.802
1577.2000, -56.825
1577.2200, -56.828
1577.2400, -56.843
1577.2600, -56.847
1577.2800, -56.872
1577.3000, -56.865
1577.3200, -56.891
1577.3400, -56.897
1577.3600, -56.913
1577.3800, -56.920
1577.4000, -56.930
1577.4200, -56.938
1577.4400, -56.951
1577.4600, -56.972
1577.4800, -56.971
1577.5000, -56.997
1577.5200, -56.998
1577.5400, -57.007
1577.5600, -57.015
1577.5800, -57.035
1577.6000, -57.041
1577.6200, -57.059
1577.6400, -57.060
1577.6600, -57.074
1577.6800, -57.082
1577.7000, -57.098
1577.7200, -57.101
1577.7400, -57.117
1577.7600, -57.121
1577.7800, -57.133
1577.8000, -57.148
1577.8200, -57.172
1577.8400, -57.166
1577.8600, -57.190
1577.8800, -57.186
1577.9000, -57.186
1577.9200, -57.207
1577.9400, -57.228
1577.9600, -57.247
1577.9800, -57.245
1578.0000, -57.253
1578.0200, -57.277
1578.0400, -57.273
1578.0600, -57.298
1578.0800, -57.310
1578.1000, -57.313
1578.1200, -57.312
1578.1400, -57.339
1578.1600, -57.341
1578.1800, -57.351
1578.2000, -57.351
1578.2200, -57.378
1578.2400, -57.374
1578.2600, -57.388
1578.2800, -57.408
1578.3000, -57.409
1578.3200, -57.426
1578.3400, -57.432
1578.3600, -57.433
1578.3800, -57.469
1578.4000, -57.454
1578.4200, -57.486
1578.4400, -57.488
1578.4600, -57.489
1578.4800, -57.496
1578.5000, -57.513
1578.5200, -57.548
1578.5400, -57.526
1578.5600, -57.530
1578.5800, -57.554
1578.6000, -57.564
1578.6200, -57.592
1578.6400, -57.578
1578.6600, -57.593
1578.6800, -57.599
1578.7000, -57.600
1578.7200, -57.619
1578.7400, -57.630
1578.7600, -57.647
1578.7800, -57.658
1578.8000, -57.661
1578.8200, -57.664
1578.8400, -57.687
1578.8600, -57.686
1578.8800, -57.726
1578.9000, -57.706
1578.9200, -57.718
1578.9400, -57.742
1578.9600, -57.751
1578.9800, -57.755
1579.0000, -57.756
1579.0200, -57.760
1579.0400, -57.793
1579.0600, -57.782
1579.0800, -57.794
1579.1000, -57.813
1579.1200, -57.818
1579.1400, -57.837
1579.1600, -57.838
1579.1800, -57.846
1579.2000, -57.850
1579.2200, -57.873
1579.2400, -57.864
1579.2600, -57.879
1579.2800, -57.892
1579.3000, -57.907
1579.3200, -57.911
1579.3400, -57.913
1579.3600, -57.935
1579.3800, -57.947
1579.4000, -57.953
1579.4200, -57.963
1579.4400, -57.958
1579.4600, -57.977
1579.4800, -57.982
1579.5000, -58.006
1579.5200, -57.995
1579.5400, -58.017
1579.5600, -58.040
1579.5800, -58.013
1579.6000, -58.045
1579.6200, -58.049
1579.6400, -58.072
1579.6600, -58.064
1579.6800, -58.092
1579.7000, -58.092
1579.7200, -58.113
1579.7400, -58.089
1579.7600, -58.125
1579.7800, -58.127
1579.8000, -58.137
1579.8200, -58.130
1579.8400, -58.144
1579.8600, -58.158
1579.8800, -58.173
1579.9000, -58.165
1579.9200, -58.182
1579.9400, -58.194
1579.9600, -58.212
1579.9800, -58.217
1580.0000, -58.217
1580.0200, -58.228
1580.0400, -58.233
1580.0600, -58.241
1580.0800, -58.234
1580.1000, -58.267
1580.1200, -58.282
1580.1400, -58.283
1580.1600, -58.294
1580.1800, -58.283
1580.2000, -58.291
1580.2200, -58.302
1580.2400, -58.329
1580.2600, -58.320
1580.2800, -58.347
1580.3000, -58.348
1580.3200, -58.329
1580.3400, -58.357
1580.3600, -58.392
1580.3800, -58.386
1580.4000, -58.400
1580.4200, -58.391
1580.4400, -58.408
1580.4600, -58.394
1580.4800, -58.422
1580.5000, -58.431
1580.5200, -58.426
1580.5400, -58.462
1580.5600, -58.465
1580.5800, -58.457
1580.6000, -58.465
1580.6200, -58.475
1580.6400, -58.480
1580.6600, -58.504
1580.6800, -58.498
1580.7000, -58.511
1580.7200, -58.527
1580.7400, -58.534
1580.7600, -58.542
1580.7800, -58.556
1580.8000, -58.551
1580.8200, -58.557
1580.8400, -58.576
1580.8600, -58.578
1580.8800, -58.592
1580.9000, -58.584
1580.9200, -58.587
1580.9400, -58.615
1580.9600, -58.607
1580.9800, -58.627
1581.0000, -58.625
1581.0200, -58.654
1581.0400, -58.655
1581.0600, -58.637
1581.0800, -58.659
1581.1000, -58.680
1581.1200, -58.682
1581.1400, -58.674
1581.1600, -58.702
1581.1800, -58.698
1581.2000, -58.712
1581.2200, -58.714
1581.2400, -58.721
1581.2600, -58.745
1581.2800, -58.737
1581.3000, -58.758
1581.3200, -58.761
1581.3400, -58.752
1581.3600, -58.774
1581.3800, -58.768
1581.4000, -58.789
1581.4200, -58.783
1581.4400, -58.801
1581.4600, -58.817
1581.4800, -58.799
1581.5000, -58.823
1581.5200, -58.838
1581.5400, -58.848
1581.5600, -58.849
1581.5800, -58.860
1581.6000, -58.851
1581.6200, -58.866
1581.6400, -58.880
1581.6600, -58.868
1581.6800, -58.918
1581.7000, -58.872
1581.7200, -58.888
1581.7400, -58.915
1581.7600, -58.913
1581.7800, -58.904
1581.8000, -58.938
1581.8200, -58.932
1581.8400, -58.954
1581.8600, -58.957
1581.8800, -58.946
1581.9000, -58.970
1581.9200, -59.001
1581.9400, -58.980
1581.9600, -59.007
1581.9800, -58.995
1582.0000, -58.997
1582.0200, -59.023
1582.0400, -59.009
1582.0600, -59.025
1582.0800, -59.058
1582.1000, -59.048
1582.1200, -59.055
1582.1400, -59.071
1582.1600, -59.068
1582.1800, -59.046
1582.2000, -59.071
1582.2200, -59.090
1582.2400, -59.096
1582.2600, -59.098
1582.2800, -59.108
1582.3000, -59.113
1582.3200, -59.119
1582.3400, -59.162
1582.3600, -59.118
1582.3800, -59.131
1582.4000, -59.169
1582.4200, -59.109
1582.4400, -59.149
1582.4600, -59.159
1582.4800, -59.163
1582.5000, -59.175
1582.5200, -59.181
1582.5400, -59.202
1582.5600, -59.181
1582.5800, -59.206
1582.6000, -59.225
1582.6200, -59.207
1582.6400, -59.243
1582.6600, -59.252
1582.6800, -59.229
1582.7000, -59.222
1582.7200, -59.257
1582.7400, -59.271
1582.7600, -59.265
1582.7800, -59.285
1582.8000, -59.267
1582.8200, -59.304
1582.8400, -59.302
1582.8600, -59.316
1582.8800, -59.301
1582.9000, -59.309
1582.9200, -59.326
1582.9400, -59.347
1582.9600, -59.342
1582.9800, -59.354
1583.0000, -59.355
1583.0200, -59.363
1583.0400, -59.369
1583.0600, -59.385
1583.0800, -59.378
1583.1000, -59.396
1583.1200, -59.413
1583.1400, -59.378
1583.1600, -59.404
1583.1800, -59.408
1583.2000, -59.412
1583.2200, -59.440
1583.2400, -59.425
1583.2600, -59.438
1583.2800, -59.448
1583.3000, -59.461
1583.3200, -59.453
1583.3400, -59.455
1583.3600, -59.468
1583.3800, -59.500
1583.4000, -59.491
1583.4200, -59.469
1583.4400, -59.524
1583.4600, -59.506
1583.4800, -59.517
1583.5000, -59.515
1583.5200, -59.506
1583.5400, -59.546
1583.5600, -59.538
1583.5800, -59.533
1583.6000, -59.548
1583.6200, -59.541
1583.6400, -59.560
1583.6600, -59.551
1583.6800, -59.576
1583.7000, -59.585
1583.7200, -59.602
1583.7400, -59.579
1583.7600, -59.600
1583.7800, -59.621
1583.8000, -59.588
1583.8200, -59.595
1583.8400, -59.668
1583.8600, -59.628
1583.8800, -59.638
1583.9000, -59.628
1583.9200, -59.637
1583.9400, -59.651
1583.9600, -59.675
1583.9800, -59.650
1584.0000, -59.676
1584.0200, -59.690
1584.0400, -59.677
1584.0600, -59.697
1584.0800, -59.688
1584.1000, -59.693
1584.1200, -59.729
1584.1400, -59.700
1584.1600, -59.739
1584.1800, -59.727
1584.2000, -59.739
1584.2200, -59.725
1584.2400, -59.755
1584.2600, -59.723
1584.2800, -59.776
1584.3000, -59.732
1584.3200, -59.782
1584.3400, -59.767
1584.3600, -59.751
1584.3800, -59.790
1584.4000, -59.786
1584.4200, -59.788
1584.4400, -59.803
1584.4600, -59.808
1584.4800, -59.798
1584.5000, -59.818
1584.5200, -59.821
1584.5400, -59.828
1584.5600, -59.840
1584.5800, -59.825
1584.6000, -59.837
1584.6200, -59.846
1584.6400, -59.868
1584.6600, -59.875
1584.6800, -59.855
1584.7000, -59.865
1584.7200, -59.869
1584.7400, -59.896
1584.7600, -59.925
1584.7800, -59.887
1584.8000, -59.893
1584.8200, -59.916
1584.8400, -59.891
1584.8600, -59.926
1584.8800, -59.930
1584.9000, -59.916
1584.9200, -59.937
1584.9400, -59.955
1584.9600, -59.928
1584.9800, -59.959
1585.0000, -59.984
1585.0200, -59.941
1585.0400, -59.961
1585.0600, -59.992
1585.0800, -59.976
1585.1000, -59.974
1585.1200, -59.981
1585.1400, -59.994
1585.1600, -60.012
1585.1800, -60.014
1585.2000, -59.987
1585.2200, -60.051
1585.2400, -60.002
1585.2600, -60.065
1585.2800, -60.029
1585.3000, -60.017
1585.3200, -60.033
1585.3400, -60.041
1585.3600, -60.064
1585.3800, -60.065
1585.4000, -60.056
1585.4200, -60.075
1585.4400, -60.071
1585.4600, -60.077
1585.4800, -60.077
1585.5000, -60.116
1585.5200, -60.067
1585.5400, -60.100
1585.5600, -60.103
1585.5800, -60.107
1585.6000, -60.109
1585.6200, -60.111
1585.6400, -60.129
1585.6600, -60.124
1585.6800, -60.172
1585.7000, -60.123
1585.7200, -60.150
1585.7400, -60.151
1585.7600, -60.134
1585.7800, -60.151
1585.8000, -60.161
1585.8200, -60.174
1585.8400, -60.167
1585.8600, -60.173
1585.8800, -60.167
1585.9000, -60.189
1585.9200, -60.199
1585.9400, -60.207
1585.9600, -60.214
1585.9800, -60.209
1586.0000, -60.209
1586.0200, -60.214
1586.0400, -60.235
1586.0600, -60.224
1586.0800, -60.241
1586.1000, -60.240
1586.1200, -60.239
1586.1400, -60.253
1586.1600, -60.298
1586.1800, -60.223
1586.2000, -60.300
1586.2200, -60.241
1586.2400, -60.283
1586.2600, -60.279
1586.2800, -60.290
1586.3000, -60.319
1586.3200, -60.278
1586.3400, -60.314
1586.3600, -60.312
1586.3800, -60.317
1586.4000, -60.304
1586.4200, -60.316
1586.4400, -60.307
1586.4600, -60.339
1586.4800, -60.344
1586.5000, -60.353
1586.5200, -60.358
1586.5400, -60.345
1586.5600, -60.371
1586.5800, -60.336
1586.6000, -60.371
1586.6200, -60.386
1586.6400, -60.372
1586.6600, -60.400
1586.6800, -60.397
1586.7000, -60.415
1586.7200, -60.387
1586.7400, -60.423
1586.7600, -60.412
1586.7800, -60.426
1586.8000, -60.439
1586.8200, -60.390
1586.8400, -60.440
1586.8600, -60.438
1586.8800, -60.433
1586.9000, -60.436
1586.9200, -60.486
1586.9400, -60.487
1586.9600, -60.443
1586.9800, -60.457
1587.0000, -60.501
1587.0200, -60.444
1587.0400, -60.512
1587.0600, -60.479
1587.0800, -60.492
1587.1000, -60.511
1587.1200, -60.505
1587.1400, -60.520
1587.1600, -60.535
1587.1800, -60.521
1587.2000, -60.526
1587.2200, -60.528
1587.2400, -60.547
1587.2600, -60.555
1587.2800, -60.535
1587.3000, -60.534
1587.3200, -60.559
1587.3400, -60.553
1587.3600, -60.549
1587.3800, -60.572
1587.4000, -60.551
1587.4200, -60.564
1587.4400, -60.571
1587.4600, -60.601
1587.4800, -60.594
1587.5000, -60.599
1587.5200, -60.599
1587.5400, -60.602
1587.5600, -60.629
1587.5800, -60.602
1587.6000, -60.636
1587.6200, -60.591
1587.6400, -60.639
1587.6600, -60.663
1587.6800, -60.662
1587.7000, -60.628
1587.7200, -60.641
1587.7400, -60.659
1587.7600, -60.687
1587.7800, -60.624
1587.8000, -60.690
1587.8200, -60.651
1587.8400, -60.664
1587.8600, -60.688
1587.8800, -60.692
1587.9000, -60.702
1587.9200, -60.695
1587.9400, -60.711
1587.9600, -60.746
1587.9800, -60.697
1588.0000, -60.690
1588.0200, -60.716
1588.0400, -60.720
1588.0600, -60.750
1588.0800, -60.729
1588.1000, -60.743
1588.1200, -60.741
1588.1400, -60.763
1588.1600, -60.747
1588.1800, -60.738
1588.2000, -60.776
1588.2200, -60.772
1588.2400, -60.768
1588.2600, -60.761
1588.2800, -60.771
1588.3000, -60.786
1588.3200, -60.780
1588.3400, -60.785
1588.3600, -60.804
1588.3800, -60.812
1588.4000, -60.825
1588.4200, -60.813
1588.4400, -60.776
1588.4600, -60.838
1588.4800, -60.821
1588.5000, -60.827
1588.5200, -60.835
1588.5400, -60.841
1588.5600, -60.860
1588.5800, -60.816
1588.6000, -60.862
1588.6200, -60.899
1588.6400, -60.824
1588.6600, -60.837
1588.6800, -60.864
1588.7000, -60.935
1588.7200, -60.854
1588.7400, -60.940
1588.7600, -60.828
1588.7800, -60.905
1588.8000, -60.889
1588.8200, -60.929
1588.8400, -60.924
1588.8600, -60.911
1588.8800, -60.927
1588.9000, -60.914
1588.9200, -60.935
1588.9400, -60.921
1588.9600, -60.939
1588.9800, -60.943
1589.0000, -60.949
1589.0200, -60.938
1589.0400, -60.960
1589.0600, -60.972
1589.0800, -60.937
1589.1000, -60.959
1589.1200, -60.977
1589.1400, -60.999
1589.1600, -60.948
1589.1800, -61.018
1589.2000, -60.956
1589.2200, -60.983
1589.2400, -60.967
1589.2600, -61.030
1589.2800, -61.014
1589.3000, -60.973
1589.3200, -61.039
1589.3400, -61.008
1589.3600, -60.999
1589.3800, -61.061
1589.4000, -61.020
1589.4200, -61.015
1589.4400, -61.059
1589.4600, -61.018
1589.4800, -61.040
1589.5000, -61.042
1589.5200, -61.045
1589.5400, -61.061
1589.5600, -61.079
1589.5800, -61.069
1589.6000, -61.056
1589.6200, -61.079
1589.6400, -61.069
1589.6600, -61.085
1589.6800, -61.092
1589.7000, -61.084
1589.7200, -61.098
1589.7400, -61.108
1589.7600, -61.105
1589.7800, -61.112
1589.8000, -61.108
1589.8200, -61.108
1589.8400, -61.114
1589.8600, -61.126
1589.8800, -61.124
1589.9000, -61.160
1589.9200, -61.122
1589.9400, -61.167
1589.9600, -61.160
1589.9800, -61.173
1590.0000, -61.195
1590.0200, -61.179
1590.0400, -61.151
1590.0600, -61.192
1590.0800, -61.181
1590.1000, -61.216
1590.1200, -61.181
1590.1400, -61.157
1590.1600, -61.200
1590.1800, -61.195
1590.2000, -61.195
1590.2200, -61.222
1590.2400, -61.201
1590.2600, -61.220
1590.2800, -61.224
1590.3000, -61.271
1590.3200, -61.202
1590.3400, -61.222
1590.3600, -61.247
1590.3800, -61.251
1590.4000, -61.257
1590.4200, -61.240
1590.4400, -61.284
1590.4600, -61.246
1590.4800, -61.294
1590.5000, -61.254
1590.5200, -61.263
1590.5400, -61.296
1590.5600, -61.301
1590.5800, -61.232
1590.6000, -61.274
1590.6200, -61.315
1590.6400, -61.302
1590.6600, -61.307
1590.6800, -61.288
1590.7000, -61.313
1590.7200, -61.340
1590.7400, -61.346
1590.7600, -61.345
1590.7800, -61.328
1590.8000, -61.336
1590.8200, -61.334
1590.8400, -61.354
1590.8600, -61.348
1590.8800, -61.367
1590.9000, -61.385
1590.9200, -61.385
1590.9400, -61.349
1590.9600, -61.378
1590.9800, -61.393
1591.0000, -61.351
1591.0200, -61.403
1591.0400, -61.388
1591.0600, -61.384
1591.0800, -61.391
1591.1000, -61.403
1591.1200, -61.413
1591.1400, -61.421
1591.1600, -61.439
1591.1800, -61.408
1591.2000, -61.454
1591.2200, -61.447
1591.2400, -61.449
1591.2600, -61.435
1591.2800, -61.460
1591.3000, -61.440
1591.3200, -61.439
1591.3400, -61.498
1591.3600, -61.451
1591.3800, -61.452
1591.4000, -61.499
1591.4200, -61.455
1591.4400, -61.503
1591.4600, -61.498
1591.4800, -61.486
1591.5000, -61.479
1591.5200, -61.495
1591.5400, -61.524
1591.5600, -61.505
1591.5800, -61.495
1591.6000, -61.522
1591.6200, -61.536
1591.6400, -61.508
1591.6600, -61.541
1591.6800, -61.519
1591.7000, -61.551
1591.7200, -61.529
1591.7400, -61.580
1591.7600, -61.511
1591.7800, -61.553
1591.8000, -61.588
1591.8200, -61.508
1591.8400, -61.550
1591.8600, -61.565
1591.8800, -61.581
1591.9000, -61.601
1591.9200, -61.578
1591.9400, -61.602
1591.9600, -61.629
1591.9800, -61.557
1592.0000, -61.594
1592.0200, -61.612
1592.0400, -61.657
1592.0600, -61.616
1592.0800, -61.583
1592.1000, -61.636
1592.1200, -61.640
1592.1400, -61.634
1592.1600, -61.634
1592.1800, -61.601
1592.2000, -61.639
1592.2200, -61.671
1592.2400, -61.648
1592.2600, -61.665
1592.2800, -61.675
1592.3000, -61.679
1592.3200, -61.659
1592.3400, -61.685
1592.3600, -61.684
1592.3800, -61.666
1592.4000, -61.710
1592.4200, -61.657
1592.4400, -61.708
1592.4600, -61.745
1592.4800, -61.691
1592.5000, -61.708
1592.5200, -61.732
1592.5400, -61.686
1592.5600, -61.727
1592.5800, -61.730
1592.6000, -61.724
1592.6200, -61.758
1592.6400, -61.739
1592.6600, -61.726
1592.6800, -61.777
1592.7000, -61.738
1592.7200, -61.737
1592.7400, -61.761
1592.7600, -61.774
1592.7800, -61.764
1592.8000, -61.764
1592.8200, -61.788
1592.8400, -61.785
1592.8600, -61.809
1592.8800, -61.793
1592.9000, -61.789
1592.9200, -61.802
1592.9400, -61.792
1592.9600, -61.805
1592.9800, -61.799
1593.0000, -61.823
1593.0200, -61.840
1593.0400, -61.798
1593.0600, -61.825
1593.0800, -61.862
1593.1000, -61.828
1593.1200, -61.827
1593.1400, -61.876
1593.1600, -61.802
1593.1800, -61.875
1593.2000, -61.849
1593.2200, -61.873
1593.2400, -61.881
1593.2600, -61.869
1593.2800, -61.870
1593.3000, -61.873
1593.3200, -61.866
1593.3400, -61.872
1593.3600, -61.907
1593.3800, -61.879
1593.4000, -61.908
1593.4200, -61.860
1593.4400, -61.934
1593.4600, -61.904
1593.4800, -61.944
1593.5000, -61.889
1593.5200, -61.920
1593.5400, -61.930
1593.5600, -61.935
1593.5800, -61.890
1593.6000, -61.931
1593.6200, -61.955
1593.6400, -61.937
1593.6600, -61.938
1593.6800, -61.923
1593.7000, -61.967
1593.7200, -61.948
1593.7400, -61.971
1593.7600, -61.988
1593.7800, -61.966
1593.8000, -62.009
1593.8200, -61.955
1593.8400, -61.990
1593.8600, -61.998
1593.8800, -61.982
1593.9000, -62.016
1593.9200, -61.987
1593.9400, -62.013
1593.9600, -62.020
1593.9800, -61.981
1594.0000, -62.030
1594.0200, -62.042
1594.0400, -62.048
1594.0600, -62.036
1594.0800, -62.026
1594.1000, -62.058
1594.1200, -62.048
1594.1400, -62.062
1594.1600, -62.027
1594.1800, -62.071
1594.2000, -62.046
1594.2200, -62.066
1594.2400, -62.080
1594.2600, -62.067
1594.2800, -62.096
1594.3000, -62.078
1594.3200, -62.097
1594.3400, -62.099
1594.3600, -62.081
1594.3800, -62.093
1594.4000, -62.121
1594.4200, -62.119
1594.4400, -62.130
1594.4600, -62.074
1594.4800, -62.140
1594.5000, -62.116
1594.5200, -62.102
1594.5400, -62.145
1594.5600, -62.113
1594.5800, -62.204
1594.6000, -62.167
1594.6200, -62.159
1594.6400, -62.146
1594.6600, -62.155
1594.6800, -62.145
1594.7000, -62.165
1594.7200, -62.164
1594.7400, -62.152
1594.7600, -62.193
1594.7800, -62.185
1594.8000, -62.220
1594.8200, -62.249
1594.8400, -62.149
1594.8600, -62.228
1594.8800, -62.176
1594.9000, -62.208
1594.9200, -62.241
1594.9400, -62.175
1594.9600, -62.218
1594.9800, -62.227
1595.0000, -62.246
1595.0200, -62.183
1595.0400, -62.251
1595.0600, -62.257
1595.0800, -62.207
1595.1000, -62.246
1595.1200, -62.262
1595.1400, -62.266
1595.1600, -62.248
1595.1800, -62.299
1595.2000, -62.281
1595.2200, -62.305
1595.2400, -62.286
1595.2600, -62.256
1595.2800, -62.288
1595.3000, -62.318
1595.3200, -62.276
1595.3400, -62.314
1595.3600, -62.322
1595.3800, -62.294
1595.4000, -62.318
1595.4200, -62.289
1595.4400, -62.349
1595.4600, -62.314
1595.4800, -62.371
1595.5000, -62.314
1595.5200, -62.358
1595.5400, -62.330
1595.5600, -62.387
1595.5800, -62.354
1595.6000, -62.345
1595.6200, -62.377
1595.6400, -62.350
1595.6600, -62.347
1595.6800, -62.358
1595.7000, -62.355
1595.7200, -62.382
1595.7400, -62.388
1595.7600, -62.365
1595.7800, -62.399
1595.8000, -62.436
1595.8200, -62.411
1595.8400, -62.397
1595.8600, -62.368
1595.8800, -62.426
1595.9000, -62.408
1595.9200, -62.410
1595.9400, -62.450
1595.9600, -62.411
1595.9800, -62.436
1596.0000, -62.446
1596.0200, -62.442
1596.0400, -62.473
1596.0600, -62.496
1596.0800, -62.450
1596.1000, -62.497
1596.1200, -62.419
1596.1400, -62.477
1596.1600, -62.456
1596.1800, -62.452
1596.2000, -62.505
1596.2200, -62.481
1596.2400, -62.486
1596.2600, -62.437
1596.2800, -62.486
1596.3000, -62.506
1596.3200, -62.514
1596.3400, -62.491
1596.3600, -62.528
1596.3800, -62.541
1596.4000, -62.517
1596.4200, -62.503
1596.4400, -62.523
1596.4600, -62.523
1596.4800, -62.555
1596.5000, -62.498
1596.5200, -62.562
1596.5400, -62.518
1596.5600, -62.535
1596.5800, -62.615
1596.6000, -62.565
1596.6200, -62.558
1596.6400, -62.611
1596.6600, -62.549
1596.6800, -62.597
1596.7000, -62.617
1596.7200, -62.552
1596.7400, -62.584
1596.7600, -62.616
1596.7800, -62.554
1596.8000, -62.603
1596.8200, -62.595
1596.8400, -62.572
1596.8600, -62.641
1596.8800, -62.602
1596.9000, -62.611
1596.9200, -62.625
1596.9400, -62.618
1596.9600, -62.614
1596.9800, -62.591
1597.0000, -62.675
1597.0200, -62.651
1597.0400, -62.645
1597.0600, -62.616
1597.0800, -62.673
1597.1000, -62.618
1597.1200, -62.658
1597.1400, -62.672
1597.1600, -62.686
1597.1800, -62.672
1597.2000, -62.673
1597.2200, -62.731
1597.2400, -62.697
1597.2600, -62.688
1597.2800, -62.732
1597.3000, -62.680
1597.3200, -62.730
1597.3400, -62.700
1597.3600, -62.723
1597.3800, -62.702
1597.4000, -62.720
1597.4200, -62.704
1597.4400, -62.713
1597.4600, -62.750
1597.4800, -62.728
1597.5000, -62.750
1597.5200, -62.748
1597.5400, -62.793
1597.5600, -62.730
1597.5800, -62.724
1597.6000, -62.729
1597.6200, -62.825
1597.6400, -62.783
1597.6600, -62.767
1597.6800, -62.747
1597.7000, -62.749
1597.7200, -62.764
1597.7400, -62.755
1597.7600, -62.767
1597.7800, -62.758
1597.8000, -62.815
1597.8200, -62.777
1597.8400, -62.843
1597.8600, -62.775
1597.8800, -62.854
1597.9000, -62.897
1597.9200, -62.800
1597.9400, -62.849
1597.9600, -62.782
1597.9800, -62.842
1598.0000, -62.852
1598.0200, -62.842
1598.0400, -62.866
1598.0600, -62.844
1598.0800, -62.869
1598.1000, -62.839
1598.1200, -62.852
1598.1400, -62.868
1598.1600, -62.874
1598.1800, -62.848
1598.2000, -62.889
1598.2200, -62.867
1598.2400, -62.926
1598.2600, -62.890
1598.2800, -62.900
1598.3000, -62.908
1598.3200, -62.926
1598.3400, -62.864
1598.3600, -62.931
1598.3800, -62.956
1598.4000, -62.972
1598.4200, -62.925
1598.4400, -62.873
1598.4600, -62.945
1598.4800, -62.942
1598.5000, -62.948
1598.5200, -62.966
1598.5400, -62.976
1598.5600, -62.944
1598.5800, -62.942
1598.6000, -62.942
1598.6200, -62.920
1598.6400, -62.974
1598.6600, -62.944
1598.6800, -63.002
1598.7000, -62.982
1598.7200, -63.004
1598.7400, -62.944
1598.7600, -63.012
1598.7800, -63.004
1598.8000, -63.080
1598.8200, -63.009
1598.8400, -62.972
1598.8600, -63.029
1598.8800, -63.002
1598.9000, -63.012
1598.9200, -63.021
1598.9400, -63.082
1598.9600, -63.120
1598.9800, -63.039
1599.0000, -63.066
1599.0200, -63.021
1599.0400, -63.068
1599.0600, -63.024
1599.0800, -63.063
1599.1000, -63.070
1599.1200, -63.065
1599.1400, -63.047
1599.1600, -63.069
1599.1800, -63.054
1599.2000, -63.075
1599.2200, -63.113
1599.2400, -63.104
1599.2600, -63.072
1599.2800, -63.104
1599.3000, -63.083
1599.3200, -63.149
1599.3400, -63.118
1599.3600, -63.179
1599.3800, -63.120
1599.4000, -63.151
1599.4200, -63.118
1599.4400, -63.138
1599.4600, -63.157
1599.4800, -63.144
1599.5000, -63.136
1599.5200, -63.184
1599.5400, -63.150
1599.5600, -63.178
1599.5800, -63.144
1599.6000, -63.217
1599.6200, -63.183
1599.6400, -63.170
1599.6600, -63.164
1599.6800, -63.227
1599.7000, -63.178
1599.7200, -63.161
1599.7400, -63.230
1599.7600, -63.218
1599.7800, -63.252
1599.8000, -63.212
1599.8200, -63.190
1599.8400, -63.193
1599.8600, -63.256
1599.8800, -63.205
1599.9000, -63.278
1599.9200, -63.245
1599.9400, -63.224
1599.9600, -63.269
1599.9800, -63.288
1600.0000, -63.238
