70BCSV 	
// AQ6370B OPTICAL SPECTRUM ANALYZER //                 
25
"CTRWL",1550.000000
"SPAN", 100.000000
"START WL",1500.000000
"STOP WL",1600.000000
"WLFREQ", 0
"REFL",-28.8
"LSCL", 5.0
"RESLN",0.100
"AVG",   1
"SMPLAUTO",      0
"SMPL",       5001
"SMPLINTVL",0.0200
"HIGH1"
"MEAS"
"LSUNT",0
"NMSKH","OFF"
"RESCOR",0
"RESPARM", 9050
"FREQPARM", 9050






"[TRACE DATA]"
1500.0000, -61.698
1500.0200, -61.720
1500.0400, -61.733
1500.0600, -61.700
1500.0800, -61.708
1500.1000, -61.736
1500.1200, -61.666
1500.1400, -61.701
1500.1600, -61.663
1500.1800, -61.699
1500.2000, -61.661
1500.2200, -61.620
1500.2400, -61.698
1500.2600, -61.602
1500.2800, -61.680
1500.3000, -61.637
1500.3200, -61.608
1500.3400, -61.646
1500.3600, -61.635
1500.3800, -61.618
1500.4000, -61.624
1500.4200, -61.563
1500.4400, -61.576
1500.4600, -61.613
1500.4800, -61.579
1500.5000, -61.586
1500.5200, -61.561
1500.5400, -61.565
1500.5600, -61.541
1500.5800, -61.539
1500.6000, -61.586
1500.6200, -61.568
1500.6400, -61.522
1500.6600, -61.555
1500.6800, -61.498
1500.7000, -61.562
1500.7200, -61.504
1500.7400, -61.536
1500.7600, -61.500
1500.7800, -61.505
1500.8000, -61.489
1500.8200, -61.505
1500.8400, -61.508
1500.8600, -61.467
1500.8800, -61.489
1500.9000, -61.457
1500.9200, -61.468
1500.9400, -61.434
1500.9600, -61.472
1500.9800, -61.443
1501.0000, -61.431
1501.0200, -61.428
1501.0400, -61.416
1501.0600, -61.407
1501.0800, -61.413
1501.1000, -61.449
1501.1200, -61.370
1501.1400, -61.404
1501.1600, -61.382
1501.1800, -61.375
1501.2000, -61.385
1501.2200, -61.340
1501.2400, -61.384
1501.2600, -61.362
1501.2800, -61.357
1501.3000, -61.328
1501.3200, -61.335
1501.3400, -61.382
1501.3600, -61.337
1501.3800, -61.308
1501.4000, -61.326
1501.4200, -61.292
1501.4400, -61.295
1501.4600, -61.337
1501.4800, -61.309
1501.5000, -61.287
1501.5200, -61.244
1501.5400, -61.259
1501.5600, -61.272
1501.5800, -61.253
1501.6000, -61.275
1501.6200, -61.297
1501.6400, -61.248
1501.6600, -61.255
1501.6800, -61.228
1501.7000, -61.234
1501.7200, -61.243
1501.7400, -61.230
1501.7600, -61.224
1501.7800, -61.249
1501.8000, -61.199
1501.8200, -61.188
1501.8400, -61.219
1501.8600, -61.212
1501.8800, -61.203
1501.9000, -61.192
1501.9200, -61.187
1501.9400, -61.198
1501.9600, -61.174
1501.9800, -61.148
1502.0000, -61.152
1502.0200, -61.155
1502.0400, -61.129
1502.0600, -61.129
1502.0800, -61.137
1502.1000, -61.111
1502.1200, -61.086
1502.1400, -61.132
1502.1600, -61.051
1502.1800, -61.110
1502.2000, -61.080
1502.2200, -61.080
1502.2400, -61.063
1502.2600, -61.057
1502.2800, -61.061
1502.3000, -61.035
1502.3200, -61.068
1502.3400, -61.032
1502.3600, -61.028
1502.3800, -61.009
1502.4000, -61.001
1502.4200, -61.062
1502.4400, -61.013
1502.4600, -61.001
1502.4800, -60.975
1502.5000, -60.981
1502.5200, -60.979
1502.5400, -60.980
1502.5600, -60.933
1502.5800, -60.953
1502.6000, -60.951
1502.6200, -60.993
1502.6400, -60.920
1502.6600, -60.936
1502.6800, -60.920
1502.7000, -60.916
1502.7200, -60.920
1502.7400, -60.896
1502.7600, -60.914
1502.7800, -60.913
1502.8000, -60.879
1502.8200, -60.899
1502.8400, -60.885
1502.8600, -60.842
1502.8800, -60.860
1502.9000, -60.854
1502.9200, -60.861
1502.9400, -60.837
1502.9600, -60.872
1502.9800, -60.855
1503.0000, -60.812
1503.0200, -60.797
1503.0400, -60.793
1503.0600, -60.831
1503.0800, -60.776
1503.1000, -60.781
1503.1200, -60.801
1503.1400, -60.766
1503.1600, -60.747
1503.1800, -60.790
1503.2000, -60.765
1503.2200, -60.747
1503.2400, -60.718
1503.2600, -60.715
1503.2800, -60.738
1503.3000, -60.714
1503.3200, -60.709
1503.3400, -60.703
1503.3600, -60.707
1503.3800, -60.721
1503.4000, -60.648
1503.4200, -60.675
1503.4400, -60.683
1503.4600, -60.654
1503.4800, -60.647
1503.5000, -60.688
1503.5200, -60.635
1503.5400, -60.638
1503.5600, -60.634
1503.5800, -60.643
1503.6000, -60.638
1503.6200, -60.599
1503.6400, -60.583
1503.6600, -60.630
1503.6800, -60.587
1503.7000, -60.549
1503.7200, -60.581
1503.7400, -60.573
1503.7600, -60.534
1503.7800, -60.586
1503.8000, -60.551
1503.8200, -60.525
1503.8400, -60.574
1503.8600, -60.531
1503.8800, -60.501
1503.9000, -60.542
1503.9200, -60.539
1503.9400, -60.512
1503.9600, -60.484
1503.9800, -60.496
1504.0000, -60.469
1504.0200, -60.489
1504.0400, -60.458
1504.0600, -60.482
1504.0800, -60.451
1504.1000, -60.430
1504.1200, -60.434
1504.1400, -60.439
1504.1600, -60.418
1504.1800, -60.395
1504.2000, -60.398
1504.2200, -60.387
1504.2400, -60.406
1504.2600, -60.385
1504.2800, -60.376
1504.3000, -60.373
1504.3200, -60.353
1504.3400, -60.352
1504.3600, -60.370
1504.3800, -60.329
1504.4000, -60.374
1504.4200, -60.336
1504.4400, -60.304
1504.4600, -60.328
1504.4800, -60.315
1504.5000, -60.273
1504.5200, -60.279
1504.5400, -60.308
1504.5600, -60.258
1504.5800, -60.266
1504.6000, -60.248
1504.6200, -60.266
1504.6400, -60.240
1504.6600, -60.232
1504.6800, -60.231
1504.7000, -60.231
1504.7200, -60.196
1504.7400, -60.224
1504.7600, -60.239
1504.7800, -60.195
1504.8000, -60.201
1504.8200, -60.226
1504.8400, -60.140
1504.8600, -60.158
1504.8800, -60.215
1504.9000, -60.150
1504.9200, -60.157
1504.9400, -60.122
1504.9600, -60.132
1504.9800, -60.149
1505.0000, -60.127
1505.0200, -60.078
1505.0400, -60.123
1505.0600, -60.084
1505.0800, -60.073
1505.1000, -60.066
1505.1200, -60.062
1505.1400, -60.071
1505.1600, -60.068
1505.1800, -60.024
1505.2000, -60.036
1505.2200, -60.035
1505.2400, -60.043
1505.2600, -59.980
1505.2800, -59.985
1505.3000, -59.980
1505.3200, -59.981
1505.3400, -59.967
1505.3600, -59.958
1505.3800, -59.964
1505.4000, -59.965
1505.4200, -59.926
1505.4400, -59.928
1505.4600, -59.932
1505.4800, -59.935
1505.5000, -59.923
1505.5200, -59.891
1505.5400, -59.894
1505.5600, -59.903
1505.5800, -59.897
1505.6000, -59.865
1505.6200, -59.866
1505.6400, -59.877
1505.6600, -59.858
1505.6800, -59.856
1505.7000, -59.845
1505.7200, -59.844
1505.7400, -59.835
1505.7600, -59.811
1505.7800, -59.818
1505.8000, -59.809
1505.8200, -59.802
1505.8400, -59.814
1505.8600, -59.784
1505.8800, -59.772
1505.9000, -59.775
1505.9200, -59.762
1505.9400, -59.752
1505.9600, -59.732
1505.9800, -59.730
1506.0000, -59.737
1506.0200, -59.717
1506.0400, -59.708
1506.0600, -59.689
1506.0800, -59.696
1506.1000, -59.688
1506.1200, -59.677
1506.1400, -59.675
1506.1600, -59.662
1506.1800, -59.657
1506.2000, -59.638
1506.2200, -59.635
1506.2400, -59.627
1506.2600, -59.607
1506.2800, -59.609
1506.3000, -59.610
1506.3200, -59.599
1506.3400, -59.584
1506.3600, -59.567
1506.3800, -59.573
1506.4000, -59.556
1506.4200, -59.562
1506.4400, -59.544
1506.4600, -59.556
1506.4800, -59.539
1506.5000, -59.535
1506.5200, -59.510
1506.5400, -59.511
1506.5600, -59.493
1506.5800, -59.489
1506.6000, -59.488
1506.6200, -59.465
1506.6400, -59.473
1506.6600, -59.457
1506.6800, -59.440
1506.7000, -59.456
1506.7200, -59.454
1506.7400, -59.435
1506.7600, -59.408
1506.7800, -59.429
1506.8000, -59.405
1506.8200, -59.411
1506.8400, -59.388
1506.8600, -59.384
1506.8800, -59.397
1506.9000, -59.369
1506.9200, -59.344
1506.9400, -59.358
1506.9600, -59.344
1506.9800, -59.328
1507.0000, -59.342
1507.0200, -59.303
1507.0400, -59.305
1507.0600, -59.291
1507.0800, -59.316
1507.1000, -59.301
1507.1200, -59.267
1507.1400, -59.268
1507.1600, -59.255
1507.1800, -59.236
1507.2000, -59.249
1507.2200, -59.242
1507.2400, -59.235
1507.2600, -59.214
1507.2800, -59.217
1507.3000, -59.200
1507.3200, -59.191
1507.3400, -59.197
1507.3600, -59.182
1507.3800, -59.153
1507.4000, -59.175
1507.4200, -59.157
1507.4400, -59.151
1507.4600, -59.138
1507.4800, -59.124
1507.5000, -59.124
1507.5200, -59.121
1507.5400, -59.090
1507.5600, -59.080
1507.5800, -59.084
1507.6000, -59.082
1507.6200, -59.072
1507.6400, -59.068
1507.6600, -59.058
1507.6800, -59.050
1507.7000, -59.043
1507.7200, -59.025
1507.7400, -59.026
1507.7600, -59.016
1507.7800, -59.012
1507.8000, -58.998
1507.8200, -59.021
1507.8400, -58.963
1507.8600, -58.973
1507.8800, -58.966
1507.9000, -58.938
1507.9200, -58.948
1507.9400, -58.949
1507.9600, -58.925
1507.9800, -58.930
1508.0000, -58.905
1508.0200, -58.887
1508.0400, -58.894
1508.0600, -58.890
1508.0800, -58.880
1508.1000, -58.883
1508.1200, -58.855
1508.1400, -58.831
1508.1600, -58.845
1508.1800, -58.834
1508.2000, -58.820
1508.2200, -58.809
1508.2400, -58.800
1508.2600, -58.803
1508.2800, -58.804
1508.3000, -58.788
1508.3200, -58.780
1508.3400, -58.764
1508.3600, -58.785
1508.3800, -58.744
1508.4000, -58.753
1508.4200, -58.759
1508.4400, -58.725
1508.4600, -58.720
1508.4800, -58.706
1508.5000, -58.685
1508.5200, -58.672
1508.5400, -58.691
1508.5600, -58.681
1508.5800, -58.683
1508.6000, -58.658
1508.6200, -58.661
1508.6400, -58.639
1508.6600, -58.642
1508.6800, -58.628
1508.7000, -58.628
1508.7200, -58.630
1508.7400, -58.596
1508.7600, -58.600
1508.7800, -58.580
1508.8000, -58.598
1508.8200, -58.560
1508.8400, -58.567
1508.8600, -58.576
1508.8800, -58.527
1508.9000, -58.545
1508.9200, -58.518
1508.9400, -58.506
1508.9600, -58.493
1508.9800, -58.503
1509.0000, -58.476
1509.0200, -58.487
1509.0400, -58.467
1509.0600, -58.450
1509.0800, -58.467
1509.1000, -58.448
1509.1200, -58.418
1509.1400, -58.436
1509.1600, -58.399
1509.1800, -58.406
1509.2000, -58.389
1509.2200, -58.384
1509.2400, -58.387
1509.2600, -58.390
1509.2800, -58.347
1509.3000, -58.350
1509.3200, -58.346
1509.3400, -58.335
1509.3600, -58.317
1509.3800, -58.306
1509.4000, -58.306
1509.4200, -58.301
1509.4400, -58.290
1509.4600, -58.288
1509.4800, -58.269
1509.5000, -58.259
1509.5200, -58.240
1509.5400, -58.239
1509.5600, -58.256
1509.5800, -58.224
1509.6000, -58.215
1509.6200, -58.190
1509.6400, -58.194
1509.6600, -58.198
1509.6800, -58.184
1509.7000, -58.158
1509.7200, -58.174
1509.7400, -58.158
1509.7600, -58.136
1509.7800, -58.123
1509.8000, -58.149
1509.8200, -58.103
1509.8400, -58.099
1509.8600, -58.089
1509.8800, -58.071
1509.9000, -58.082
1509.9200, -58.056
1509.9400, -58.058
1509.9600, -58.078
1509.9800, -58.042
1510.0000, -58.014
1510.0200, -58.012
1510.0400, -58.010
1510.0600, -58.001
1510.0800, -57.990
1510.1000, -57.988
1510.1200, -57.966
1510.1400, -57.969
1510.1600, -57.943
1510.1800, -57.939
1510.2000, -57.928
1510.2200, -57.925
1510.2400, -57.933
1510.2600, -57.898
1510.2800, -57.906
1510.3000, -57.874
1510.3200, -57.873
1510.3400, -57.851
1510.3600, -57.833
1510.3800, -57.847
1510.4000, -57.836
1510.4200, -57.806
1510.4400, -57.793
1510.4600, -57.809
1510.4800, -57.789
1510.5000, -57.773
1510.5200, -57.771
1510.5400, -57.751
1510.5600, -57.750
1510.5800, -57.733
1510.6000, -57.712
1510.6200, -57.719
1510.6400, -57.710
1510.6600, -57.686
1510.6800, -57.677
1510.7000, -57.677
1510.7200, -57.648
1510.7400, -57.648
1510.7600, -57.620
1510.7800, -57.633
1510.8000, -57.607
1510.8200, -57.578
1510.8400, -57.577
1510.8600, -57.579
1510.8800, -57.569
1510.9000, -57.565
1510.9200, -57.554
1510.9400, -57.522
1510.9600, -57.543
1510.9800, -57.518
1511.0000, -57.501
1511.0200, -57.490
1511.0400, -57.469
1511.0600, -57.470
1511.0800, -57.449
1511.1000, -57.446
1511.1200, -57.452
1511.1400, -57.421
1511.1600, -57.415
1511.1800, -57.401
1511.2000, -57.389
1511.2200, -57.390
1511.2400, -57.369
1511.2600, -57.351
1511.2800, -57.368
1511.3000, -57.331
1511.3200, -57.324
1511.3400, -57.309
1511.3600, -57.305
1511.3800, -57.281
1511.4000, -57.273
1511.4200, -57.273
1511.4400, -57.258
1511.4600, -57.246
1511.4800, -57.230
1511.5000, -57.227
1511.5200, -57.209
1511.5400, -57.185
1511.5600, -57.216
1511.5800, -57.168
1511.6000, -57.163
1511.6200, -57.176
1511.6400, -57.132
1511.6600, -57.134
1511.6800, -57.127
1511.7000, -57.107
1511.7200, -57.113
1511.7400, -57.087
1511.7600, -57.075
1511.7800, -57.039
1511.8000, -57.047
1511.8200, -57.055
1511.8400, -57.034
1511.8600, -56.996
1511.8800, -57.012
1511.9000, -56.983
1511.9200, -56.982
1511.9400, -56.969
1511.9600, -56.951
1511.9800, -56.954
1512.0000, -56.921
1512.0200, -56.928
1512.0400, -56.907
1512.0600, -56.901
1512.0800, -56.885
1512.1000, -56.861
1512.1200, -56.872
1512.1400, -56.859
1512.1600, -56.846
1512.1800, -56.833
1512.2000, -56.839
1512.2200, -56.819
1512.2400, -56.807
1512.2600, -56.789
1512.2800, -56.762
1512.3000, -56.766
1512.3200, -56.759
1512.3400, -56.749
1512.3600, -56.728
1512.3800, -56.726
1512.4000, -56.716
1512.4200, -56.706
1512.4400, -56.700
1512.4600, -56.680
1512.4800, -56.672
1512.5000, -56.664
1512.5200, -56.646
1512.5400, -56.643
1512.5600, -56.621
1512.5800, -56.614
1512.6000, -56.587
1512.6200, -56.586
1512.6400, -56.573
1512.6600, -56.561
1512.6800, -56.544
1512.7000, -56.534
1512.7200, -56.511
1512.7400, -56.510
1512.7600, -56.502
1512.7800, -56.482
1512.8000, -56.467
1512.8200, -56.469
1512.8400, -56.454
1512.8600, -56.451
1512.8800, -56.431
1512.9000, -56.420
1512.9200, -56.400
1512.9400, -56.392
1512.9600, -56.384
1512.9800, -56.366
1513.0000, -56.363
1513.0200, -56.343
1513.0400, -56.334
1513.0600, -56.319
1513.0800, -56.319
1513.1000, -56.298
1513.1200, -56.289
1513.1400, -56.278
1513.1600, -56.268
1513.1800, -56.257
1513.2000, -56.246
1513.2200, -56.235
1513.2400, -56.206
1513.2600, -56.217
1513.2800, -56.196
1513.3000, -56.184
1513.3200, -56.173
1513.3400, -56.171
1513.3600, -56.136
1513.3800, -56.134
1513.4000, -56.119
1513.4200, -56.109
1513.4400, -56.086
1513.4600, -56.088
1513.4800, -56.079
1513.5000, -56.066
1513.5200, -56.051
1513.5400, -56.038
1513.5600, -56.029
1513.5800, -56.017
1513.6000, -55.993
1513.6200, -55.976
1513.6400, -55.966
1513.6600, -55.956
1513.6800, -55.941
1513.7000, -55.940
1513.7200, -55.917
1513.7400, -55.892
1513.7600, -55.887
1513.7800, -55.887
1513.8000, -55.883
1513.8200, -55.860
1513.8400, -55.831
1513.8600, -55.836
1513.8800, -55.813
1513.9000, -55.801
1513.9200, -55.797
1513.9400, -55.770
1513.9600, -55.767
1513.9800, -55.735
1514.0000, -55.734
1514.0200, -55.726
1514.0400, -55.713
1514.0600, -55.700
1514.0800, -55.694
1514.1000, -55.673
1514.1200, -55.662
1514.1400, -55.662
1514.1600, -55.640
1514.1800, -55.624
1514.2000, -55.605
1514.2200, -55.606
1514.2400, -55.583
1514.2600, -55.576
1514.2800, -55.560
1514.3000, -55.553
1514.3200, -55.514
1514.3400, -55.524
1514.3600, -55.512
1514.3800, -55.494
1514.4000, -55.489
1514.4200, -55.478
1514.4400, -55.447
1514.4600, -55.450
1514.4800, -55.432
1514.5000, -55.406
1514.5200, -55.406
1514.5400, -55.384
1514.5600, -55.370
1514.5800, -55.366
1514.6000, -55.335
1514.6200, -55.337
1514.6400, -55.326
1514.6600, -55.319
1514.6800, -55.274
1514.7000, -55.266
1514.7200, -55.270
1514.7400, -55.250
1514.7600, -55.235
1514.7800, -55.217
1514.8000, -55.210
1514.8200, -55.194
1514.8400, -55.187
1514.8600, -55.154
1514.8800, -55.160
1514.9000, -55.134
1514.9200, -55.104
1514.9400, -55.110
1514.9600, -55.102
1514.9800, -55.088
1515.0000, -55.061
1515.0200, -55.057
1515.0400, -55.048
1515.0600, -55.039
1515.0800, -55.013
1515.1000, -55.004
1515.1200, -54.999
1515.1400, -54.960
1515.1600, -54.955
1515.1800, -54.955
1515.2000, -54.928
1515.2200, -54.906
1515.2400, -54.911
1515.2600, -54.879
1515.2800, -54.862
1515.3000, -54.863
1515.3200, -54.845
1515.3400, -54.830
1515.3600, -54.824
1515.3800, -54.806
1515.4000, -54.788
1515.4200, -54.773
1515.4400, -54.765
1515.4600, -54.742
1515.4800, -54.729
1515.5000, -54.707
1515.5200, -54.698
1515.5400, -54.676
1515.5600, -54.667
1515.5800, -54.644
1515.6000, -54.649
1515.6200, -54.623
1515.6400, -54.606
1515.6600, -54.592
1515.6800, -54.579
1515.7000, -54.567
1515.7200, -54.545
1515.7400, -54.533
1515.7600, -54.515
1515.7800, -54.502
1515.8000, -54.473
1515.8200, -54.478
1515.8400, -54.464
1515.8600, -54.433
1515.8800, -54.427
1515.9000, -54.425
1515.9200, -54.395
1515.9400, -54.385
1515.9600, -54.361
1515.9800, -54.358
1516.0000, -54.337
1516.0200, -54.325
1516.0400, -54.309
1516.0600, -54.297
1516.0800, -54.277
1516.1000, -54.257
1516.1200, -54.245
1516.1400, -54.218
1516.1600, -54.210
1516.1800, -54.199
1516.2000, -54.175
1516.2200, -54.159
1516.2400, -54.147
1516.2600, -54.128
1516.2800, -54.114
1516.3000, -54.115
1516.3200, -54.094
1516.3400, -54.077
1516.3600, -54.060
1516.3800, -54.036
1516.4000, -54.025
1516.4200, -53.997
1516.4400, -53.986
1516.4600, -53.962
1516.4800, -53.930
1516.5000, -53.920
1516.5200, -53.914
1516.5400, -53.905
1516.5600, -53.888
1516.5800, -53.861
1516.6000, -53.848
1516.6200, -53.822
1516.6400, -53.817
1516.6600, -53.800
1516.6800, -53.776
1516.7000, -53.767
1516.7200, -53.740
1516.7400, -53.710
1516.7600, -53.707
1516.7800, -53.702
1516.8000, -53.682
1516.8200, -53.653
1516.8400, -53.645
1516.8600, -53.623
1516.8800, -53.613
1516.9000, -53.585
1516.9200, -53.575
1516.9400, -53.545
1516.9600, -53.541
1516.9800, -53.523
1517.0000, -53.502
1517.0200, -53.493
1517.0400, -53.459
1517.0600, -53.447
1517.0800, -53.426
1517.1000, -53.408
1517.1200, -53.392
1517.1400, -53.377
1517.1600, -53.355
1517.1800, -53.341
1517.2000, -53.315
1517.2200, -53.299
1517.2400, -53.288
1517.2600, -53.269
1517.2800, -53.252
1517.3000, -53.235
1517.3200, -53.215
1517.3400, -53.202
1517.3600, -53.176
1517.3800, -53.152
1517.4000, -53.139
1517.4200, -53.110
1517.4400, -53.084
1517.4600, -53.072
1517.4800, -53.064
1517.5000, -53.044
1517.5200, -53.008
1517.5400, -52.991
1517.5600, -52.978
1517.5800, -52.964
1517.6000, -52.952
1517.6200, -52.927
1517.6400, -52.900
1517.6600, -52.872
1517.6800, -52.851
1517.7000, -52.845
1517.7200, -52.828
1517.7400, -52.808
1517.7600, -52.755
1517.7800, -52.749
1517.8000, -52.733
1517.8200, -52.721
1517.8400, -52.705
1517.8600, -52.679
1517.8800, -52.664
1517.9000, -52.641
1517.9200, -52.623
1517.9400, -52.602
1517.9600, -52.582
1517.9800, -52.553
1518.0000, -52.535
1518.0200, -52.506
1518.0400, -52.487
1518.0600, -52.477
1518.0800, -52.454
1518.1000, -52.438
1518.1200, -52.417
1518.1400, -52.385
1518.1600, -52.365
1518.1800, -52.350
1518.2000, -52.334
1518.2200, -52.314
1518.2400, -52.291
1518.2600, -52.271
1518.2800, -52.249
1518.3000, -52.207
1518.3200, -52.191
1518.3400, -52.171
1518.3600, -52.151
1518.3800, -52.125
1518.4000, -52.120
1518.4200, -52.086
1518.4400, -52.070
1518.4600, -52.033
1518.4800, -52.011
1518.5000, -51.994
1518.5200, -51.966
1518.5400, -51.950
1518.5600, -51.931
1518.5800, -51.887
1518.6000, -51.880
1518.6200, -51.855
1518.6400, -51.839
1518.6600, -51.822
1518.6800, -51.788
1518.7000, -51.754
1518.7200, -51.741
1518.7400, -51.715
1518.7600, -51.702
1518.7800, -51.677
1518.8000, -51.655
1518.8200, -51.632
1518.8400, -51.608
1518.8600, -51.582
1518.8800, -51.566
1518.9000, -51.543
1518.9200, -51.511
1518.9400, -51.493
1518.9600, -51.462
1518.9800, -51.430
1519.0000, -51.419
1519.0200, -51.388
1519.0400, -51.364
1519.0600, -51.350
1519.0800, -51.315
1519.1000, -51.298
1519.1200, -51.269
1519.1400, -51.244
1519.1600, -51.219
1519.1800, -51.193
1519.2000, -51.171
1519.2200, -51.143
1519.2400, -51.109
1519.2600, -51.084
1519.2800, -51.057
1519.3000, -51.028
1519.3200, -51.000
1519.3400, -50.985
1519.3600, -50.970
1519.3800, -50.933
1519.4000, -50.903
1519.4200, -50.874
1519.4400, -50.834
1519.4600, -50.805
1519.4800, -50.790
1519.5000, -50.766
1519.5200, -50.729
1519.5400, -50.703
1519.5600, -50.683
1519.5800, -50.642
1519.6000, -50.642
1519.6200, -50.607
1519.6400, -50.552
1519.6600, -50.528
1519.6800, -50.498
1519.7000, -50.490
1519.7200, -50.469
1519.7400, -50.438
1519.7600, -50.412
1519.7800, -50.387
1519.8000, -50.358
1519.8200, -50.317
1519.8400, -50.288
1519.8600, -50.264
1519.8800, -50.244
1519.9000, -50.203
1519.9200, -50.175
1519.9400, -50.151
1519.9600, -50.119
1519.9800, -50.094
1520.0000, -50.068
1520.0200, -50.027
1520.0400, -50.001
1520.0600, -49.975
1520.0800, -49.948
1520.1000, -49.917
1520.1200, -49.885
1520.1400, -49.852
1520.1600, -49.825
1520.1800, -49.781
1520.2000, -49.752
1520.2200, -49.718
1520.2400, -49.697
1520.2600, -49.662
1520.2800, -49.629
1520.3000, -49.598
1520.3200, -49.567
1520.3400, -49.530
1520.3600, -49.496
1520.3800, -49.476
1520.4000, -49.421
1520.4200, -49.414
1520.4400, -49.371
1520.4600, -49.340
1520.4800, -49.315
1520.5000, -49.277
1520.5200, -49.242
1520.5400, -49.208
1520.5600, -49.192
1520.5800, -49.139
1520.6000, -49.117
1520.6200, -49.052
1520.6400, -49.042
1520.6600, -49.019
1520.6800, -48.995
1520.7000, -48.956
1520.7200, -48.922
1520.7400, -48.887
1520.7600, -48.854
1520.7800, -48.821
1520.8000, -48.786
1520.8200, -48.755
1520.8400, -48.704
1520.8600, -48.672
1520.8800, -48.638
1520.9000, -48.605
1520.9200, -48.565
1520.9400, -48.538
1520.9600, -48.498
1520.9800, -48.462
1521.0000, -48.426
1521.0200, -48.396
1521.0400, -48.364
1521.0600, -48.329
1521.0800, -48.295
1521.1000, -48.256
1521.1200, -48.200
1521.1400, -48.176
1521.1600, -48.139
1521.1800, -48.108
1521.2000, -48.071
1521.2200, -48.043
1521.2400, -47.993
1521.2600, -47.973
1521.2800, -47.900
1521.3000, -47.864
1521.3200, -47.841
1521.3400, -47.793
1521.3600, -47.772
1521.3800, -47.722
1521.4000, -47.691
1521.4200, -47.641
1521.4400, -47.625
1521.4600, -47.584
1521.4800, -47.550
1521.5000, -47.505
1521.5200, -47.447
1521.5400, -47.428
1521.5600, -47.385
1521.5800, -47.348
1521.6000, -47.301
1521.6200, -47.268
1521.6400, -47.233
1521.6600, -47.196
1521.6800, -47.156
1521.7000, -47.120
1521.7200, -47.069
1521.7400, -47.039
1521.7600, -46.999
1521.7800, -46.952
1521.8000, -46.907
1521.8200, -46.876
1521.8400, -46.836
1521.8600, -46.798
1521.8800, -46.768
1521.9000, -46.721
1521.9200, -46.677
1521.9400, -46.633
1521.9600, -46.602
1521.9800, -46.565
1522.0000, -46.525
1522.0200, -46.488
1522.0400, -46.445
1522.0600, -46.390
1522.0800, -46.356
1522.1000, -46.310
1522.1200, -46.280
1522.1400, -46.234
1522.1600, -46.205
1522.1800, -46.153
1522.2000, -46.119
1522.2200, -46.066
1522.2400, -46.032
1522.2600, -45.985
1522.2800, -45.935
1522.3000, -45.906
1522.3200, -45.862
1522.3400, -45.816
1522.3600, -45.775
1522.3800, -45.744
1522.4000, -45.702
1522.4200, -45.656
1522.4400, -45.599
1522.4600, -45.553
1522.4800, -45.531
1522.5000, -45.468
1522.5200, -45.442
1522.5400, -45.403
1522.5600, -45.363
1522.5800, -45.321
1522.6000, -45.277
1522.6200, -45.237
1522.6400, -45.194
1522.6600, -45.151
1522.6800, -45.110
1522.7000, -45.066
1522.7200, -45.021
1522.7400, -44.976
1522.7600, -44.938
1522.7800, -44.898
1522.8000, -44.853
1522.8200, -44.822
1522.8400, -44.779
1522.8600, -44.729
1522.8800, -44.691
1522.9000, -44.656
1522.9200, -44.607
1522.9400, -44.564
1522.9600, -44.522
1522.9800, -44.478
1523.0000, -44.429
1523.0200, -44.398
1523.0400, -44.352
1523.0600, -44.321
1523.0800, -44.279
1523.1000, -44.233
1523.1200, -44.184
1523.1400, -44.140
1523.1600, -44.091
1523.1800, -44.056
1523.2000, -44.007
1523.2200, -43.968
1523.2400, -43.923
1523.2600, -43.884
1523.2800, -43.837
1523.3000, -43.793
1523.3200, -43.751
1523.3400, -43.713
1523.3600, -43.662
1523.3800, -43.618
1523.4000, -43.562
1523.4200, -43.531
1523.4400, -43.491
1523.4600, -43.450
1523.4800, -43.406
1523.5000, -43.366
1523.5200, -43.321
1523.5400, -43.281
1523.5600, -43.236
1523.5800, -43.197
1523.6000, -43.151
1523.6200, -43.110
1523.6400, -43.070
1523.6600, -43.025
1523.6800, -42.985
1523.7000, -42.945
1523.7200, -42.899
1523.7400, -42.862
1523.7600, -42.821
1523.7800, -42.773
1523.8000, -42.731
1523.8200, -42.695
1523.8400, -42.654
1523.8600, -42.611
1523.8800, -42.566
1523.9000, -42.523
1523.9200, -42.484
1523.9400, -42.438
1523.9600, -42.399
1523.9800, -42.357
1524.0000, -42.316
1524.0200, -42.278
1524.0400, -42.236
1524.0600, -42.193
1524.0800, -42.148
1524.1000, -42.104
1524.1200, -42.067
1524.1400, -42.023
1524.1600, -41.983
1524.1800, -41.936
1524.2000, -41.896
1524.2200, -41.854
1524.2400, -41.812
1524.2600, -41.772
1524.2800, -41.734
1524.3000, -41.689
1524.3200, -41.647
1524.3400, -41.606
1524.3600, -41.563
1524.3800, -41.523
1524.4000, -41.482
1524.4200, -41.442
1524.4400, -41.404
1524.4600, -41.365
1524.4800, -41.324
1524.5000, -41.281
1524.5200, -41.238
1524.5400, -41.197
1524.5600, -41.160
1524.5800, -41.121
1524.6000, -41.081
1524.6200, -41.043
1524.6400, -41.001
1524.6600, -40.958
1524.6800, -40.916
1524.7000, -40.876
1524.7200, -40.835
1524.7400, -40.797
1524.7600, -40.758
1524.7800, -40.721
1524.8000, -40.679
1524.8200, -40.638
1524.8400, -40.597
1524.8600, -40.555
1524.8800, -40.514
1524.9000, -40.473
1524.9200, -40.434
1524.9400, -40.390
1524.9600, -40.351
1524.9800, -40.312
1525.0000, -40.270
1525.0200, -40.229
1525.0400, -40.187
1525.0600, -40.144
1525.0800, -40.101
1525.1000, -40.061
1525.1200, -40.021
1525.1400, -39.985
1525.1600, -39.945
1525.1800, -39.900
1525.2000, -39.863
1525.2200, -39.820
1525.2400, -39.780
1525.2600, -39.743
1525.2800, -39.706
1525.3000, -39.663
1525.3200, -39.623
1525.3400, -39.585
1525.3600, -39.545
1525.3800, -39.510
1525.4000, -39.472
1525.4200, -39.432
1525.4400, -39.393
1525.4600, -39.352
1525.4800, -39.312
1525.5000, -39.267
1525.5200, -39.231
1525.5400, -39.189
1525.5600, -39.150
1525.5800, -39.109
1525.6000, -39.069
1525.6200, -39.034
1525.6400, -38.995
1525.6600, -38.953
1525.6800, -38.915
1525.7000, -38.875
1525.7200, -38.832
1525.7400, -38.790
1525.7600, -38.750
1525.7800, -38.709
1525.8000, -38.668
1525.8200, -38.623
1525.8400, -38.581
1525.8600, -38.543
1525.8800, -38.499
1525.9000, -38.467
1525.9200, -38.426
1525.9400, -38.389
1525.9600, -38.345
1525.9800, -38.312
1526.0000, -38.277
1526.0200, -38.235
1526.0400, -38.200
1526.0600, -38.162
1526.0800, -38.121
1526.1000, -38.085
1526.1200, -38.043
1526.1400, -38.004
1526.1600, -37.959
1526.1800, -37.921
1526.2000, -37.873
1526.2200, -37.840
1526.2400, -37.792
1526.2600, -37.754
1526.2800, -37.715
1526.3000, -37.679
1526.3200, -37.642
1526.3400, -37.608
1526.3600, -37.572
1526.3800, -37.541
1526.4000, -37.500
1526.4200, -37.466
1526.4400, -37.426
1526.4600, -37.386
1526.4800, -37.347
1526.5000, -37.309
1526.5200, -37.262
1526.5400, -37.234
1526.5600, -37.194
1526.5800, -37.156
1526.6000, -37.114
1526.6200, -37.071
1526.6400, -37.034
1526.6600, -36.995
1526.6800, -36.959
1526.7000, -36.921
1526.7200, -36.883
1526.7400, -36.841
1526.7600, -36.802
1526.7800, -36.762
1526.8000, -36.718
1526.8200, -36.689
1526.8400, -36.649
1526.8600, -36.609
1526.8800, -36.561
1526.9000, -36.516
1526.9200, -36.489
1526.9400, -36.433
1526.9600, -36.396
1526.9800, -36.356
1527.0000, -36.313
1527.0200, -36.275
1527.0400, -36.242
1527.0600, -36.192
1527.0800, -36.160
1527.1000, -36.112
1527.1200, -36.084
1527.1400, -36.039
1527.1600, -36.001
1527.1800, -35.960
1527.2000, -35.933
1527.2200, -35.896
1527.2400, -35.862
1527.2600, -35.824
1527.2800, -35.784
1527.3000, -35.743
1527.3200, -35.692
1527.3400, -35.668
1527.3600, -35.625
1527.3800, -35.594
1527.4000, -35.549
1527.4200, -35.509
1527.4400, -35.469
1527.4600, -35.424
1527.4800, -35.387
1527.5000, -35.342
1527.5200, -35.291
1527.5400, -35.246
1527.5600, -35.206
1527.5800, -35.159
1527.6000, -35.110
1527.6200, -35.068
1527.6400, -35.030
1527.6600, -34.985
1527.6800, -34.944
1527.7000, -34.894
1527.7200, -34.861
1527.7400, -34.820
1527.7600, -34.778
1527.7800, -34.735
1527.8000, -34.685
1527.8200, -34.626
1527.8400, -34.593
1527.8600, -34.548
1527.8800, -34.481
1527.9000, -34.461
1527.9200, -34.413
1527.9400, -34.360
1527.9600, -34.312
1527.9800, -34.280
1528.0000, -34.235
1528.0200, -34.186
1528.0400, -34.131
1528.0600, -34.058
1528.0800, -34.042
1528.1000, -33.977
1528.1200, -33.943
1528.1400, -33.901
1528.1600, -33.851
1528.1800, -33.811
1528.2000, -33.767
1528.2200, -33.723
1528.2400, -33.682
1528.2600, -33.622
1528.2800, -33.592
1528.3000, -33.559
1528.3200, -33.509
1528.3400, -33.488
1528.3600, -33.433
1528.3800, -33.387
1528.4000, -33.342
1528.4200, -33.299
1528.4400, -33.261
1528.4600, -33.215
1528.4800, -33.191
1528.5000, -33.142
1528.5200, -33.097
1528.5400, -33.056
1528.5600, -33.016
1528.5800, -32.978
1528.6000, -32.906
1528.6200, -32.884
1528.6400, -32.844
1528.6600, -32.829
1528.6800, -32.764
1528.7000, -32.732
1528.7200, -32.689
1528.7400, -32.639
1528.7600, -32.554
1528.7800, -32.533
1528.8000, -32.452
1528.8200, -32.427
1528.8400, -32.383
1528.8600, -32.332
1528.8800, -32.283
1528.9000, -32.223
1528.9200, -32.171
1528.9400, -32.141
1528.9600, -32.089
1528.9800, -32.006
1529.0000, -31.955
1529.0200, -31.941
1529.0400, -31.869
1529.0600, -31.835
1529.0800, -31.769
1529.1000, -31.744
1529.1200, -31.701
1529.1400, -31.663
1529.1600, -31.611
1529.1800, -31.553
1529.2000, -31.539
1529.2200, -31.547
1529.2400, -31.427
1529.2600, -31.403
1529.2800, -31.392
1529.3000, -31.297
1529.3200, -31.306
1529.3400, -31.222
1529.3600, -31.159
1529.3800, -31.110
1529.4000, -31.080
1529.4200, -30.995
1529.4400, -30.986
1529.4600, -30.983
1529.4800, -30.945
1529.5000, -30.929
1529.5200, -30.828
1529.5400, -30.889
1529.5600, -30.867
1529.5800, -30.828
1529.6000, -30.795
1529.6200, -30.715
1529.6400, -30.655
1529.6600, -30.622
1529.6800, -30.539
1529.7000, -30.530
1529.7200, -30.440
1529.7400, -30.468
1529.7600, -30.403
1529.7800, -30.463
1529.8000, -30.326
1529.8200, -30.323
1529.8400, -30.226
1529.8600, -30.093
1529.8800, -30.090
1529.9000, -30.117
1529.9200, -29.944
1529.9400, -30.000
1529.9600, -30.136
1529.9800, -29.974
1530.0000, -29.830
1530.0200, -29.972
1530.0400, -29.868
1530.0600, -29.751
1530.0800, -29.816
1530.1000, -29.677
1530.1200, -29.633
1530.1400, -29.645
1530.1600, -29.664
1530.1800, -29.645
1530.2000, -29.591
1530.2200, -29.590
1530.2400, -29.561
1530.2600, -29.550
1530.2800, -29.424
1530.3000, -29.416
1530.3200, -29.437
1530.3400, -29.398
1530.3600, -29.281
1530.3800, -29.329
1530.4000, -29.257
1530.4200, -29.141
1530.4400, -29.041
1530.4600, -28.922
1530.4800, -28.927
1530.5000, -28.928
1530.5200, -28.881
1530.5400, -28.914
1530.5600, -28.772
1530.5800, -28.698
1530.6000, -28.619
1530.6200, -28.544
1530.6400, -28.606
1530.6600, -28.283
1530.6800, -28.498
1530.7000, -28.519
1530.7200, -28.551
1530.7400, -28.451
1530.7600, -28.311
1530.7800, -28.300
1530.8000, -28.144
1530.8200, -28.354
1530.8400, -28.031
1530.8600, -28.301
1530.8800, -28.161
1530.9000, -28.362
1530.9200, -28.306
1530.9400, -28.141
1530.9600, -28.203
1530.9800, -28.324
1531.0000, -28.223
1531.0200, -28.189
1531.0400, -27.727
1531.0600, -28.283
1531.0800, -28.444
1531.1000, -28.413
1531.1200, -28.115
1531.1400, -28.203
1531.1600, -28.299
1531.1800, -28.309
1531.2000, -27.726
1531.2200, -26.782
1531.2400, -27.813
1531.2600, -27.567
1531.2800, -27.639
1531.3000, -27.929
1531.3200, -27.718
1531.3400, -27.339
1531.3600, -26.639
1531.3800, -26.662
1531.4000, -27.058
1531.4200, -27.748
1531.4400, -27.055
1531.4600, -27.313
1531.4800, -27.639
1531.5000, -27.143
1531.5200, -27.546
1531.5400, -27.267
1531.5600, -27.162
1531.5800, -27.034
1531.6000, -27.863
1531.6200, -27.239
1531.6400, -27.588
1531.6600, -27.875
1531.6800, -27.781
1531.7000, -27.810
1531.7200, -27.977
1531.7400, -27.090
1531.7600, -27.871
1531.7800, -27.890
1531.8000, -28.022
1531.8200, -27.141
1531.8400, -27.248
1531.8600, -27.565
1531.8800, -26.761
1531.9000, -26.380
1531.9200, -27.491
1531.9400, -25.575
1531.9600, -26.057
1531.9800, -26.115
1532.0000, -26.186
1532.0200, -27.558
1532.0400, -27.426
1532.0600, -26.555
1532.0800, -26.127
1532.1000, -24.943
1532.1200, -25.074
1532.1400, -27.042
1532.1600, -25.839
1532.1800, -27.116
1532.2000, -26.620
1532.2200, -27.251
1532.2400, -25.578
1532.2600, -26.199
1532.2800, -27.073
1532.3000, -27.273
1532.3200, -27.876
1532.3400, -26.561
1532.3600, -26.804
1532.3800, -27.007
1532.4000, -25.971
1532.4200, -27.626
1532.4400, -27.389
1532.4600, -27.627
1532.4800, -27.250
1532.5000, -25.552
1532.5200, -24.628
1532.5400, -26.940
1532.5600, -26.307
1532.5800, -25.900
1532.6000, -23.205
1532.6200, -19.639
1532.6400, -20.346
1532.6600, -22.518
1532.6800, -22.006
1532.7000, -25.276
1532.7200, -26.847
1532.7400, -27.353
1532.7600, -27.188
1532.7800, -26.558
1532.8000, -26.702
1532.8200, -26.249
1532.8400, -26.834
1532.8600, -27.321
1532.8800, -28.099
1532.9000, -28.161
1532.9200, -27.359
1532.9400, -27.534
1532.9600, -26.844
1532.9800, -28.007
1533.0000, -28.097
1533.0200, -27.509
1533.0400, -28.357
1533.0600, -28.439
1533.0800, -28.420
1533.1000, -28.560
1533.1200, -27.662
1533.1400, -27.541
1533.1600, -27.577
1533.1800, -28.865
1533.2000, -28.605
1533.2200, -28.132
1533.2400, -27.898
1533.2600, -28.786
1533.2800, -28.542
1533.3000, -28.743
1533.3200, -28.887
1533.3400, -28.131
1533.3600, -28.530
1533.3800, -28.510
1533.4000, -28.849
1533.4200, -28.764
1533.4400, -28.894
1533.4600, -28.934
1533.4800, -28.919
1533.5000, -29.307
1533.5200, -29.463
1533.5400, -29.313
1533.5600, -29.272
1533.5800, -29.481
1533.6000, -29.585
1533.6200, -29.750
1533.6400, -29.668
1533.6600, -29.689
1533.6800, -29.786
1533.7000, -29.850
1533.7200, -30.006
1533.7400, -30.056
1533.7600, -30.214
1533.7800, -30.187
1533.8000, -30.266
1533.8200, -30.396
1533.8400, -30.557
1533.8600, -30.511
1533.8800, -30.584
1533.9000, -30.717
1533.9200, -31.009
1533.9400, -31.033
1533.9600, -31.000
1533.9800, -30.979
1534.0000, -31.112
1534.0200, -31.077
1534.0400, -31.192
1534.0600, -31.365
1534.0800, -31.563
1534.1000, -31.443
1534.1200, -31.481
1534.1400, -31.502
1534.1600, -31.517
1534.1800, -31.692
1534.2000, -31.663
1534.2200, -31.839
1534.2400, -31.825
1534.2600, -31.871
1534.2800, -31.993
1534.3000, -31.990
1534.3200, -32.014
1534.3400, -32.106
1534.3600, -32.201
1534.3800, -32.399
1534.4000, -32.487
1534.4200, -32.611
1534.4400, -32.497
1534.4600, -32.624
1534.4800, -32.664
1534.5000, -32.809
1534.5200, -32.813
1534.5400, -32.769
1534.5600, -32.931
1534.5800, -32.950
1534.6000, -33.023
1534.6200, -33.032
1534.6400, -33.114
1534.6600, -33.201
1534.6800, -33.199
1534.7000, -33.288
1534.7200, -33.268
1534.7400, -33.362
1534.7600, -33.458
1534.7800, -33.522
1534.8000, -33.560
1534.8200, -33.623
1534.8400, -33.722
1534.8600, -33.755
1534.8800, -33.885
1534.9000, -33.948
1534.9200, -33.948
1534.9400, -34.078
1534.9600, -34.084
1534.9800, -34.115
1535.0000, -34.236
1535.0200, -34.247
1535.0400, -34.312
1535.0600, -34.337
1535.0800, -34.392
1535.1000, -34.410
1535.1200, -34.489
1535.1400, -34.538
1535.1600, -34.619
1535.1800, -34.677
1535.2000, -34.721
1535.2200, -34.785
1535.2400, -34.821
1535.2600, -34.880
1535.2800, -34.947
1535.3000, -35.029
1535.3200, -35.065
1535.3400, -35.149
1535.3600, -35.196
1535.3800, -35.230
1535.4000, -35.300
1535.4200, -35.339
1535.4400, -35.385
1535.4600, -35.434
1535.4800, -35.499
1535.5000, -35.535
1535.5200, -35.605
1535.5400, -35.663
1535.5600, -35.718
1535.5800, -35.775
1535.6000, -35.827
1535.6200, -35.883
1535.6400, -35.932
1535.6600, -35.988
1535.6800, -36.056
1535.7000, -36.111
1535.7200, -36.163
1535.7400, -36.219
1535.7600, -36.287
1535.7800, -36.345
1535.8000, -36.406
1535.8200, -36.459
1535.8400, -36.504
1535.8600, -36.565
1535.8800, -36.613
1535.9000, -36.663
1535.9200, -36.710
1535.9400, -36.763
1535.9600, -36.813
1535.9800, -36.864
1536.0000, -36.901
1536.0200, -36.949
1536.0400, -36.990
1536.0600, -37.050
1536.0800, -37.097
1536.1000, -37.143
1536.1200, -37.186
1536.1400, -37.224
1536.1600, -37.276
1536.1800, -37.326
1536.2000, -37.348
1536.2200, -37.409
1536.2400, -37.450
1536.2600, -37.493
1536.2800, -37.524
1536.3000, -37.569
1536.3200, -37.614
1536.3400, -37.645
1536.3600, -37.685
1536.3800, -37.723
1536.4000, -37.770
1536.4200, -37.800
1536.4400, -37.847
1536.4600, -37.888
1536.4800, -37.925
1536.5000, -37.968
1536.5200, -38.011
1536.5400, -38.051
1536.5600, -38.092
1536.5800, -38.127
1536.6000, -38.157
1536.6200, -38.199
1536.6400, -38.229
1536.6600, -38.262
1536.6800, -38.300
1536.7000, -38.330
1536.7200, -38.373
1536.7400, -38.410
1536.7600, -38.433
1536.7800, -38.473
1536.8000, -38.511
1536.8200, -38.545
1536.8400, -38.584
1536.8600, -38.617
1536.8800, -38.651
1536.9000, -38.682
1536.9200, -38.712
1536.9400, -38.742
1536.9600, -38.771
1536.9800, -38.798
1537.0000, -38.835
1537.0200, -38.874
1537.0400, -38.913
1537.0600, -38.941
1537.0800, -38.961
1537.1000, -39.000
1537.1200, -39.009
1537.1400, -39.055
1537.1600, -39.083
1537.1800, -39.106
1537.2000, -39.134
1537.2200, -39.171
1537.2400, -39.189
1537.2600, -39.214
1537.2800, -39.235
1537.3000, -39.251
1537.3200, -39.285
1537.3400, -39.295
1537.3600, -39.333
1537.3800, -39.363
1537.4000, -39.393
1537.4200, -39.422
1537.4400, -39.445
1537.4600, -39.468
1537.4800, -39.493
1537.5000, -39.510
1537.5200, -39.537
1537.5400, -39.556
1537.5600, -39.583
1537.5800, -39.607
1537.6000, -39.635
1537.6200, -39.660
1537.6400, -39.690
1537.6600, -39.707
1537.6800, -39.729
1537.7000, -39.751
1537.7200, -39.774
1537.7400, -39.795
1537.7600, -39.813
1537.7800, -39.835
1537.8000, -39.857
1537.8200, -39.880
1537.8400, -39.897
1537.8600, -39.916
1537.8800, -39.937
1537.9000, -39.948
1537.9200, -39.983
1537.9400, -39.996
1537.9600, -40.016
1537.9800, -40.031
1538.0000, -40.051
1538.0200, -40.072
1538.0400, -40.075
1538.0600, -40.104
1538.0800, -40.128
1538.1000, -40.138
1538.1200, -40.154
1538.1400, -40.184
1538.1600, -40.198
1538.1800, -40.214
1538.2000, -40.219
1538.2200, -40.235
1538.2400, -40.260
1538.2600, -40.267
1538.2800, -40.288
1538.3000, -40.303
1538.3200, -40.322
1538.3400, -40.334
1538.3600, -40.349
1538.3800, -40.361
1538.4000, -40.364
1538.4200, -40.384
1538.4400, -40.395
1538.4600, -40.413
1538.4800, -40.421
1538.5000, -40.435
1538.5200, -40.451
1538.5400, -40.461
1538.5600, -40.477
1538.5800, -40.488
1538.6000, -40.498
1538.6200, -40.515
1538.6400, -40.527
1538.6600, -40.528
1538.6800, -40.535
1538.7000, -40.545
1538.7200, -40.559
1538.7400, -40.579
1538.7600, -40.583
1538.7800, -40.591
1538.8000, -40.605
1538.8200, -40.613
1538.8400, -40.627
1538.8600, -40.638
1538.8800, -40.639
1538.9000, -40.645
1538.9200, -40.655
1538.9400, -40.659
1538.9600, -40.657
1538.9800, -40.675
1539.0000, -40.686
1539.0200, -40.689
1539.0400, -40.699
1539.0600, -40.708
1539.0800, -40.717
1539.1000, -40.723
1539.1200, -40.722
1539.1400, -40.728
1539.1600, -40.736
1539.1800, -40.723
1539.2000, -40.746
1539.2200, -40.754
1539.2400, -40.762
1539.2600, -40.767
1539.2800, -40.775
1539.3000, -40.779
1539.3200, -40.770
1539.3400, -40.790
1539.3600, -40.788
1539.3800, -40.795
1539.4000, -40.802
1539.4200, -40.810
1539.4400, -40.817
1539.4600, -40.815
1539.4800, -40.824
1539.5000, -40.828
1539.5200, -40.829
1539.5400, -40.839
1539.5600, -40.846
1539.5800, -40.854
1539.6000, -40.862
1539.6200, -40.871
1539.6400, -40.872
1539.6600, -40.875
1539.6800, -40.871
1539.7000, -40.873
1539.7200, -40.875
1539.7400, -40.878
1539.7600, -40.888
1539.7800, -40.886
1539.8000, -40.887
1539.8200, -40.881
1539.8400, -40.891
1539.8600, -40.887
1539.8800, -40.892
1539.9000, -40.902
1539.9200, -40.906
1539.9400, -40.902
1539.9600, -40.907
1539.9800, -40.915
1540.0000, -40.905
1540.0200, -40.914
1540.0400, -40.904
1540.0600, -40.915
1540.0800, -40.917
1540.1000, -40.911
1540.1200, -40.925
1540.1400, -40.930
1540.1600, -40.934
1540.1800, -40.937
1540.2000, -40.935
1540.2200, -40.936
1540.2400, -40.925
1540.2600, -40.941
1540.2800, -40.933
1540.3000, -40.925
1540.3200, -40.925
1540.3400, -40.926
1540.3600, -40.927
1540.3800, -40.921
1540.4000, -40.920
1540.4200, -40.918
1540.4400, -40.914
1540.4600, -40.912
1540.4800, -40.916
1540.5000, -40.915
1540.5200, -40.914
1540.5400, -40.913
1540.5600, -40.911
1540.5800, -40.909
1540.6000, -40.906
1540.6200, -40.902
1540.6400, -40.910
1540.6600, -40.909
1540.6800, -40.903
1540.7000, -40.901
1540.7200, -40.893
1540.7400, -40.889
1540.7600, -40.889
1540.7800, -40.882
1540.8000, -40.884
1540.8200, -40.882
1540.8400, -40.877
1540.8600, -40.876
1540.8800, -40.872
1540.9000, -40.876
1540.9200, -40.875
1540.9400, -40.872
1540.9600, -40.862
1540.9800, -40.873
1541.0000, -40.865
1541.0200, -40.867
1541.0400, -40.862
1541.0600, -40.863
1541.0800, -40.862
1541.1000, -40.858
1541.1200, -40.855
1541.1400, -40.853
1541.1600, -40.846
1541.1800, -40.846
1541.2000, -40.843
1541.2200, -40.843
1541.2400, -40.838
1541.2600, -40.841
1541.2800, -40.835
1541.3000, -40.833
1541.3200, -40.830
1541.3400, -40.821
1541.3600, -40.822
1541.3800, -40.818
1541.4000, -40.818
1541.4200, -40.818
1541.4400, -40.817
1541.4600, -40.810
1541.4800, -40.809
1541.5000, -40.799
1541.5200, -40.795
1541.5400, -40.789
1541.5600, -40.789
1541.5800, -40.794
1541.6000, -40.788
1541.6200, -40.792
1541.6400, -40.781
1541.6600, -40.779
1541.6800, -40.774
1541.7000, -40.764
1541.7200, -40.764
1541.7400, -40.762
1541.7600, -40.755
1541.7800, -40.750
1541.8000, -40.750
1541.8200, -40.742
1541.8400, -40.741
1541.8600, -40.734
1541.8800, -40.727
1541.9000, -40.730
1541.9200, -40.715
1541.9400, -40.726
1541.9600, -40.717
1541.9800, -40.720
1542.0000, -40.717
1542.0200, -40.711
1542.0400, -40.704
1542.0600, -40.701
1542.0800, -40.697
1542.1000, -40.685
1542.1200, -40.684
1542.1400, -40.682
1542.1600, -40.682
1542.1800, -40.680
1542.2000, -40.675
1542.2200, -40.669
1542.2400, -40.667
1542.2600, -40.665
1542.2800, -40.660
1542.3000, -40.658
1542.3200, -40.657
1542.3400, -40.651
1542.3600, -40.646
1542.3800, -40.637
1542.4000, -40.634
1542.4200, -40.630
1542.4400, -40.621
1542.4600, -40.614
1542.4800, -40.615
1542.5000, -40.613
1542.5200, -40.608
1542.5400, -40.598
1542.5600, -40.598
1542.5800, -40.594
1542.6000, -40.587
1542.6200, -40.584
1542.6400, -40.581
1542.6600, -40.579
1542.6800, -40.567
1542.7000, -40.571
1542.7200, -40.573
1542.7400, -40.563
1542.7600, -40.551
1542.7800, -40.548
1542.8000, -40.554
1542.8200, -40.548
1542.8400, -40.536
1542.8600, -40.539
1542.8800, -40.534
1542.9000, -40.531
1542.9200, -40.523
1542.9400, -40.518
1542.9600, -40.512
1542.9800, -40.511
1543.0000, -40.496
1543.0200, -40.495
1543.0400, -40.488
1543.0600, -40.483
1543.0800, -40.484
1543.1000, -40.476
1543.1200, -40.475
1543.1400, -40.471
1543.1600, -40.470
1543.1800, -40.462
1543.2000, -40.460
1543.2200, -40.459
1543.2400, -40.458
1543.2600, -40.458
1543.2800, -40.452
1543.3000, -40.450
1543.3200, -40.443
1543.3400, -40.440
1543.3600, -40.439
1543.3800, -40.447
1543.4000, -40.442
1543.4200, -40.432
1543.4400, -40.434
1543.4600, -40.423
1543.4800, -40.416
1543.5000, -40.418
1543.5200, -40.407
1543.5400, -40.415
1543.5600, -40.408
1543.5800, -40.403
1543.6000, -40.401
1543.6200, -40.411
1543.6400, -40.410
1543.6600, -40.403
1543.6800, -40.396
1543.7000, -40.390
1543.7200, -40.392
1543.7400, -40.379
1543.7600, -40.383
1543.7800, -40.369
1543.8000, -40.373
1543.8200, -40.371
1543.8400, -40.370
1543.8600, -40.369
1543.8800, -40.360
1543.9000, -40.365
1543.9200, -40.368
1543.9400, -40.367
1543.9600, -40.364
1543.9800, -40.363
1544.0000, -40.364
1544.0200, -40.362
1544.0400, -40.357
1544.0600, -40.354
1544.0800, -40.353
1544.1000, -40.349
1544.1200, -40.349
1544.1400, -40.344
1544.1600, -40.342
1544.1800, -40.336
1544.2000, -40.332
1544.2200, -40.331
1544.2400, -40.331
1544.2600, -40.333
1544.2800, -40.336
1544.3000, -40.327
1544.3200, -40.331
1544.3400, -40.326
1544.3600, -40.319
1544.3800, -40.318
1544.4000, -40.315
1544.4200, -40.302
1544.4400, -40.307
1544.4600, -40.304
1544.4800, -40.300
1544.5000, -40.291
1544.5200, -40.291
1544.5400, -40.295
1544.5600, -40.295
1544.5800, -40.285
1544.6000, -40.285
1544.6200, -40.282
1544.6400, -40.273
1544.6600, -40.274
1544.6800, -40.277
1544.7000, -40.278
1544.7200, -40.279
1544.7400, -40.277
1544.7600, -40.277
1544.7800, -40.277
1544.8000, -40.277
1544.8200, -40.276
1544.8400, -40.269
1544.8600, -40.273
1544.8800, -40.274
1544.9000, -40.273
1544.9200, -40.270
1544.9400, -40.271
1544.9600, -40.263
1544.9800, -40.265
1545.0000, -40.269
1545.0200, -40.265
1545.0400, -40.266
1545.0600, -40.269
1545.0800, -40.270
1545.1000, -40.267
1545.1200, -40.270
1545.1400, -40.266
1545.1600, -40.268
1545.1800, -40.269
1545.2000, -40.276
1545.2200, -40.273
1545.2400, -40.267
1545.2600, -40.269
1545.2800, -40.265
1545.3000, -40.273
1545.3200, -40.269
1545.3400, -40.268
1545.3600, -40.271
1545.3800, -40.272
1545.4000, -40.272
1545.4200, -40.268
1545.4400, -40.272
1545.4600, -40.276
1545.4800, -40.263
1545.5000, -40.255
1545.5200, -40.247
1545.5400, -40.250
1545.5600, -40.243
1545.5800, -40.248
1545.6000, -40.248
1545.6200, -40.255
1545.6400, -40.259
1545.6600, -40.261
1545.6800, -40.261
1545.7000, -40.258
1545.7200, -40.257
1545.7400, -40.252
1545.7600, -40.255
1545.7800, -40.254
1545.8000, -40.255
1545.8200, -40.252
1545.8400, -40.250
1545.8600, -40.252
1545.8800, -40.253
1545.9000, -40.257
1545.9200, -40.257
1545.9400, -40.259
1545.9600, -40.257
1545.9800, -40.256
1546.0000, -40.256
1546.0200, -40.255
1546.0400, -40.248
1546.0600, -40.246
1546.0800, -40.238
1546.1000, -40.244
1546.1200, -40.236
1546.1400, -40.235
1546.1600, -40.231
1546.1800, -40.231
1546.2000, -40.234
1546.2200, -40.242
1546.2400, -40.236
1546.2600, -40.237
1546.2800, -40.236
1546.3000, -40.233
1546.3200, -40.230
1546.3400, -40.233
1546.3600, -40.227
1546.3800, -40.233
1546.4000, -40.225
1546.4200, -40.225
1546.4400, -40.232
1546.4600, -40.220
1546.4800, -40.234
1546.5000, -40.238
1546.5200, -40.242
1546.5400, -40.242
1546.5600, -40.244
1546.5800, -40.244
1546.6000, -40.242
1546.6200, -40.244
1546.6400, -40.241
1546.6600, -40.243
1546.6800, -40.248
1546.7000, -40.247
1546.7200, -40.250
1546.7400, -40.243
1546.7600, -40.239
1546.7800, -40.243
1546.8000, -40.239
1546.8200, -40.237
1546.8400, -40.238
1546.8600, -40.242
1546.8800, -40.243
1546.9000, -40.244
1546.9200, -40.242
1546.9400, -40.240
1546.9600, -40.241
1546.9800, -40.240
1547.0000, -40.237
1547.0200, -40.242
1547.0400, -40.242
1547.0600, -40.242
1547.0800, -40.236
1547.1000, -40.243
1547.1200, -40.245
1547.1400, -40.240
1547.1600, -40.250
1547.1800, -40.254
1547.2000, -40.252
1547.2200, -40.256
1547.2400, -40.268
1547.2600, -40.260
1547.2800, -40.264
1547.3000, -40.256
1547.3200, -40.266
1547.3400, -40.269
1547.3600, -40.265
1547.3800, -40.270
1547.4000, -40.270
1547.4200, -40.272
1547.4400, -40.272
1547.4600, -40.272
1547.4800, -40.270
1547.5000, -40.267
1547.5200, -40.263
1547.5400, -40.269
1547.5600, -40.264
1547.5800, -40.268
1547.6000, -40.261
1547.6200, -40.269
1547.6400, -40.266
1547.6600, -40.271
1547.6800, -40.276
1547.7000, -40.276
1547.7200, -40.283
1547.7400, -40.289
1547.7600, -40.288
1547.7800, -40.289
1547.8000, -40.288
1547.8200, -40.284
1547.8400, -40.285
1547.8600, -40.287
1547.8800, -40.283
1547.9000, -40.287
1547.9200, -40.281
1547.9400, -40.290
1547.9600, -40.284
1547.9800, -40.285
1548.0000, -40.287
1548.0200, -40.300
1548.0400, -40.288
1548.0600, -40.298
1548.0800, -40.295
1548.1000, -40.301
1548.1200, -40.298
1548.1400, -40.296
1548.1600, -40.302
1548.1800, -40.296
1548.2000, -40.292
1548.2200, -40.293
1548.2400, -40.292
1548.2600, -40.304
1548.2800, -40.308
1548.3000, -40.307
1548.3200, -40.305
1548.3400, -40.313
1548.3600, -40.315
1548.3800, -40.316
1548.4000, -40.317
1548.4200, -40.316
1548.4400, -40.313
1548.4600, -40.321
1548.4800, -40.328
1548.5000, -40.326
1548.5200, -40.331
1548.5400, -40.327
1548.5600, -40.329
1548.5800, -40.327
1548.6000, -40.329
1548.6200, -40.334
1548.6400, -40.337
1548.6600, -40.340
1548.6800, -40.343
1548.7000, -40.345
1548.7200, -40.346
1548.7400, -40.351
1548.7600, -40.348
1548.7800, -40.353
1548.8000, -40.354
1548.8200, -40.349
1548.8400, -40.363
1548.8600, -40.357
1548.8800, -40.354
1548.9000, -40.365
1548.9200, -40.369
1548.9400, -40.364
1548.9600, -40.361
1548.9800, -40.368
1549.0000, -40.368
1549.0200, -40.369
1549.0400, -40.368
1549.0600, -40.365
1549.0800, -40.376
1549.1000, -40.365
1549.1200, -40.364
1549.1400, -40.364
1549.1600, -40.377
1549.1800, -40.375
1549.2000, -40.385
1549.2200, -40.382
1549.2400, -40.397
1549.2600, -40.399
1549.2800, -40.400
1549.3000, -40.394
1549.3200, -40.381
1549.3400, -40.393
1549.3600, -40.388
1549.3800, -40.386
1549.4000, -40.392
1549.4200, -40.399
1549.4400, -40.405
1549.4600, -40.408
1549.4800, -40.408
1549.5000, -40.415
1549.5200, -40.418
1549.5400, -40.423
1549.5600, -40.430
1549.5800, -40.435
1549.6000, -40.435
1549.6200, -40.434
1549.6400, -40.436
1549.6600, -40.440
1549.6800, -40.440
1549.7000, -40.440
1549.7200, -40.438
1549.7400, -40.449
1549.7600, -40.448
1549.7800, -40.458
1549.8000, -40.456
1549.8200, -40.467
1549.8400, -40.470
1549.8600, -40.471
1549.8800, -40.480
1549.9000, -40.481
1549.9200, -40.477
1549.9400, -40.477
1549.9600, -40.471
1549.9800, -40.480
1550.0000, -40.483
1550.0200, -40.488
1550.0400, -40.485
1550.0600, -40.484
1550.0800, -40.482
1550.1000, -40.492
1550.1200, -40.499
1550.1400, -40.500
1550.1600, -40.500
1550.1800, -40.498
1550.2000, -40.499
1550.2200, -40.499
1550.2400, -40.502
1550.2600, -40.505
1550.2800, -40.505
1550.3000, -40.509
1550.3200, -40.519
1550.3400, -40.522
1550.3600, -40.526
1550.3800, -40.530
1550.4000, -40.529
1550.4200, -40.531
1550.4400, -40.537
1550.4600, -40.541
1550.4800, -40.545
1550.5000, -40.546
1550.5200, -40.545
1550.5400, -40.547
1550.5600, -40.548
1550.5800, -40.545
1550.6000, -40.544
1550.6200, -40.544
1550.6400, -40.561
1550.6600, -40.561
1550.6800, -40.573
1550.7000, -40.563
1550.7200, -40.578
1550.7400, -40.577
1550.7600, -40.580
1550.7800, -40.587
1550.8000, -40.590
1550.8200, -40.593
1550.8400, -40.593
1550.8600, -40.595
1550.8800, -40.609
1550.9000, -40.617
1550.9200, -40.615
1550.9400, -40.618
1550.9600, -40.615
1550.9800, -40.617
1551.0000, -40.618
1551.0200, -40.622
1551.0400, -40.626
1551.0600, -40.630
1551.0800, -40.633
1551.1000, -40.636
1551.1200, -40.637
1551.1400, -40.630
1551.1600, -40.640
1551.1800, -40.643
1551.2000, -40.646
1551.2200, -40.655
1551.2400, -40.660
1551.2600, -40.667
1551.2800, -40.669
1551.3000, -40.670
1551.3200, -40.670
1551.3400, -40.677
1551.3600, -40.683
1551.3800, -40.684
1551.4000, -40.685
1551.4200, -40.687
1551.4400, -40.685
1551.4600, -40.684
1551.4800, -40.685
1551.5000, -40.687
1551.5200, -40.681
1551.5400, -40.696
1551.5600, -40.697
1551.5800, -40.703
1551.6000, -40.697
1551.6200, -40.705
1551.6400, -40.710
1551.6600, -40.712
1551.6800, -40.719
1551.7000, -40.723
1551.7200, -40.722
1551.7400, -40.726
1551.7600, -40.725
1551.7800, -40.735
1551.8000, -40.744
1551.8200, -40.741
1551.8400, -40.748
1551.8600, -40.752
1551.8800, -40.752
1551.9000, -40.755
1551.9200, -40.759
1551.9400, -40.761
1551.9600, -40.762
1551.9800, -40.764
1552.0000, -40.765
1552.0200, -40.769
1552.0400, -40.771
1552.0600, -40.774
1552.0800, -40.779
1552.1000, -40.783
1552.1200, -40.792
1552.1400, -40.797
1552.1600, -40.801
1552.1800, -40.806
1552.2000, -40.808
1552.2200, -40.810
1552.2400, -40.819
1552.2600, -40.819
1552.2800, -40.821
1552.3000, -40.822
1552.3200, -40.820
1552.3400, -40.825
1552.3600, -40.823
1552.3800, -40.824
1552.4000, -40.826
1552.4200, -40.828
1552.4400, -40.828
1552.4600, -40.833
1552.4800, -40.835
1552.5000, -40.834
1552.5200, -40.843
1552.5400, -40.841
1552.5600, -40.841
1552.5800, -40.845
1552.6000, -40.847
1552.6200, -40.852
1552.6400, -40.856
1552.6600, -40.859
1552.6800, -40.866
1552.7000, -40.871
1552.7200, -40.868
1552.7400, -40.881
1552.7600, -40.880
1552.7800, -40.885
1552.8000, -40.884
1552.8200, -40.890
1552.8400, -40.895
1552.8600, -40.897
1552.8800, -40.898
1552.9000, -40.895
1552.9200, -40.902
1552.9400, -40.907
1552.9600, -40.908
1552.9800, -40.902
1553.0000, -40.905
1553.0200, -40.907
1553.0400, -40.909
1553.0600, -40.911
1553.0800, -40.921
1553.1000, -40.917
1553.1200, -40.921
1553.1400, -40.925
1553.1600, -40.932
1553.1800, -40.937
1553.2000, -40.942
1553.2200, -40.943
1553.2400, -40.946
1553.2600, -40.950
1553.2800, -40.952
1553.3000, -40.958
1553.3200, -40.958
1553.3400, -40.962
1553.3600, -40.967
1553.3800, -40.966
1553.4000, -40.960
1553.4200, -40.966
1553.4400, -40.964
1553.4600, -40.968
1553.4800, -40.971
1553.5000, -40.970
1553.5200, -40.968
1553.5400, -40.970
1553.5600, -40.975
1553.5800, -40.989
1553.6000, -40.991
1553.6200, -40.980
1553.6400, -40.995
1553.6600, -40.997
1553.6800, -41.003
1553.7000, -41.007
1553.7200, -41.011
1553.7400, -41.008
1553.7600, -41.011
1553.7800, -41.007
1553.8000, -41.014
1553.8200, -41.018
1553.8400, -41.018
1553.8600, -41.016
1553.8800, -41.025
1553.9000, -41.030
1553.9200, -41.032
1553.9400, -41.032
1553.9600, -41.036
1553.9800, -41.031
1554.0000, -41.040
1554.0200, -41.044
1554.0400, -41.052
1554.0600, -41.058
1554.0800, -41.063
1554.1000, -41.067
1554.1200, -41.069
1554.1400, -41.073
1554.1600, -41.072
1554.1800, -41.073
1554.2000, -41.075
1554.2200, -41.077
1554.2400, -41.080
1554.2600, -41.082
1554.2800, -41.082
1554.3000, -41.078
1554.3200, -41.081
1554.3400, -41.086
1554.3600, -41.089
1554.3800, -41.085
1554.4000, -41.087
1554.4200, -41.083
1554.4400, -41.081
1554.4600, -41.084
1554.4800, -41.083
1554.5000, -41.086
1554.5200, -41.083
1554.5400, -41.089
1554.5600, -41.093
1554.5800, -41.093
1554.6000, -41.099
1554.6200, -41.103
1554.6400, -41.104
1554.6600, -41.107
1554.6800, -41.109
1554.7000, -41.115
1554.7200, -41.110
1554.7400, -41.115
1554.7600, -41.118
1554.7800, -41.116
1554.8000, -41.121
1554.8200, -41.126
1554.8400, -41.128
1554.8600, -41.128
1554.8800, -41.135
1554.9000, -41.135
1554.9200, -41.144
1554.9400, -41.145
1554.9600, -41.146
1554.9800, -41.146
1555.0000, -41.148
1555.0200, -41.150
1555.0400, -41.144
1555.0600, -41.143
1555.0800, -41.147
1555.1000, -41.148
1555.1200, -41.146
1555.1400, -41.144
1555.1600, -41.154
1555.1800, -41.156
1555.2000, -41.148
1555.2200, -41.161
1555.2400, -41.167
1555.2600, -41.171
1555.2800, -41.179
1555.3000, -41.181
1555.3200, -41.182
1555.3400, -41.182
1555.3600, -41.179
1555.3800, -41.181
1555.4000, -41.187
1555.4200, -41.172
1555.4400, -41.187
1555.4600, -41.193
1555.4800, -41.195
1555.5000, -41.202
1555.5200, -41.206
1555.5400, -41.208
1555.5600, -41.212
1555.5800, -41.217
1555.6000, -41.220
1555.6200, -41.212
1555.6400, -41.220
1555.6600, -41.224
1555.6800, -41.230
1555.7000, -41.232
1555.7200, -41.235
1555.7400, -41.228
1555.7600, -41.233
1555.7800, -41.235
1555.8000, -41.237
1555.8200, -41.245
1555.8400, -41.247
1555.8600, -41.250
1555.8800, -41.252
1555.9000, -41.255
1555.9200, -41.253
1555.9400, -41.259
1555.9600, -41.262
1555.9800, -41.266
1556.0000, -41.266
1556.0200, -41.271
1556.0400, -41.282
1556.0600, -41.277
1556.0800, -41.279
1556.1000, -41.277
1556.1200, -41.294
1556.1400, -41.296
1556.1600, -41.302
1556.1800, -41.301
1556.2000, -41.302
1556.2200, -41.299
1556.2400, -41.303
1556.2600, -41.309
1556.2800, -41.309
1556.3000, -41.301
1556.3200, -41.297
1556.3400, -41.314
1556.3600, -41.316
1556.3800, -41.309
1556.4000, -41.319
1556.4200, -41.325
1556.4400, -41.329
1556.4600, -41.328
1556.4800, -41.332
1556.5000, -41.328
1556.5200, -41.335
1556.5400, -41.338
1556.5600, -41.338
1556.5800, -41.340
1556.6000, -41.341
1556.6200, -41.346
1556.6400, -41.346
1556.6600, -41.359
1556.6800, -41.359
1556.7000, -41.364
1556.7200, -41.367
1556.7400, -41.372
1556.7600, -41.376
1556.7800, -41.380
1556.8000, -41.388
1556.8200, -41.391
1556.8400, -41.387
1556.8600, -41.393
1556.8800, -41.393
1556.9000, -41.395
1556.9200, -41.392
1556.9400, -41.405
1556.9600, -41.405
1556.9800, -41.404
1557.0000, -41.405
1557.0200, -41.416
1557.0400, -41.419
1557.0600, -41.419
1557.0800, -41.414
1557.1000, -41.420
1557.1200, -41.417
1557.1400, -41.422
1557.1600, -41.422
1557.1800, -41.428
1557.2000, -41.425
1557.2200, -41.432
1557.2400, -41.448
1557.2600, -41.453
1557.2800, -41.458
1557.3000, -41.466
1557.3200, -41.470
1557.3400, -41.474
1557.3600, -41.478
1557.3800, -41.481
1557.4000, -41.484
1557.4200, -41.497
1557.4400, -41.508
1557.4600, -41.513
1557.4800, -41.519
1557.5000, -41.522
1557.5200, -41.518
1557.5400, -41.528
1557.5600, -41.534
1557.5800, -41.536
1557.6000, -41.537
1557.6200, -41.544
1557.6400, -41.548
1557.6600, -41.555
1557.6800, -41.562
1557.7000, -41.561
1557.7200, -41.568
1557.7400, -41.577
1557.7600, -41.584
1557.7800, -41.585
1557.8000, -41.588
1557.8200, -41.594
1557.8400, -41.589
1557.8600, -41.584
1557.8800, -41.589
1557.9000, -41.594
1557.9200, -41.603
1557.9400, -41.607
1557.9600, -41.609
1557.9800, -41.617
1558.0000, -41.621
1558.0200, -41.624
1558.0400, -41.624
1558.0600, -41.634
1558.0800, -41.640
1558.1000, -41.647
1558.1200, -41.659
1558.1400, -41.668
1558.1600, -41.672
1558.1800, -41.680
1558.2000, -41.685
1558.2200, -41.688
1558.2400, -41.692
1558.2600, -41.699
1558.2800, -41.703
1558.3000, -41.701
1558.3200, -41.715
1558.3400, -41.722
1558.3600, -41.727
1558.3800, -41.733
1558.4000, -41.737
1558.4200, -41.744
1558.4400, -41.747
1558.4600, -41.754
1558.4800, -41.755
1558.5000, -41.762
1558.5200, -41.769
1558.5400, -41.775
1558.5600, -41.782
1558.5800, -41.784
1558.6000, -41.792
1558.6200, -41.791
1558.6400, -41.805
1558.6600, -41.810
1558.6800, -41.819
1558.7000, -41.827
1558.7200, -41.830
1558.7400, -41.826
1558.7600, -41.829
1558.7800, -41.847
1558.8000, -41.855
1558.8200, -41.863
1558.8400, -41.868
1558.8600, -41.872
1558.8800, -41.880
1558.9000, -41.883
1558.9200, -41.894
1558.9400, -41.908
1558.9600, -41.910
1558.9800, -41.915
1559.0000, -41.924
1559.0200, -41.938
1559.0400, -41.950
1559.0600, -41.958
1559.0800, -41.966
1559.1000, -41.974
1559.1200, -41.981
1559.1400, -41.989
1559.1600, -41.995
1559.1800, -42.007
1559.2000, -42.019
1559.2200, -42.023
1559.2400, -42.034
1559.2600, -42.042
1559.2800, -42.050
1559.3000, -42.050
1559.3200, -42.061
1559.3400, -42.076
1559.3600, -42.079
1559.3800, -42.090
1559.4000, -42.095
1559.4200, -42.105
1559.4400, -42.112
1559.4600, -42.123
1559.4800, -42.137
1559.5000, -42.136
1559.5200, -42.150
1559.5400, -42.161
1559.5600, -42.172
1559.5800, -42.179
1559.6000, -42.192
1559.6200, -42.195
1559.6400, -42.202
1559.6600, -42.212
1559.6800, -42.215
1559.7000, -42.224
1559.7200, -42.238
1559.7400, -42.247
1559.7600, -42.252
1559.7800, -42.262
1559.8000, -42.273
1559.8200, -42.282
1559.8400, -42.282
1559.8600, -42.287
1559.8800, -42.300
1559.9000, -42.309
1559.9200, -42.321
1559.9400, -42.327
1559.9600, -42.341
1559.9800, -42.352
1560.0000, -42.365
1560.0200, -42.374
1560.0400, -42.383
1560.0600, -42.391
1560.0800, -42.401
1560.1000, -42.410
1560.1200, -42.420
1560.1400, -42.428
1560.1600, -42.438
1560.1800, -42.449
1560.2000, -42.458
1560.2200, -42.473
1560.2400, -42.487
1560.2600, -42.499
1560.2800, -42.512
1560.3000, -42.525
1560.3200, -42.534
1560.3400, -42.544
1560.3600, -42.552
1560.3800, -42.559
1560.4000, -42.566
1560.4200, -42.579
1560.4400, -42.592
1560.4600, -42.605
1560.4800, -42.613
1560.5000, -42.626
1560.5200, -42.638
1560.5400, -42.651
1560.5600, -42.664
1560.5800, -42.674
1560.6000, -42.688
1560.6200, -42.702
1560.6400, -42.707
1560.6600, -42.729
1560.6800, -42.746
1560.7000, -42.756
1560.7200, -42.761
1560.7400, -42.774
1560.7600, -42.789
1560.7800, -42.796
1560.8000, -42.810
1560.8200, -42.812
1560.8400, -42.830
1560.8600, -42.842
1560.8800, -42.855
1560.9000, -42.868
1560.9200, -42.882
1560.9400, -42.892
1560.9600, -42.900
1560.9800, -42.912
1561.0000, -42.926
1561.0200, -42.939
1561.0400, -42.950
1561.0600, -42.964
1561.0800, -42.977
1561.1000, -42.985
1561.1200, -43.004
1561.1400, -43.013
1561.1600, -43.033
1561.1800, -43.046
1561.2000, -43.059
1561.2200, -43.069
1561.2400, -43.082
1561.2600, -43.093
1561.2800, -43.103
1561.3000, -43.121
1561.3200, -43.135
1561.3400, -43.151
1561.3600, -43.163
1561.3800, -43.177
1561.4000, -43.193
1561.4200, -43.207
1561.4400, -43.226
1561.4600, -43.238
1561.4800, -43.254
1561.5000, -43.267
1561.5200, -43.278
1561.5400, -43.294
1561.5600, -43.313
1561.5800, -43.322
1561.6000, -43.335
1561.6200, -43.349
1561.6400, -43.367
1561.6600, -43.377
1561.6800, -43.395
1561.7000, -43.404
1561.7200, -43.429
1561.7400, -43.444
1561.7600, -43.459
1561.7800, -43.471
1561.8000, -43.486
1561.8200, -43.496
1561.8400, -43.510
1561.8600, -43.524
1561.8800, -43.539
1561.9000, -43.551
1561.9200, -43.568
1561.9400, -43.582
1561.9600, -43.590
1561.9800, -43.607
1562.0000, -43.621
1562.0200, -43.638
1562.0400, -43.657
1562.0600, -43.671
1562.0800, -43.690
1562.1000, -43.706
1562.1200, -43.722
1562.1400, -43.735
1562.1600, -43.748
1562.1800, -43.771
1562.2000, -43.791
1562.2200, -43.800
1562.2400, -43.815
1562.2600, -43.830
1562.2800, -43.845
1562.3000, -43.858
1562.3200, -43.878
1562.3400, -43.894
1562.3600, -43.910
1562.3800, -43.928
1562.4000, -43.939
1562.4200, -43.961
1562.4400, -43.982
1562.4600, -43.997
1562.4800, -44.006
1562.5000, -44.021
1562.5200, -44.039
1562.5400, -44.056
1562.5600, -44.071
1562.5800, -44.085
1562.6000, -44.107
1562.6200, -44.126
1562.6400, -44.142
1562.6600, -44.157
1562.6800, -44.168
1562.7000, -44.188
1562.7200, -44.200
1562.7400, -44.218
1562.7600, -44.237
1562.7800, -44.252
1562.8000, -44.269
1562.8200, -44.286
1562.8400, -44.303
1562.8600, -44.321
1562.8800, -44.333
1562.9000, -44.352
1562.9200, -44.374
1562.9400, -44.393
1562.9600, -44.409
1562.9800, -44.424
1563.0000, -44.441
1563.0200, -44.460
1563.0400, -44.473
1563.0600, -44.494
1563.0800, -44.514
1563.1000, -44.534
1563.1200, -44.550
1563.1400, -44.569
1563.1600, -44.584
1563.1800, -44.595
1563.2000, -44.618
1563.2200, -44.632
1563.2400, -44.650
1563.2600, -44.670
1563.2800, -44.681
1563.3000, -44.699
1563.3200, -44.718
1563.3400, -44.732
1563.3600, -44.747
1563.3800, -44.766
1563.4000, -44.789
1563.4200, -44.807
1563.4400, -44.826
1563.4600, -44.839
1563.4800, -44.857
1563.5000, -44.880
1563.5200, -44.899
1563.5400, -44.917
1563.5600, -44.936
1563.5800, -44.951
1563.6000, -44.966
1563.6200, -44.984
1563.6400, -45.000
1563.6600, -45.020
1563.6800, -45.037
1563.7000, -45.062
1563.7200, -45.078
1563.7400, -45.099
1563.7600, -45.117
1563.7800, -45.134
1563.8000, -45.155
1563.8200, -45.173
1563.8400, -45.189
1563.8600, -45.210
1563.8800, -45.231
1563.9000, -45.248
1563.9200, -45.264
1563.9400, -45.280
1563.9600, -45.303
1563.9800, -45.321
1564.0000, -45.341
1564.0200, -45.354
1564.0400, -45.374
1564.0600, -45.383
1564.0800, -45.404
1564.1000, -45.428
1564.1200, -45.445
1564.1400, -45.463
1564.1600, -45.475
1564.1800, -45.489
1564.2000, -45.512
1564.2200, -45.534
1564.2400, -45.554
1564.2600, -45.568
1564.2800, -45.591
1564.3000, -45.609
1564.3200, -45.628
1564.3400, -45.645
1564.3600, -45.668
1564.3800, -45.689
1564.4000, -45.710
1564.4200, -45.729
1564.4400, -45.746
1564.4600, -45.766
1564.4800, -45.782
1564.5000, -45.805
1564.5200, -45.827
1564.5400, -45.845
1564.5600, -45.868
1564.5800, -45.884
1564.6000, -45.906
1564.6200, -45.925
1564.6400, -45.941
1564.6600, -45.963
1564.6800, -45.986
1564.7000, -46.007
1564.7200, -46.026
1564.7400, -46.044
1564.7600, -46.065
1564.7800, -46.085
1564.8000, -46.097
1564.8200, -46.116
1564.8400, -46.138
1564.8600, -46.156
1564.8800, -46.175
1564.9000, -46.199
1564.9200, -46.216
1564.9400, -46.229
1564.9600, -46.253
1564.9800, -46.274
1565.0000, -46.297
1565.0200, -46.316
1565.0400, -46.334
1565.0600, -46.350
1565.0800, -46.370
1565.1000, -46.393
1565.1200, -46.416
1565.1400, -46.432
1565.1600, -46.450
1565.1800, -46.471
1565.2000, -46.491
1565.2200, -46.511
1565.2400, -46.530
1565.2600, -46.552
1565.2800, -46.575
1565.3000, -46.594
1565.3200, -46.612
1565.3400, -46.631
1565.3600, -46.651
1565.3800, -46.671
1565.4000, -46.689
1565.4200, -46.716
1565.4400, -46.734
1565.4600, -46.757
1565.4800, -46.773
1565.5000, -46.793
1565.5200, -46.810
1565.5400, -46.830
1565.5600, -46.857
1565.5800, -46.876
1565.6000, -46.896
1565.6200, -46.916
1565.6400, -46.931
1565.6600, -46.953
1565.6800, -46.963
1565.7000, -46.982
1565.7200, -47.008
1565.7400, -47.026
1565.7600, -47.052
1565.7800, -47.068
1565.8000, -47.085
1565.8200, -47.100
1565.8400, -47.125
1565.8600, -47.144
1565.8800, -47.166
1565.9000, -47.184
1565.9200, -47.203
1565.9400, -47.225
1565.9600, -47.240
1565.9800, -47.263
1566.0000, -47.283
1566.0200, -47.306
1566.0400, -47.325
1566.0600, -47.347
1566.0800, -47.366
1566.1000, -47.387
1566.1200, -47.404
1566.1400, -47.426
1566.1600, -47.451
1566.1800, -47.466
1566.2000, -47.489
1566.2200, -47.508
1566.2400, -47.523
1566.2600, -47.548
1566.2800, -47.565
1566.3000, -47.588
1566.3200, -47.609
1566.3400, -47.631
1566.3600, -47.645
1566.3800, -47.669
1566.4000, -47.684
1566.4200, -47.709
1566.4400, -47.739
1566.4600, -47.752
1566.4800, -47.768
1566.5000, -47.790
1566.5200, -47.809
1566.5400, -47.835
1566.5600, -47.845
1566.5800, -47.861
1566.6000, -47.887
1566.6200, -47.908
1566.6400, -47.932
1566.6600, -47.951
1566.6800, -47.971
1566.7000, -47.980
1566.7200, -48.004
1566.7400, -48.029
1566.7600, -48.045
1566.7800, -48.067
1566.8000, -48.088
1566.8200, -48.102
1566.8400, -48.127
1566.8600, -48.147
1566.8800, -48.168
1566.9000, -48.185
1566.9200, -48.197
1566.9400, -48.221
1566.9600, -48.246
1566.9800, -48.260
1567.0000, -48.286
1567.0200, -48.307
1567.0400, -48.330
1567.0600, -48.348
1567.0800, -48.361
1567.1000, -48.387
1567.1200, -48.405
1567.1400, -48.426
1567.1600, -48.442
1567.1800, -48.465
1567.2000, -48.484
1567.2200, -48.503
1567.2400, -48.524
1567.2600, -48.550
1567.2800, -48.561
1567.3000, -48.585
1567.3200, -48.610
1567.3400, -48.625
1567.3600, -48.645
1567.3800, -48.667
1567.4000, -48.688
1567.4200, -48.708
1567.4400, -48.720
1567.4600, -48.742
1567.4800, -48.764
1567.5000, -48.786
1567.5200, -48.803
1567.5400, -48.827
1567.5600, -48.845
1567.5800, -48.858
1567.6000, -48.879
1567.6200, -48.907
1567.6400, -48.924
1567.6600, -48.948
1567.6800, -48.966
1567.7000, -48.984
1567.7200, -49.004
1567.7400, -49.026
1567.7600, -49.040
1567.7800, -49.068
1567.8000, -49.084
1567.8200, -49.099
1567.8400, -49.127
1567.8600, -49.141
1567.8800, -49.164
1567.9000, -49.187
1567.9200, -49.207
1567.9400, -49.227
1567.9600, -49.242
1567.9800, -49.258
1568.0000, -49.280
1568.0200, -49.299
1568.0400, -49.319
1568.0600, -49.340
1568.0800, -49.363
1568.1000, -49.379
1568.1200, -49.400
1568.1400, -49.419
1568.1600, -49.435
1568.1800, -49.455
1568.2000, -49.481
1568.2200, -49.497
1568.2400, -49.519
1568.2600, -49.538
1568.2800, -49.560
1568.3000, -49.576
1568.3200, -49.597
1568.3400, -49.620
1568.3600, -49.643
1568.3800, -49.659
1568.4000, -49.683
1568.4200, -49.695
1568.4400, -49.716
1568.4600, -49.734
1568.4800, -49.758
1568.5000, -49.778
1568.5200, -49.796
1568.5400, -49.814
1568.5600, -49.829
1568.5800, -49.849
1568.6000, -49.868
1568.6200, -49.898
1568.6400, -49.917
1568.6600, -49.932
1568.6800, -49.947
1568.7000, -49.973
1568.7200, -49.990
1568.7400, -50.011
1568.7600, -50.035
1568.7800, -50.053
1568.8000, -50.074
1568.8200, -50.092
1568.8400, -50.114
1568.8600, -50.133
1568.8800, -50.149
1568.9000, -50.171
1568.9200, -50.186
1568.9400, -50.208
1568.9600, -50.226
1568.9800, -50.246
1569.0000, -50.268
1569.0200, -50.285
1569.0400, -50.305
1569.0600, -50.320
1569.0800, -50.342
1569.1000, -50.368
1569.1200, -50.385
1569.1400, -50.403
1569.1600, -50.430
1569.1800, -50.440
1569.2000, -50.460
1569.2200, -50.480
1569.2400, -50.498
1569.2600, -50.519
1569.2800, -50.538
1569.3000, -50.554
1569.3200, -50.575
1569.3400, -50.598
1569.3600, -50.610
1569.3800, -50.629
1569.4000, -50.653
1569.4200, -50.669
1569.4400, -50.686
1569.4600, -50.707
1569.4800, -50.724
1569.5000, -50.744
1569.5200, -50.763
1569.5400, -50.777
1569.5600, -50.801
1569.5800, -50.819
1569.6000, -50.842
1569.6200, -50.862
1569.6400, -50.877
1569.6600, -50.901
1569.6800, -50.924
1569.7000, -50.940
1569.7200, -50.959
1569.7400, -50.977
1569.7600, -50.992
1569.7800, -51.013
1569.8000, -51.026
1569.8200, -51.056
1569.8400, -51.064
1569.8600, -51.089
1569.8800, -51.111
1569.9000, -51.121
1569.9200, -51.146
1569.9400, -51.167
1569.9600, -51.189
1569.9800, -51.199
1570.0000, -51.214
1570.0200, -51.238
1570.0400, -51.259
1570.0600, -51.272
1570.0800, -51.291
1570.1000, -51.315
1570.1200, -51.331
1570.1400, -51.349
1570.1600, -51.370
1570.1800, -51.387
1570.2000, -51.409
1570.2200, -51.427
1570.2400, -51.445
1570.2600, -51.464
1570.2800, -51.482
1570.3000, -51.500
1570.3200, -51.519
1570.3400, -51.534
1570.3600, -51.556
1570.3800, -51.574
1570.4000, -51.592
1570.4200, -51.603
1570.4400, -51.628
1570.4600, -51.646
1570.4800, -51.667
1570.5000, -51.690
1570.5200, -51.702
1570.5400, -51.723
1570.5600, -51.738
1570.5800, -51.760
1570.6000, -51.776
1570.6200, -51.800
1570.6400, -51.812
1570.6600, -51.832
1570.6800, -51.853
1570.7000, -51.868
1570.7200, -51.890
1570.7400, -51.912
1570.7600, -51.929
1570.7800, -51.944
1570.8000, -51.963
1570.8200, -51.980
1570.8400, -52.002
1570.8600, -52.021
1570.8800, -52.039
1570.9000, -52.055
1570.9200, -52.071
1570.9400, -52.091
1570.9600, -52.112
1570.9800, -52.129
1571.0000, -52.150
1571.0200, -52.165
1571.0400, -52.182
1571.0600, -52.201
1571.0800, -52.210
1571.1000, -52.229
1571.1200, -52.247
1571.1400, -52.270
1571.1600, -52.284
1571.1800, -52.300
1571.2000, -52.318
1571.2200, -52.339
1571.2400, -52.361
1571.2600, -52.384
1571.2800, -52.389
1571.3000, -52.409
1571.3200, -52.436
1571.3400, -52.450
1571.3600, -52.471
1571.3800, -52.491
1571.4000, -52.507
1571.4200, -52.524
1571.4400, -52.539
1571.4600, -52.557
1571.4800, -52.575
1571.5000, -52.600
1571.5200, -52.614
1571.5400, -52.633
1571.5600, -52.651
1571.5800, -52.669
1571.6000, -52.691
1571.6200, -52.703
1571.6400, -52.720
1571.6600, -52.739
1571.6800, -52.752
1571.7000, -52.771
1571.7200, -52.792
1571.7400, -52.809
1571.7600, -52.826
1571.7800, -52.840
1571.8000, -52.860
1571.8200, -52.880
1571.8400, -52.890
1571.8600, -52.910
1571.8800, -52.931
1571.9000, -52.942
1571.9200, -52.963
1571.9400, -52.975
1571.9600, -53.000
1571.9800, -53.016
1572.0000, -53.034
1572.0200, -53.050
1572.0400, -53.069
1572.0600, -53.090
1572.0800, -53.101
1572.1000, -53.121
1572.1200, -53.136
1572.1400, -53.158
1572.1600, -53.167
1572.1800, -53.191
1572.2000, -53.207
1572.2200, -53.224
1572.2400, -53.239
1572.2600, -53.260
1572.2800, -53.281
1572.3000, -53.286
1572.3200, -53.313
1572.3400, -53.330
1572.3600, -53.336
1572.3800, -53.358
1572.4000, -53.376
1572.4200, -53.389
1572.4400, -53.412
1572.4600, -53.422
1572.4800, -53.437
1572.5000, -53.457
1572.5200, -53.479
1572.5400, -53.491
1572.5600, -53.515
1572.5800, -53.529
1572.6000, -53.546
1572.6200, -53.561
1572.6400, -53.570
1572.6600, -53.592
1572.6800, -53.607
1572.7000, -53.617
1572.7200, -53.640
1572.7400, -53.655
1572.7600, -53.668
1572.7800, -53.685
1572.8000, -53.693
1572.8200, -53.711
1572.8400, -53.731
1572.8600, -53.744
1572.8800, -53.773
1572.9000, -53.780
1572.9200, -53.804
1572.9400, -53.815
1572.9600, -53.837
1572.9800, -53.848
1573.0000, -53.867
1573.0200, -53.880
1573.0400, -53.896
1573.0600, -53.913
1573.0800, -53.931
1573.1000, -53.951
1573.1200, -53.966
1573.1400, -53.982
1573.1600, -53.997
1573.1800, -54.016
1573.2000, -54.028
1573.2200, -54.043
1573.2400, -54.061
1573.2600, -54.078
1573.2800, -54.088
1573.3000, -54.103
1573.3200, -54.123
1573.3400, -54.138
1573.3600, -54.153
1573.3800, -54.170
1573.4000, -54.184
1573.4200, -54.200
1573.4400, -54.224
1573.4600, -54.227
1573.4800, -54.252
1573.5000, -54.267
1573.5200, -54.281
1573.5400, -54.292
1573.5600, -54.310
1573.5800, -54.319
1573.6000, -54.340
1573.6200, -54.361
1573.6400, -54.378
1573.6600, -54.387
1573.6800, -54.400
1573.7000, -54.419
1573.7200, -54.435
1573.7400, -54.444
1573.7600, -54.465
1573.7800, -54.481
1573.8000, -54.492
1573.8200, -54.508
1573.8400, -54.526
1573.8600, -54.530
1573.8800, -54.546
1573.9000, -54.565
1573.9200, -54.586
1573.9400, -54.602
1573.9600, -54.617
1573.9800, -54.630
1574.0000, -54.642
1574.0200, -54.658
1574.0400, -54.676
1574.0600, -54.687
1574.0800, -54.699
1574.1000, -54.717
1574.1200, -54.733
1574.1400, -54.745
1574.1600, -54.762
1574.1800, -54.785
1574.2000, -54.794
1574.2200, -54.813
1574.2400, -54.822
1574.2600, -54.838
1574.2800, -54.856
1574.3000, -54.867
1574.3200, -54.881
1574.3400, -54.903
1574.3600, -54.907
1574.3800, -54.921
1574.4000, -54.944
1574.4200, -54.962
1574.4400, -54.968
1574.4600, -54.983
1574.4800, -54.998
1574.5000, -55.013
1574.5200, -55.031
1574.5400, -55.046
1574.5600, -55.056
1574.5800, -55.075
1574.6000, -55.082
1574.6200, -55.097
1574.6400, -55.112
1574.6600, -55.130
1574.6800, -55.147
1574.7000, -55.164
1574.7200, -55.179
1574.7400, -55.187
1574.7600, -55.193
1574.7800, -55.212
1574.8000, -55.238
1574.8200, -55.238
1574.8400, -55.262
1574.8600, -55.282
1574.8800, -55.289
1574.9000, -55.307
1574.9200, -55.313
1574.9400, -55.332
1574.9600, -55.346
1574.9800, -55.355
1575.0000, -55.369
1575.0200, -55.385
1575.0400, -55.397
1575.0600, -55.413
1575.0800, -55.425
1575.1000, -55.448
1575.1200, -55.459
1575.1400, -55.462
1575.1600, -55.491
1575.1800, -55.501
1575.2000, -55.513
1575.2200, -55.523
1575.2400, -55.536
1575.2600, -55.555
1575.2800, -55.570
1575.3000, -55.582
1575.3200, -55.596
1575.3400, -55.611
1575.3600, -55.614
1575.3800, -55.642
1575.4000, -55.646
1575.4200, -55.661
1575.4400, -55.667
1575.4600, -55.696
1575.4800, -55.692
1575.5000, -55.715
1575.5200, -55.724
1575.5400, -55.743
1575.5600, -55.751
1575.5800, -55.768
1575.6000, -55.778
1575.6200, -55.781
1575.6400, -55.801
1575.6600, -55.823
1575.6800, -55.844
1575.7000, -55.847
1575.7200, -55.868
1575.7400, -55.880
1575.7600, -55.887
1575.7800, -55.901
1575.8000, -55.904
1575.8200, -55.937
1575.8400, -55.935
1575.8600, -55.947
1575.8800, -55.973
1575.9000, -55.986
1575.9200, -55.993
1575.9400, -56.014
1575.9600, -56.016
1575.9800, -56.033
1576.0000, -56.040
1576.0200, -56.061
1576.0400, -56.073
1576.0600, -56.089
1576.0800, -56.091
1576.1000, -56.105
1576.1200, -56.123
1576.1400, -56.138
1576.1600, -56.134
1576.1800, -56.155
1576.2000, -56.183
1576.2200, -56.174
1576.2400, -56.192
1576.2600, -56.211
1576.2800, -56.210
1576.3000, -56.234
1576.3200, -56.241
1576.3400, -56.255
1576.3600, -56.263
1576.3800, -56.286
1576.4000, -56.285
1576.4200, -56.302
1576.4400, -56.314
1576.4600, -56.328
1576.4800, -56.329
1576.5000, -56.343
1576.5200, -56.370
1576.5400, -56.379
1576.5600, -56.378
1576.5800, -56.384
1576.6000, -56.414
1576.6200, -56.423
1576.6400, -56.428
1576.6600, -56.443
1576.6800, -56.457
1576.7000, -56.471
1576.7200, -56.475
1576.7400, -56.487
1576.7600, -56.507
1576.7800, -56.515
1576.8000, -56.528
1576.8200, -56.535
1576.8400, -56.563
1576.8600, -56.558
1576.8800, -56.586
1576.9000, -56.586
1576.9200, -56.588
1576.9400, -56.611
1576.9600, -56.636
1576.9800, -56.629
1577.0000, -56.642
1577.0200, -56.652
1577.0400, -56.656
1577.0600, -56.689
1577.0800, -56.694
1577.1000, -56.705
1577.1200, -56.703
1577.1400, -56.715
1577.1600, -56.733
1577.1800, -56.746
1577.2000, -56.750
1577.2200, -56.759
1577.2400, -56.769
1577.2600, -56.785
1577.2800, -56.813
1577.3000, -56.802
1577.3200, -56.822
1577.3400, -56.834
1577.3600, -56.843
1577.3800, -56.866
1577.4000, -56.869
1577.4200, -56.878
1577.4400, -56.895
1577.4600, -56.916
1577.4800, -56.904
1577.5000, -56.934
1577.5200, -56.941
1577.5400, -56.944
1577.5600, -56.969
1577.5800, -56.974
1577.6000, -56.984
1577.6200, -57.005
1577.6400, -57.005
1577.6600, -57.018
1577.6800, -57.027
1577.7000, -57.050
1577.7200, -57.031
1577.7400, -57.047
1577.7600, -57.077
1577.7800, -57.065
1577.8000, -57.094
1577.8200, -57.098
1577.8400, -57.116
1577.8600, -57.113
1577.8800, -57.136
1577.9000, -57.143
1577.9200, -57.157
1577.9400, -57.159
1577.9600, -57.181
1577.9800, -57.183
1578.0000, -57.191
1578.0200, -57.218
1578.0400, -57.222
1578.0600, -57.226
1578.0800, -57.230
1578.1000, -57.251
1578.1200, -57.257
1578.1400, -57.263
1578.1600, -57.283
1578.1800, -57.304
1578.2000, -57.295
1578.2200, -57.314
1578.2400, -57.310
1578.2600, -57.331
1578.2800, -57.362
1578.3000, -57.344
1578.3200, -57.359
1578.3400, -57.376
1578.3600, -57.372
1578.3800, -57.416
1578.4000, -57.397
1578.4200, -57.409
1578.4400, -57.424
1578.4600, -57.426
1578.4800, -57.451
1578.5000, -57.449
1578.5200, -57.470
1578.5400, -57.482
1578.5600, -57.483
1578.5800, -57.504
1578.6000, -57.514
1578.6200, -57.511
1578.6400, -57.529
1578.6600, -57.537
1578.6800, -57.547
1578.7000, -57.560
1578.7200, -57.564
1578.7400, -57.571
1578.7600, -57.582
1578.7800, -57.589
1578.8000, -57.620
1578.8200, -57.619
1578.8400, -57.626
1578.8600, -57.633
1578.8800, -57.657
1578.9000, -57.647
1578.9200, -57.681
1578.9400, -57.669
1578.9600, -57.686
1578.9800, -57.682
1579.0000, -57.708
1579.0200, -57.713
1579.0400, -57.725
1579.0600, -57.725
1579.0800, -57.742
1579.1000, -57.755
1579.1200, -57.757
1579.1400, -57.780
1579.1600, -57.771
1579.1800, -57.789
1579.2000, -57.796
1579.2200, -57.800
1579.2400, -57.815
1579.2600, -57.836
1579.2800, -57.843
1579.3000, -57.828
1579.3200, -57.866
1579.3400, -57.872
1579.3600, -57.877
1579.3800, -57.881
1579.4000, -57.891
1579.4200, -57.908
1579.4400, -57.913
1579.4600, -57.920
1579.4800, -57.935
1579.5000, -57.949
1579.5200, -57.950
1579.5400, -57.945
1579.5600, -57.976
1579.5800, -57.974
1579.6000, -57.984
1579.6200, -57.997
1579.6400, -58.010
1579.6600, -58.010
1579.6800, -58.042
1579.7000, -58.019
1579.7200, -58.051
1579.7400, -58.047
1579.7600, -58.063
1579.7800, -58.074
1579.8000, -58.076
1579.8200, -58.083
1579.8400, -58.092
1579.8600, -58.112
1579.8800, -58.110
1579.9000, -58.119
1579.9200, -58.131
1579.9400, -58.129
1579.9600, -58.158
1579.9800, -58.151
1580.0000, -58.164
1580.0200, -58.188
1580.0400, -58.157
1580.0600, -58.206
1580.0800, -58.200
1580.1000, -58.196
1580.1200, -58.219
1580.1400, -58.223
1580.1600, -58.223
1580.1800, -58.257
1580.2000, -58.262
1580.2200, -58.256
1580.2400, -58.275
1580.2600, -58.284
1580.2800, -58.279
1580.3000, -58.286
1580.3200, -58.297
1580.3400, -58.310
1580.3600, -58.321
1580.3800, -58.329
1580.4000, -58.323
1580.4200, -58.343
1580.4400, -58.355
1580.4600, -58.351
1580.4800, -58.361
1580.5000, -58.368
1580.5200, -58.384
1580.5400, -58.416
1580.5600, -58.396
1580.5800, -58.406
1580.6000, -58.433
1580.6200, -58.429
1580.6400, -58.438
1580.6600, -58.443
1580.6800, -58.440
1580.7000, -58.447
1580.7200, -58.475
1580.7400, -58.482
1580.7600, -58.482
1580.7800, -58.494
1580.8000, -58.508
1580.8200, -58.506
1580.8400, -58.512
1580.8600, -58.522
1580.8800, -58.525
1580.9000, -58.549
1580.9200, -58.555
1580.9400, -58.557
1580.9600, -58.572
1580.9800, -58.572
1581.0000, -58.583
1581.0200, -58.600
1581.0400, -58.583
1581.0600, -58.607
1581.0800, -58.604
1581.1000, -58.626
1581.1200, -58.624
1581.1400, -58.639
1581.1600, -58.631
1581.1800, -58.633
1581.2000, -58.673
1581.2200, -58.667
1581.2400, -58.663
1581.2600, -58.671
1581.2800, -58.688
1581.3000, -58.718
1581.3200, -58.703
1581.3400, -58.715
1581.3600, -58.713
1581.3800, -58.733
1581.4000, -58.709
1581.4200, -58.742
1581.4400, -58.741
1581.4600, -58.768
1581.4800, -58.753
1581.5000, -58.775
1581.5200, -58.774
1581.5400, -58.788
1581.5600, -58.791
1581.5800, -58.783
1581.6000, -58.824
1581.6200, -58.810
1581.6400, -58.822
1581.6600, -58.819
1581.6800, -58.830
1581.7000, -58.849
1581.7200, -58.865
1581.7400, -58.857
1581.7600, -58.857
1581.7800, -58.899
1581.8000, -58.875
1581.8200, -58.869
1581.8400, -58.894
1581.8600, -58.901
1581.8800, -58.919
1581.9000, -58.904
1581.9200, -58.919
1581.9400, -58.932
1581.9600, -58.948
1581.9800, -58.945
1582.0000, -58.960
1582.0200, -58.945
1582.0400, -58.989
1582.0600, -58.982
1582.0800, -58.991
1582.1000, -58.963
1582.1200, -59.032
1582.1400, -59.013
1582.1600, -59.013
1582.1800, -59.002
1582.2000, -59.035
1582.2200, -59.029
1582.2400, -59.055
1582.2600, -59.016
1582.2800, -59.075
1582.3000, -59.071
1582.3200, -59.046
1582.3400, -59.078
1582.3600, -59.095
1582.3800, -59.085
1582.4000, -59.095
1582.4200, -59.080
1582.4400, -59.146
1582.4600, -59.090
1582.4800, -59.109
1582.5000, -59.113
1582.5200, -59.144
1582.5400, -59.148
1582.5600, -59.168
1582.5800, -59.152
1582.6000, -59.169
1582.6200, -59.147
1582.6400, -59.167
1582.6600, -59.193
1582.6800, -59.170
1582.7000, -59.188
1582.7200, -59.209
1582.7400, -59.195
1582.7600, -59.226
1582.7800, -59.227
1582.8000, -59.245
1582.8200, -59.241
1582.8400, -59.250
1582.8600, -59.252
1582.8800, -59.271
1582.9000, -59.279
1582.9200, -59.263
1582.9400, -59.280
1582.9600, -59.290
1582.9800, -59.294
1583.0000, -59.297
1583.0200, -59.308
1583.0400, -59.303
1583.0600, -59.322
1583.0800, -59.324
1583.1000, -59.344
1583.1200, -59.335
1583.1400, -59.339
1583.1600, -59.349
1583.1800, -59.368
1583.2000, -59.378
1583.2200, -59.381
1583.2400, -59.371
1583.2600, -59.382
1583.2800, -59.397
1583.3000, -59.392
1583.3200, -59.401
1583.3400, -59.395
1583.3600, -59.421
1583.3800, -59.420
1583.4000, -59.447
1583.4200, -59.443
1583.4400, -59.448
1583.4600, -59.461
1583.4800, -59.469
1583.5000, -59.455
1583.5200, -59.472
1583.5400, -59.477
1583.5600, -59.479
1583.5800, -59.498
1583.6000, -59.509
1583.6200, -59.526
1583.6400, -59.497
1583.6600, -59.516
1583.6800, -59.527
1583.7000, -59.543
1583.7200, -59.514
1583.7400, -59.557
1583.7600, -59.576
1583.7800, -59.537
1583.8000, -59.570
1583.8200, -59.575
1583.8400, -59.589
1583.8600, -59.549
1583.8800, -59.592
1583.9000, -59.574
1583.9200, -59.608
1583.9400, -59.602
1583.9600, -59.617
1583.9800, -59.630
1584.0000, -59.617
1584.0200, -59.620
1584.0400, -59.655
1584.0600, -59.648
1584.0800, -59.645
1584.1000, -59.642
1584.1200, -59.632
1584.1400, -59.696
1584.1600, -59.666
1584.1800, -59.667
1584.2000, -59.683
1584.2200, -59.696
1584.2400, -59.681
1584.2600, -59.718
1584.2800, -59.711
1584.3000, -59.696
1584.3200, -59.726
1584.3400, -59.705
1584.3600, -59.729
1584.3800, -59.736
1584.4000, -59.744
1584.4200, -59.730
1584.4400, -59.755
1584.4600, -59.765
1584.4800, -59.764
1584.5000, -59.764
1584.5200, -59.791
1584.5400, -59.768
1584.5600, -59.792
1584.5800, -59.797
1584.6000, -59.826
1584.6200, -59.820
1584.6400, -59.813
1584.6600, -59.834
1584.6800, -59.800
1584.7000, -59.837
1584.7200, -59.828
1584.7400, -59.845
1584.7600, -59.849
1584.7800, -59.841
1584.8000, -59.871
1584.8200, -59.849
1584.8400, -59.860
1584.8600, -59.862
1584.8800, -59.889
1584.9000, -59.894
1584.9200, -59.877
1584.9400, -59.895
1584.9600, -59.910
1584.9800, -59.912
1585.0000, -59.902
1585.0200, -59.916
1585.0400, -59.901
1585.0600, -59.921
1585.0800, -59.963
1585.1000, -59.930
1585.1200, -59.932
1585.1400, -59.959
1585.1600, -59.956
1585.1800, -59.950
1585.2000, -59.967
1585.2200, -59.984
1585.2400, -59.976
1585.2600, -59.968
1585.2800, -60.006
1585.3000, -60.014
1585.3200, -59.955
1585.3400, -60.022
1585.3600, -60.011
1585.3800, -60.009
1585.4000, -60.003
1585.4200, -60.027
1585.4400, -60.023
1585.4600, -60.022
1585.4800, -60.006
1585.5000, -60.037
1585.5200, -60.070
1585.5400, -60.044
1585.5600, -60.061
1585.5800, -60.073
1585.6000, -60.065
1585.6200, -60.087
1585.6400, -60.097
1585.6600, -60.088
1585.6800, -60.074
1585.7000, -60.073
1585.7200, -60.109
1585.7400, -60.087
1585.7600, -60.105
1585.7800, -60.103
1585.8000, -60.111
1585.8200, -60.126
1585.8400, -60.138
1585.8600, -60.159
1585.8800, -60.134
1585.9000, -60.144
1585.9200, -60.146
1585.9400, -60.149
1585.9600, -60.170
1585.9800, -60.165
1586.0000, -60.161
1586.0200, -60.163
1586.0400, -60.172
1586.0600, -60.187
1586.0800, -60.173
1586.1000, -60.217
1586.1200, -60.201
1586.1400, -60.211
1586.1600, -60.224
1586.1800, -60.202
1586.2000, -60.206
1586.2200, -60.230
1586.2400, -60.222
1586.2600, -60.236
1586.2800, -60.239
1586.3000, -60.255
1586.3200, -60.256
1586.3400, -60.259
1586.3600, -60.274
1586.3800, -60.248
1586.4000, -60.263
1586.4200, -60.279
1586.4400, -60.295
1586.4600, -60.295
1586.4800, -60.296
1586.5000, -60.308
1586.5200, -60.307
1586.5400, -60.297
1586.5600, -60.307
1586.5800, -60.320
1586.6000, -60.317
1586.6200, -60.326
1586.6400, -60.360
1586.6600, -60.340
1586.6800, -60.357
1586.7000, -60.367
1586.7200, -60.367
1586.7400, -60.330
1586.7600, -60.386
1586.7800, -60.381
1586.8000, -60.368
1586.8200, -60.386
1586.8400, -60.379
1586.8600, -60.400
1586.8800, -60.425
1586.9000, -60.399
1586.9200, -60.402
1586.9400, -60.426
1586.9600, -60.428
1586.9800, -60.416
1587.0000, -60.425
1587.0200, -60.436
1587.0400, -60.457
1587.0600, -60.428
1587.0800, -60.444
1587.1000, -60.451
1587.1200, -60.471
1587.1400, -60.461
1587.1600, -60.465
1587.1800, -60.472
1587.2000, -60.462
1587.2200, -60.520
1587.2400, -60.475
1587.2600, -60.500
1587.2800, -60.489
1587.3000, -60.486
1587.3200, -60.533
1587.3400, -60.535
1587.3600, -60.490
1587.3800, -60.555
1587.4000, -60.517
1587.4200, -60.506
1587.4400, -60.567
1587.4600, -60.551
1587.4800, -60.554
1587.5000, -60.552
1587.5200, -60.560
1587.5400, -60.530
1587.5600, -60.589
1587.5800, -60.561
1587.6000, -60.543
1587.6200, -60.585
1587.6400, -60.584
1587.6600, -60.602
1587.6800, -60.607
1587.7000, -60.580
1587.7200, -60.646
1587.7400, -60.614
1587.7600, -60.577
1587.7800, -60.652
1587.8000, -60.639
1587.8200, -60.610
1587.8400, -60.622
1587.8600, -60.650
1587.8800, -60.667
1587.9000, -60.662
1587.9200, -60.655
1587.9400, -60.658
1587.9600, -60.679
1587.9800, -60.694
1588.0000, -60.670
1588.0200, -60.665
1588.0400, -60.700
1588.0600, -60.697
1588.0800, -60.684
1588.1000, -60.713
1588.1200, -60.714
1588.1400, -60.725
1588.1600, -60.700
1588.1800, -60.713
1588.2000, -60.729
1588.2200, -60.711
1588.2400, -60.714
1588.2600, -60.728
1588.2800, -60.755
1588.3000, -60.728
1588.3200, -60.750
1588.3400, -60.742
1588.3600, -60.764
1588.3800, -60.762
1588.4000, -60.763
1588.4200, -60.761
1588.4400, -60.756
1588.4600, -60.775
1588.4800, -60.783
1588.5000, -60.785
1588.5200, -60.771
1588.5400, -60.801
1588.5600, -60.814
1588.5800, -60.781
1588.6000, -60.822
1588.6200, -60.806
1588.6400, -60.802
1588.6600, -60.839
1588.6800, -60.836
1588.7000, -60.832
1588.7200, -60.826
1588.7400, -60.850
1588.7600, -60.847
1588.7800, -60.860
1588.8000, -60.849
1588.8200, -60.866
1588.8400, -60.873
1588.8600, -60.862
1588.8800, -60.861
1588.9000, -60.868
1588.9200, -60.882
1588.9400, -60.882
1588.9600, -60.876
1588.9800, -60.917
1589.0000, -60.875
1589.0200, -60.902
1589.0400, -60.910
1589.0600, -60.920
1589.0800, -60.883
1589.1000, -60.951
1589.1200, -60.948
1589.1400, -60.897
1589.1600, -60.893
1589.1800, -60.957
1589.2000, -60.925
1589.2200, -60.945
1589.2400, -60.930
1589.2600, -60.934
1589.2800, -60.980
1589.3000, -60.952
1589.3200, -60.963
1589.3400, -60.991
1589.3600, -60.950
1589.3800, -61.009
1589.4000, -60.978
1589.4200, -61.004
1589.4400, -60.964
1589.4600, -60.994
1589.4800, -60.991
1589.5000, -61.014
1589.5200, -61.027
1589.5400, -61.043
1589.5600, -61.016
1589.5800, -61.021
1589.6000, -61.044
1589.6200, -61.068
1589.6400, -61.042
1589.6600, -61.043
1589.6800, -61.038
1589.7000, -61.049
1589.7200, -61.071
1589.7400, -61.082
1589.7600, -61.056
1589.7800, -61.097
1589.8000, -61.102
1589.8200, -61.071
1589.8400, -61.093
1589.8600, -61.053
1589.8800, -61.110
1589.9000, -61.090
1589.9200, -61.100
1589.9400, -61.099
1589.9600, -61.103
1589.9800, -61.109
1590.0000, -61.121
1590.0200, -61.095
1590.0400, -61.150
1590.0600, -61.123
1590.0800, -61.119
1590.1000, -61.180
1590.1200, -61.133
1590.1400, -61.140
1590.1600, -61.183
1590.1800, -61.169
1590.2000, -61.125
1590.2200, -61.176
1590.2400, -61.166
1590.2600, -61.200
1590.2800, -61.172
1590.3000, -61.170
1590.3200, -61.181
1590.3400, -61.196
1590.3600, -61.217
1590.3800, -61.201
1590.4000, -61.202
1590.4200, -61.183
1590.4400, -61.208
1590.4600, -61.228
1590.4800, -61.206
1590.5000, -61.186
1590.5200, -61.229
1590.5400, -61.262
1590.5600, -61.246
1590.5800, -61.259
1590.6000, -61.271
1590.6200, -61.285
1590.6400, -61.258
1590.6600, -61.243
1590.6800, -61.294
1590.7000, -61.257
1590.7200, -61.278
1590.7400, -61.312
1590.7600, -61.256
1590.7800, -61.266
1590.8000, -61.278
1590.8200, -61.299
1590.8400, -61.308
1590.8600, -61.303
1590.8800, -61.327
1590.9000, -61.302
1590.9200, -61.321
1590.9400, -61.381
1590.9600, -61.313
1590.9800, -61.327
1591.0000, -61.329
1591.0200, -61.376
1591.0400, -61.323
1591.0600, -61.340
1591.0800, -61.353
1591.1000, -61.358
1591.1200, -61.381
1591.1400, -61.360
1591.1600, -61.388
1591.1800, -61.375
1591.2000, -61.387
1591.2200, -61.359
1591.2400, -61.406
1591.2600, -61.372
1591.2800, -61.372
1591.3000, -61.393
1591.3200, -61.413
1591.3400, -61.430
1591.3600, -61.393
1591.3800, -61.428
1591.4000, -61.450
1591.4200, -61.435
1591.4400, -61.432
1591.4600, -61.446
1591.4800, -61.452
1591.5000, -61.464
1591.5200, -61.470
1591.5400, -61.467
1591.5600, -61.474
1591.5800, -61.465
1591.6000, -61.490
1591.6200, -61.440
1591.6400, -61.502
1591.6600, -61.480
1591.6800, -61.518
1591.7000, -61.460
1591.7200, -61.503
1591.7400, -61.511
1591.7600, -61.492
1591.7800, -61.511
1591.8000, -61.516
1591.8200, -61.509
1591.8400, -61.557
1591.8600, -61.509
1591.8800, -61.527
1591.9000, -61.528
1591.9200, -61.565
1591.9400, -61.539
1591.9600, -61.572
1591.9800, -61.551
1592.0000, -61.609
1592.0200, -61.530
1592.0400, -61.575
1592.0600, -61.554
1592.0800, -61.569
1592.1000, -61.556
1592.1200, -61.616
1592.1400, -61.557
1592.1600, -61.586
1592.1800, -61.581
1592.2000, -61.611
1592.2200, -61.606
1592.2400, -61.637
1592.2600, -61.610
1592.2800, -61.638
1592.3000, -61.654
1592.3200, -61.616
1592.3400, -61.629
1592.3600, -61.662
1592.3800, -61.654
1592.4000, -61.614
1592.4200, -61.669
1592.4400, -61.636
1592.4600, -61.717
1592.4800, -61.653
1592.5000, -61.635
1592.5200, -61.706
1592.5400, -61.654
1592.5600, -61.699
1592.5800, -61.643
1592.6000, -61.695
1592.6200, -61.715
1592.6400, -61.692
1592.6600, -61.688
1592.6800, -61.715
1592.7000, -61.723
1592.7200, -61.708
1592.7400, -61.727
1592.7600, -61.760
1592.7800, -61.719
1592.8000, -61.770
1592.8200, -61.702
1592.8400, -61.760
1592.8600, -61.760
1592.8800, -61.735
1592.9000, -61.744
1592.9200, -61.746
1592.9400, -61.794
1592.9600, -61.730
1592.9800, -61.782
1593.0000, -61.765
1593.0200, -61.762
1593.0400, -61.772
1593.0600, -61.772
1593.0800, -61.830
1593.1000, -61.797
1593.1200, -61.841
1593.1400, -61.767
1593.1600, -61.800
1593.1800, -61.825
1593.2000, -61.762
1593.2200, -61.858
1593.2400, -61.783
1593.2600, -61.800
1593.2800, -61.877
1593.3000, -61.831
1593.3200, -61.849
1593.3400, -61.850
1593.3600, -61.804
1593.3800, -61.859
1593.4000, -61.857
1593.4200, -61.834
1593.4400, -61.887
1593.4600, -61.856
1593.4800, -61.855
1593.5000, -61.873
1593.5200, -61.830
1593.5400, -61.880
1593.5600, -61.888
1593.5800, -61.890
1593.6000, -61.906
1593.6200, -61.893
1593.6400, -61.870
1593.6600, -61.911
1593.6800, -61.903
1593.7000, -61.912
1593.7200, -61.946
1593.7400, -61.882
1593.7600, -61.892
1593.7800, -61.927
1593.8000, -61.981
1593.8200, -61.923
1593.8400, -61.926
1593.8600, -61.943
1593.8800, -61.948
1593.9000, -61.950
1593.9200, -61.927
1593.9400, -61.963
1593.9600, -61.949
1593.9800, -62.014
1594.0000, -62.001
1594.0200, -61.958
1594.0400, -61.982
1594.0600, -61.995
1594.0800, -61.981
1594.1000, -61.987
1594.1200, -61.982
1594.1400, -62.030
1594.1600, -61.984
1594.1800, -62.006
1594.2000, -62.029
1594.2200, -62.029
1594.2400, -62.034
1594.2600, -62.034
1594.2800, -62.004
1594.3000, -62.021
1594.3200, -62.044
1594.3400, -62.045
1594.3600, -62.071
1594.3800, -62.072
1594.4000, -62.045
1594.4200, -62.053
1594.4400, -62.084
1594.4600, -62.067
1594.4800, -62.080
1594.5000, -62.074
1594.5200, -62.090
1594.5400, -62.090
1594.5600, -62.082
1594.5800, -62.064
1594.6000, -62.123
1594.6200, -62.107
1594.6400, -62.113
1594.6600, -62.101
1594.6800, -62.142
1594.7000, -62.090
1594.7200, -62.160
1594.7400, -62.090
1594.7600, -62.172
1594.7800, -62.103
1594.8000, -62.130
1594.8200, -62.172
1594.8400, -62.137
1594.8600, -62.145
1594.8800, -62.151
1594.9000, -62.172
1594.9200, -62.157
1594.9400, -62.209
1594.9600, -62.180
1594.9800, -62.138
1595.0000, -62.222
1595.0200, -62.181
1595.0400, -62.183
1595.0600, -62.242
1595.0800, -62.264
1595.1000, -62.173
1595.1200, -62.178
1595.1400, -62.235
1595.1600, -62.179
1595.1800, -62.218
1595.2000, -62.223
1595.2200, -62.276
1595.2400, -62.236
1595.2600, -62.240
1595.2800, -62.308
1595.3000, -62.243
1595.3200, -62.180
1595.3400, -62.331
1595.3600, -62.236
1595.3800, -62.265
1595.4000, -62.246
1595.4200, -62.248
1595.4400, -62.289
1595.4600, -62.257
1595.4800, -62.309
1595.5000, -62.300
1595.5200, -62.282
1595.5400, -62.346
1595.5600, -62.273
1595.5800, -62.336
1595.6000, -62.295
1595.6200, -62.354
1595.6400, -62.292
1595.6600, -62.335
1595.6800, -62.257
1595.7000, -62.354
1595.7200, -62.371
1595.7400, -62.298
1595.7600, -62.361
1595.7800, -62.341
1595.8000, -62.340
1595.8200, -62.372
1595.8400, -62.364
1595.8600, -62.366
1595.8800, -62.346
1595.9000, -62.386
1595.9200, -62.397
1595.9400, -62.380
1595.9600, -62.384
1595.9800, -62.411
1596.0000, -62.363
1596.0200, -62.407
1596.0400, -62.476
1596.0600, -62.425
1596.0800, -62.443
1596.1000, -62.398
1596.1200, -62.398
1596.1400, -62.487
1596.1600, -62.397
1596.1800, -62.386
1596.2000, -62.446
1596.2200, -62.422
1596.2400, -62.504
1596.2600, -62.497
1596.2800, -62.433
1596.3000, -62.417
1596.3200, -62.494
1596.3400, -62.430
1596.3600, -62.492
1596.3800, -62.462
1596.4000, -62.464
1596.4200, -62.442
1596.4400, -62.491
1596.4600, -62.468
1596.4800, -62.551
1596.5000, -62.451
1596.5200, -62.526
1596.5400, -62.497
1596.5600, -62.492
1596.5800, -62.547
1596.6000, -62.476
1596.6200, -62.515
1596.6400, -62.524
1596.6600, -62.575
1596.6800, -62.558
1596.7000, -62.608
1596.7200, -62.525
1596.7400, -62.588
1596.7600, -62.486
1596.7800, -62.566
1596.8000, -62.583
1596.8200, -62.548
1596.8400, -62.586
1596.8600, -62.573
1596.8800, -62.602
1596.9000, -62.590
1596.9200, -62.562
1596.9400, -62.618
1596.9600, -62.615
1596.9800, -62.588
1597.0000, -62.566
1597.0200, -62.636
1597.0400, -62.583
1597.0600, -62.590
1597.0800, -62.659
1597.1000, -62.581
1597.1200, -62.606
1597.1400, -62.622
1597.1600, -62.630
1597.1800, -62.620
1597.2000, -62.652
1597.2200, -62.656
1597.2400, -62.674
1597.2600, -62.635
1597.2800, -62.649
1597.3000, -62.696
1597.3200, -62.663
1597.3400, -62.706
1597.3600, -62.644
1597.3800, -62.631
1597.4000, -62.665
1597.4200, -62.624
1597.4400, -62.713
1597.4600, -62.743
1597.4800, -62.734
1597.5000, -62.704
1597.5200, -62.657
1597.5400, -62.725
1597.5600, -62.767
1597.5800, -62.698
1597.6000, -62.695
1597.6200, -62.767
1597.6400, -62.686
1597.6600, -62.695
1597.6800, -62.762
1597.7000, -62.721
1597.7200, -62.745
1597.7400, -62.781
1597.7600, -62.738
1597.7800, -62.738
1597.8000, -62.821
1597.8200, -62.691
1597.8400, -62.791
1597.8600, -62.750
1597.8800, -62.785
1597.9000, -62.831
1597.9200, -62.792
1597.9400, -62.803
1597.9600, -62.758
1597.9800, -62.807
1598.0000, -62.795
1598.0200, -62.757
1598.0400, -62.811
1598.0600, -62.844
1598.0800, -62.769
1598.1000, -62.824
1598.1200, -62.828
1598.1400, -62.818
1598.1600, -62.853
1598.1800, -62.823
1598.2000, -62.844
1598.2200, -62.818
1598.2400, -62.877
1598.2600, -62.873
1598.2800, -62.894
1598.3000, -62.843
1598.3200, -62.925
1598.3400, -62.893
1598.3600, -62.844
1598.3800, -62.871
1598.4000, -62.901
1598.4200, -62.874
1598.4400, -62.889
1598.4600, -62.859
1598.4800, -62.913
1598.5000, -62.862
1598.5200, -62.872
1598.5400, -62.956
1598.5600, -63.007
1598.5800, -62.861
1598.6000, -62.952
1598.6200, -62.936
1598.6400, -62.876
1598.6600, -63.003
1598.6800, -62.947
1598.7000, -62.881
1598.7200, -63.016
1598.7400, -62.896
1598.7600, -62.995
1598.7800, -62.893
1598.8000, -62.941
1598.8200, -63.020
1598.8400, -62.935
1598.8600, -62.975
1598.8800, -62.992
1598.9000, -63.061
1598.9200, -62.945
1598.9400, -63.013
1598.9600, -63.000
1598.9800, -62.959
1599.0000, -62.981
1599.0200, -63.038
1599.0400, -62.995
1599.0600, -63.046
1599.0800, -62.976
1599.1000, -63.019
1599.1200, -63.061
1599.1400, -62.995
1599.1600, -63.044
1599.1800, -63.046
1599.2000, -63.111
1599.2200, -63.030
1599.2400, -63.092
1599.2600, -63.067
1599.2800, -63.003
1599.3000, -63.058
1599.3200, -63.027
1599.3400, -63.127
1599.3600, -63.030
1599.3800, -63.089
1599.4000, -63.132
1599.4200, -63.124
1599.4400, -63.076
1599.4600, -63.207
1599.4800, -63.060
1599.5000, -63.150
1599.5200, -63.106
1599.5400, -63.136
1599.5600, -63.141
1599.5800, -63.075
1599.6000, -63.155
1599.6200, -63.128
1599.6400, -63.159
1599.6600, -63.102
1599.6800, -63.204
1599.7000, -63.132
1599.7200, -63.166
1599.7400, -63.131
1599.7600, -63.142
1599.7800, -63.173
1599.8000, -63.157
1599.8200, -63.162
1599.8400, -63.174
1599.8600, -63.170
1599.8800, -63.172
1599.9000, -63.224
1599.9200, -63.134
1599.9400, -63.189
1599.9600, -63.203
1599.9800, -63.235
1600.0000, -63.192
