70BCSV 	
// AQ6370B OPTICAL SPECTRUM ANALYZER //                 
25
"CTRWL",1550.000000
"SPAN", 100.000000
"START WL",1500.000000
"STOP WL",1600.000000
"WLFREQ", 0
"REFL",-28.8
"LSCL", 5.0
"RESLN",0.100
"AVG",   1
"SMPLAUTO",      0
"SMPL",       5001
"SMPLINTVL",0.0200
"HIGH1"
"MEAS"
"LSUNT",0
"NMSKH","OFF"
"RESCOR",0
"RESPARM", 9050
"FREQPARM", 9050






"[TRACE DATA]"
1500.0000, -61.827
1500.0200, -61.872
1500.0400, -61.817
1500.0600, -61.805
1500.0800, -61.844
1500.1000, -61.846
1500.1200, -61.783
1500.1400, -61.798
1500.1600, -61.825
1500.1800, -61.791
1500.2000, -61.819
1500.2200, -61.801
1500.2400, -61.793
1500.2600, -61.763
1500.2800, -61.767
1500.3000, -61.788
1500.3200, -61.778
1500.3400, -61.731
1500.3600, -61.749
1500.3800, -61.738
1500.4000, -61.723
1500.4200, -61.753
1500.4400, -61.716
1500.4600, -61.698
1500.4800, -61.746
1500.5000, -61.708
1500.5200, -61.697
1500.5400, -61.699
1500.5600, -61.695
1500.5800, -61.670
1500.6000, -61.678
1500.6200, -61.664
1500.6400, -61.669
1500.6600, -61.656
1500.6800, -61.643
1500.7000, -61.620
1500.7200, -61.665
1500.7400, -61.667
1500.7600, -61.621
1500.7800, -61.631
1500.8000, -61.587
1500.8200, -61.617
1500.8400, -61.615
1500.8600, -61.602
1500.8800, -61.604
1500.9000, -61.609
1500.9200, -61.610
1500.9400, -61.548
1500.9600, -61.550
1500.9800, -61.548
1501.0000, -61.557
1501.0200, -61.571
1501.0400, -61.558
1501.0600, -61.522
1501.0800, -61.558
1501.1000, -61.551
1501.1200, -61.541
1501.1400, -61.524
1501.1600, -61.486
1501.1800, -61.511
1501.2000, -61.516
1501.2200, -61.496
1501.2400, -61.505
1501.2600, -61.521
1501.2800, -61.458
1501.3000, -61.501
1501.3200, -61.463
1501.3400, -61.454
1501.3600, -61.461
1501.3800, -61.443
1501.4000, -61.455
1501.4200, -61.475
1501.4400, -61.417
1501.4600, -61.444
1501.4800, -61.398
1501.5000, -61.426
1501.5200, -61.415
1501.5400, -61.410
1501.5600, -61.392
1501.5800, -61.402
1501.6000, -61.375
1501.6200, -61.373
1501.6400, -61.378
1501.6600, -61.363
1501.6800, -61.371
1501.7000, -61.369
1501.7200, -61.361
1501.7400, -61.388
1501.7600, -61.334
1501.7800, -61.362
1501.8000, -61.330
1501.8200, -61.336
1501.8400, -61.319
1501.8600, -61.349
1501.8800, -61.328
1501.9000, -61.292
1501.9200, -61.312
1501.9400, -61.317
1501.9600, -61.286
1501.9800, -61.294
1502.0000, -61.279
1502.0200, -61.266
1502.0400, -61.251
1502.0600, -61.266
1502.0800, -61.264
1502.1000, -61.218
1502.1200, -61.227
1502.1400, -61.240
1502.1600, -61.235
1502.1800, -61.209
1502.2000, -61.236
1502.2200, -61.192
1502.2400, -61.208
1502.2600, -61.200
1502.2800, -61.187
1502.3000, -61.174
1502.3200, -61.184
1502.3400, -61.132
1502.3600, -61.187
1502.3800, -61.167
1502.4000, -61.120
1502.4200, -61.175
1502.4400, -61.098
1502.4600, -61.132
1502.4800, -61.134
1502.5000, -61.104
1502.5200, -61.110
1502.5400, -61.105
1502.5600, -61.100
1502.5800, -61.082
1502.6000, -61.074
1502.6200, -61.091
1502.6400, -61.063
1502.6600, -61.042
1502.6800, -61.068
1502.7000, -61.064
1502.7200, -61.033
1502.7400, -61.047
1502.7600, -61.010
1502.7800, -61.030
1502.8000, -61.019
1502.8200, -61.016
1502.8400, -60.996
1502.8600, -61.044
1502.8800, -61.024
1502.9000, -60.972
1502.9200, -60.971
1502.9400, -60.966
1502.9600, -60.952
1502.9800, -60.962
1503.0000, -60.953
1503.0200, -60.974
1503.0400, -60.939
1503.0600, -60.932
1503.0800, -60.918
1503.1000, -60.935
1503.1200, -60.919
1503.1400, -60.902
1503.1600, -60.903
1503.1800, -60.911
1503.2000, -60.880
1503.2200, -60.881
1503.2400, -60.873
1503.2600, -60.888
1503.2800, -60.830
1503.3000, -60.851
1503.3200, -60.834
1503.3400, -60.846
1503.3600, -60.839
1503.3800, -60.862
1503.4000, -60.797
1503.4200, -60.828
1503.4400, -60.804
1503.4600, -60.779
1503.4800, -60.781
1503.5000, -60.807
1503.5200, -60.768
1503.5400, -60.755
1503.5600, -60.758
1503.5800, -60.771
1503.6000, -60.758
1503.6200, -60.776
1503.6400, -60.736
1503.6600, -60.710
1503.6800, -60.730
1503.7000, -60.723
1503.7200, -60.711
1503.7400, -60.690
1503.7600, -60.713
1503.7800, -60.678
1503.8000, -60.691
1503.8200, -60.683
1503.8400, -60.716
1503.8600, -60.674
1503.8800, -60.631
1503.9000, -60.668
1503.9200, -60.649
1503.9400, -60.639
1503.9600, -60.630
1503.9800, -60.601
1504.0000, -60.641
1504.0200, -60.617
1504.0400, -60.628
1504.0600, -60.609
1504.0800, -60.638
1504.1000, -60.555
1504.1200, -60.572
1504.1400, -60.562
1504.1600, -60.569
1504.1800, -60.554
1504.2000, -60.544
1504.2200, -60.542
1504.2400, -60.526
1504.2600, -60.509
1504.2800, -60.527
1504.3000, -60.532
1504.3200, -60.496
1504.3400, -60.494
1504.3600, -60.488
1504.3800, -60.491
1504.4000, -60.484
1504.4200, -60.476
1504.4400, -60.461
1504.4600, -60.455
1504.4800, -60.431
1504.5000, -60.419
1504.5200, -60.423
1504.5400, -60.406
1504.5600, -60.412
1504.5800, -60.412
1504.6000, -60.408
1504.6200, -60.402
1504.6400, -60.370
1504.6600, -60.367
1504.6800, -60.395
1504.7000, -60.349
1504.7200, -60.366
1504.7400, -60.352
1504.7600, -60.345
1504.7800, -60.331
1504.8000, -60.340
1504.8200, -60.331
1504.8400, -60.326
1504.8600, -60.300
1504.8800, -60.330
1504.9000, -60.265
1504.9200, -60.272
1504.9400, -60.257
1504.9600, -60.304
1504.9800, -60.243
1505.0000, -60.238
1505.0200, -60.251
1505.0400, -60.241
1505.0600, -60.236
1505.0800, -60.223
1505.1000, -60.186
1505.1200, -60.201
1505.1400, -60.196
1505.1600, -60.198
1505.1800, -60.189
1505.2000, -60.159
1505.2200, -60.164
1505.2400, -60.173
1505.2600, -60.156
1505.2800, -60.136
1505.3000, -60.132
1505.3200, -60.127
1505.3400, -60.118
1505.3600, -60.114
1505.3800, -60.100
1505.4000, -60.098
1505.4200, -60.100
1505.4400, -60.076
1505.4600, -60.059
1505.4800, -60.049
1505.5000, -60.047
1505.5200, -60.050
1505.5400, -60.073
1505.5600, -60.033
1505.5800, -60.012
1505.6000, -60.014
1505.6200, -60.014
1505.6400, -60.013
1505.6600, -60.020
1505.6800, -59.981
1505.7000, -59.987
1505.7200, -59.977
1505.7400, -59.965
1505.7600, -59.960
1505.7800, -59.948
1505.8000, -59.966
1505.8200, -59.931
1505.8400, -59.934
1505.8600, -59.938
1505.8800, -59.899
1505.9000, -59.909
1505.9200, -59.885
1505.9400, -59.891
1505.9600, -59.875
1505.9800, -59.866
1506.0000, -59.873
1506.0200, -59.862
1506.0400, -59.847
1506.0600, -59.854
1506.0800, -59.827
1506.1000, -59.844
1506.1200, -59.819
1506.1400, -59.821
1506.1600, -59.807
1506.1800, -59.791
1506.2000, -59.751
1506.2200, -59.767
1506.2400, -59.755
1506.2600, -59.765
1506.2800, -59.761
1506.3000, -59.748
1506.3200, -59.734
1506.3400, -59.739
1506.3600, -59.728
1506.3800, -59.716
1506.4000, -59.716
1506.4200, -59.696
1506.4400, -59.708
1506.4600, -59.661
1506.4800, -59.687
1506.5000, -59.645
1506.5200, -59.660
1506.5400, -59.655
1506.5600, -59.637
1506.5800, -59.620
1506.6000, -59.631
1506.6200, -59.659
1506.6400, -59.615
1506.6600, -59.620
1506.6800, -59.599
1506.7000, -59.595
1506.7200, -59.575
1506.7400, -59.553
1506.7600, -59.576
1506.7800, -59.564
1506.8000, -59.543
1506.8200, -59.548
1506.8400, -59.521
1506.8600, -59.533
1506.8800, -59.522
1506.9000, -59.506
1506.9200, -59.482
1506.9400, -59.507
1506.9600, -59.479
1506.9800, -59.487
1507.0000, -59.465
1507.0200, -59.471
1507.0400, -59.441
1507.0600, -59.470
1507.0800, -59.438
1507.1000, -59.439
1507.1200, -59.420
1507.1400, -59.418
1507.1600, -59.405
1507.1800, -59.375
1507.2000, -59.389
1507.2200, -59.398
1507.2400, -59.380
1507.2600, -59.364
1507.2800, -59.359
1507.3000, -59.366
1507.3200, -59.351
1507.3400, -59.329
1507.3600, -59.317
1507.3800, -59.314
1507.4000, -59.305
1507.4200, -59.278
1507.4400, -59.305
1507.4600, -59.276
1507.4800, -59.269
1507.5000, -59.260
1507.5200, -59.257
1507.5400, -59.234
1507.5600, -59.236
1507.5800, -59.237
1507.6000, -59.226
1507.6200, -59.208
1507.6400, -59.218
1507.6600, -59.199
1507.6800, -59.193
1507.7000, -59.180
1507.7200, -59.172
1507.7400, -59.154
1507.7600, -59.170
1507.7800, -59.156
1507.8000, -59.134
1507.8200, -59.135
1507.8400, -59.123
1507.8600, -59.114
1507.8800, -59.111
1507.9000, -59.118
1507.9200, -59.085
1507.9400, -59.082
1507.9600, -59.074
1507.9800, -59.063
1508.0000, -59.065
1508.0200, -59.057
1508.0400, -59.016
1508.0600, -59.038
1508.0800, -59.026
1508.1000, -59.018
1508.1200, -58.990
1508.1400, -58.997
1508.1600, -58.992
1508.1800, -58.992
1508.2000, -58.973
1508.2200, -58.982
1508.2400, -58.970
1508.2600, -58.949
1508.2800, -58.947
1508.3000, -58.941
1508.3200, -58.936
1508.3400, -58.930
1508.3600, -58.915
1508.3800, -58.887
1508.4000, -58.875
1508.4200, -58.888
1508.4400, -58.879
1508.4600, -58.861
1508.4800, -58.866
1508.5000, -58.827
1508.5200, -58.823
1508.5400, -58.850
1508.5600, -58.858
1508.5800, -58.823
1508.6000, -58.795
1508.6200, -58.805
1508.6400, -58.779
1508.6600, -58.791
1508.6800, -58.776
1508.7000, -58.778
1508.7200, -58.772
1508.7400, -58.746
1508.7600, -58.726
1508.7800, -58.737
1508.8000, -58.726
1508.8200, -58.742
1508.8400, -58.722
1508.8600, -58.716
1508.8800, -58.721
1508.9000, -58.671
1508.9200, -58.683
1508.9400, -58.662
1508.9600, -58.657
1508.9800, -58.646
1509.0000, -58.656
1509.0200, -58.636
1509.0400, -58.624
1509.0600, -58.593
1509.0800, -58.608
1509.1000, -58.586
1509.1200, -58.598
1509.1400, -58.596
1509.1600, -58.559
1509.1800, -58.570
1509.2000, -58.551
1509.2200, -58.536
1509.2400, -58.536
1509.2600, -58.524
1509.2800, -58.503
1509.3000, -58.490
1509.3200, -58.492
1509.3400, -58.479
1509.3600, -58.461
1509.3800, -58.465
1509.4000, -58.455
1509.4200, -58.423
1509.4400, -58.434
1509.4600, -58.427
1509.4800, -58.440
1509.5000, -58.408
1509.5200, -58.402
1509.5400, -58.409
1509.5600, -58.395
1509.5800, -58.362
1509.6000, -58.362
1509.6200, -58.369
1509.6400, -58.367
1509.6600, -58.348
1509.6800, -58.324
1509.7000, -58.324
1509.7200, -58.312
1509.7400, -58.304
1509.7600, -58.309
1509.7800, -58.292
1509.8000, -58.282
1509.8200, -58.274
1509.8400, -58.264
1509.8600, -58.251
1509.8800, -58.245
1509.9000, -58.250
1509.9200, -58.221
1509.9400, -58.214
1509.9600, -58.209
1509.9800, -58.202
1510.0000, -58.185
1510.0200, -58.174
1510.0400, -58.159
1510.0600, -58.146
1510.0800, -58.159
1510.1000, -58.142
1510.1200, -58.129
1510.1400, -58.125
1510.1600, -58.127
1510.1800, -58.083
1510.2000, -58.080
1510.2200, -58.086
1510.2400, -58.066
1510.2600, -58.056
1510.2800, -58.052
1510.3000, -58.026
1510.3200, -58.019
1510.3400, -58.007
1510.3600, -57.995
1510.3800, -57.980
1510.4000, -57.980
1510.4200, -57.971
1510.4400, -57.957
1510.4600, -57.935
1510.4800, -57.944
1510.5000, -57.922
1510.5200, -57.922
1510.5400, -57.910
1510.5600, -57.894
1510.5800, -57.897
1510.6000, -57.893
1510.6200, -57.868
1510.6400, -57.838
1510.6600, -57.845
1510.6800, -57.850
1510.7000, -57.824
1510.7200, -57.809
1510.7400, -57.796
1510.7600, -57.794
1510.7800, -57.794
1510.8000, -57.771
1510.8200, -57.766
1510.8400, -57.769
1510.8600, -57.747
1510.8800, -57.724
1510.9000, -57.711
1510.9200, -57.716
1510.9400, -57.699
1510.9600, -57.699
1510.9800, -57.667
1511.0000, -57.655
1511.0200, -57.663
1511.0400, -57.637
1511.0600, -57.640
1511.0800, -57.629
1511.1000, -57.600
1511.1200, -57.595
1511.1400, -57.574
1511.1600, -57.576
1511.1800, -57.560
1511.2000, -57.548
1511.2200, -57.542
1511.2400, -57.517
1511.2600, -57.523
1511.2800, -57.535
1511.3000, -57.490
1511.3200, -57.490
1511.3400, -57.470
1511.3600, -57.454
1511.3800, -57.460
1511.4000, -57.442
1511.4200, -57.436
1511.4400, -57.408
1511.4600, -57.391
1511.4800, -57.391
1511.5000, -57.380
1511.5200, -57.370
1511.5400, -57.365
1511.5600, -57.333
1511.5800, -57.337
1511.6000, -57.325
1511.6200, -57.321
1511.6400, -57.311
1511.6600, -57.297
1511.6800, -57.281
1511.7000, -57.268
1511.7200, -57.259
1511.7400, -57.261
1511.7600, -57.243
1511.7800, -57.235
1511.8000, -57.208
1511.8200, -57.209
1511.8400, -57.212
1511.8600, -57.166
1511.8800, -57.168
1511.9000, -57.149
1511.9200, -57.144
1511.9400, -57.128
1511.9600, -57.124
1511.9800, -57.096
1512.0000, -57.109
1512.0200, -57.085
1512.0400, -57.082
1512.0600, -57.052
1512.0800, -57.059
1512.1000, -57.031
1512.1200, -57.034
1512.1400, -57.017
1512.1600, -57.005
1512.1800, -57.003
1512.2000, -56.989
1512.2200, -56.963
1512.2400, -56.972
1512.2600, -56.965
1512.2800, -56.934
1512.3000, -56.916
1512.3200, -56.922
1512.3400, -56.903
1512.3600, -56.904
1512.3800, -56.890
1512.4000, -56.878
1512.4200, -56.867
1512.4400, -56.851
1512.4600, -56.852
1512.4800, -56.828
1512.5000, -56.825
1512.5200, -56.812
1512.5400, -56.787
1512.5600, -56.772
1512.5800, -56.765
1512.6000, -56.760
1512.6200, -56.744
1512.6400, -56.732
1512.6600, -56.727
1512.6800, -56.724
1512.7000, -56.710
1512.7200, -56.691
1512.7400, -56.683
1512.7600, -56.676
1512.7800, -56.653
1512.8000, -56.641
1512.8200, -56.630
1512.8400, -56.626
1512.8600, -56.628
1512.8800, -56.589
1512.9000, -56.591
1512.9200, -56.577
1512.9400, -56.570
1512.9600, -56.559
1512.9800, -56.545
1513.0000, -56.526
1513.0200, -56.517
1513.0400, -56.508
1513.0600, -56.475
1513.0800, -56.477
1513.1000, -56.467
1513.1200, -56.455
1513.1400, -56.456
1513.1600, -56.433
1513.1800, -56.410
1513.2000, -56.402
1513.2200, -56.388
1513.2400, -56.371
1513.2600, -56.384
1513.2800, -56.353
1513.3000, -56.347
1513.3200, -56.335
1513.3400, -56.329
1513.3600, -56.301
1513.3800, -56.296
1513.4000, -56.298
1513.4200, -56.276
1513.4400, -56.278
1513.4600, -56.252
1513.4800, -56.244
1513.5000, -56.215
1513.5200, -56.210
1513.5400, -56.217
1513.5600, -56.189
1513.5800, -56.185
1513.6000, -56.161
1513.6200, -56.140
1513.6400, -56.157
1513.6600, -56.138
1513.6800, -56.110
1513.7000, -56.107
1513.7200, -56.090
1513.7400, -56.075
1513.7600, -56.061
1513.7800, -56.048
1513.8000, -56.032
1513.8200, -56.038
1513.8400, -56.003
1513.8600, -55.994
1513.8800, -55.983
1513.9000, -55.980
1513.9200, -55.963
1513.9400, -55.946
1513.9600, -55.942
1513.9800, -55.916
1514.0000, -55.906
1514.0200, -55.883
1514.0400, -55.882
1514.0600, -55.870
1514.0800, -55.857
1514.1000, -55.858
1514.1200, -55.837
1514.1400, -55.830
1514.1600, -55.822
1514.1800, -55.787
1514.2000, -55.775
1514.2200, -55.775
1514.2400, -55.763
1514.2600, -55.739
1514.2800, -55.736
1514.3000, -55.714
1514.3200, -55.708
1514.3400, -55.693
1514.3600, -55.683
1514.3800, -55.663
1514.4000, -55.656
1514.4200, -55.640
1514.4400, -55.615
1514.4600, -55.607
1514.4800, -55.592
1514.5000, -55.577
1514.5200, -55.564
1514.5400, -55.549
1514.5600, -55.539
1514.5800, -55.536
1514.6000, -55.528
1514.6200, -55.516
1514.6400, -55.511
1514.6600, -55.487
1514.6800, -55.465
1514.7000, -55.454
1514.7200, -55.442
1514.7400, -55.422
1514.7600, -55.413
1514.7800, -55.397
1514.8000, -55.379
1514.8200, -55.377
1514.8400, -55.376
1514.8600, -55.352
1514.8800, -55.339
1514.9000, -55.319
1514.9200, -55.304
1514.9400, -55.288
1514.9600, -55.275
1514.9800, -55.257
1515.0000, -55.240
1515.0200, -55.228
1515.0400, -55.218
1515.0600, -55.185
1515.0800, -55.187
1515.1000, -55.176
1515.1200, -55.170
1515.1400, -55.142
1515.1600, -55.135
1515.1800, -55.130
1515.2000, -55.111
1515.2200, -55.098
1515.2400, -55.069
1515.2600, -55.060
1515.2800, -55.045
1515.3000, -55.034
1515.3200, -55.022
1515.3400, -55.017
1515.3600, -55.001
1515.3800, -54.966
1515.4000, -54.956
1515.4200, -54.942
1515.4400, -54.921
1515.4600, -54.918
1515.4800, -54.890
1515.5000, -54.885
1515.5200, -54.876
1515.5400, -54.871
1515.5600, -54.848
1515.5800, -54.837
1515.6000, -54.830
1515.6200, -54.805
1515.6400, -54.791
1515.6600, -54.777
1515.6800, -54.750
1515.7000, -54.744
1515.7200, -54.719
1515.7400, -54.717
1515.7600, -54.686
1515.7800, -54.688
1515.8000, -54.676
1515.8200, -54.652
1515.8400, -54.648
1515.8600, -54.627
1515.8800, -54.609
1515.9000, -54.589
1515.9200, -54.569
1515.9400, -54.560
1515.9600, -54.542
1515.9800, -54.535
1516.0000, -54.497
1516.0200, -54.475
1516.0400, -54.463
1516.0600, -54.459
1516.0800, -54.449
1516.1000, -54.431
1516.1200, -54.436
1516.1400, -54.405
1516.1600, -54.394
1516.1800, -54.378
1516.2000, -54.354
1516.2200, -54.342
1516.2400, -54.330
1516.2600, -54.325
1516.2800, -54.303
1516.3000, -54.301
1516.3200, -54.270
1516.3400, -54.246
1516.3600, -54.237
1516.3800, -54.238
1516.4000, -54.196
1516.4200, -54.166
1516.4400, -54.157
1516.4600, -54.157
1516.4800, -54.135
1516.5000, -54.116
1516.5200, -54.104
1516.5400, -54.091
1516.5600, -54.072
1516.5800, -54.043
1516.6000, -54.035
1516.6200, -54.026
1516.6400, -53.997
1516.6600, -53.980
1516.6800, -53.967
1516.7000, -53.948
1516.7200, -53.939
1516.7400, -53.919
1516.7600, -53.895
1516.7800, -53.883
1516.8000, -53.868
1516.8200, -53.848
1516.8400, -53.830
1516.8600, -53.803
1516.8800, -53.787
1516.9000, -53.769
1516.9200, -53.762
1516.9400, -53.736
1516.9600, -53.713
1516.9800, -53.699
1517.0000, -53.693
1517.0200, -53.669
1517.0400, -53.650
1517.0600, -53.631
1517.0800, -53.613
1517.1000, -53.593
1517.1200, -53.565
1517.1400, -53.564
1517.1600, -53.541
1517.1800, -53.525
1517.2000, -53.505
1517.2200, -53.492
1517.2400, -53.474
1517.2600, -53.451
1517.2800, -53.414
1517.3000, -53.428
1517.3200, -53.410
1517.3400, -53.391
1517.3600, -53.343
1517.3800, -53.338
1517.4000, -53.323
1517.4200, -53.309
1517.4400, -53.291
1517.4600, -53.272
1517.4800, -53.250
1517.5000, -53.229
1517.5200, -53.198
1517.5400, -53.192
1517.5600, -53.182
1517.5800, -53.147
1517.6000, -53.139
1517.6200, -53.131
1517.6400, -53.100
1517.6600, -53.084
1517.6800, -53.060
1517.7000, -53.032
1517.7200, -53.007
1517.7400, -52.990
1517.7600, -52.962
1517.7800, -52.952
1517.8000, -52.931
1517.8200, -52.908
1517.8400, -52.884
1517.8600, -52.860
1517.8800, -52.844
1517.9000, -52.840
1517.9200, -52.814
1517.9400, -52.787
1517.9600, -52.759
1517.9800, -52.743
1518.0000, -52.730
1518.0200, -52.709
1518.0400, -52.686
1518.0600, -52.663
1518.0800, -52.636
1518.1000, -52.617
1518.1200, -52.603
1518.1400, -52.585
1518.1600, -52.566
1518.1800, -52.535
1518.2000, -52.516
1518.2200, -52.491
1518.2400, -52.476
1518.2600, -52.473
1518.2800, -52.454
1518.3000, -52.420
1518.3200, -52.387
1518.3400, -52.372
1518.3600, -52.365
1518.3800, -52.342
1518.4000, -52.317
1518.4200, -52.291
1518.4400, -52.267
1518.4600, -52.244
1518.4800, -52.217
1518.5000, -52.196
1518.5200, -52.174
1518.5400, -52.147
1518.5600, -52.131
1518.5800, -52.100
1518.6000, -52.084
1518.6200, -52.064
1518.6400, -52.034
1518.6600, -52.008
1518.6800, -51.990
1518.7000, -51.961
1518.7200, -51.941
1518.7400, -51.916
1518.7600, -51.890
1518.7800, -51.869
1518.8000, -51.857
1518.8200, -51.834
1518.8400, -51.818
1518.8600, -51.794
1518.8800, -51.762
1518.9000, -51.739
1518.9200, -51.709
1518.9400, -51.689
1518.9600, -51.667
1518.9800, -51.645
1519.0000, -51.621
1519.0200, -51.590
1519.0400, -51.570
1519.0600, -51.541
1519.0800, -51.521
1519.1000, -51.502
1519.1200, -51.466
1519.1400, -51.446
1519.1600, -51.410
1519.1800, -51.401
1519.2000, -51.387
1519.2200, -51.360
1519.2400, -51.324
1519.2600, -51.283
1519.2800, -51.253
1519.3000, -51.247
1519.3200, -51.219
1519.3400, -51.174
1519.3600, -51.150
1519.3800, -51.140
1519.4000, -51.097
1519.4200, -51.092
1519.4400, -51.053
1519.4600, -51.016
1519.4800, -50.996
1519.5000, -50.982
1519.5200, -50.949
1519.5400, -50.913
1519.5600, -50.902
1519.5800, -50.857
1519.6000, -50.829
1519.6200, -50.810
1519.6400, -50.773
1519.6600, -50.764
1519.6800, -50.720
1519.7000, -50.693
1519.7200, -50.677
1519.7400, -50.658
1519.7600, -50.613
1519.7800, -50.590
1519.8000, -50.569
1519.8200, -50.528
1519.8400, -50.501
1519.8600, -50.474
1519.8800, -50.445
1519.9000, -50.411
1519.9200, -50.391
1519.9400, -50.358
1519.9600, -50.335
1519.9800, -50.307
1520.0000, -50.273
1520.0200, -50.252
1520.0400, -50.220
1520.0600, -50.180
1520.0800, -50.155
1520.1000, -50.116
1520.1200, -50.111
1520.1400, -50.075
1520.1600, -50.050
1520.1800, -50.008
1520.2000, -49.964
1520.2200, -49.946
1520.2400, -49.923
1520.2600, -49.877
1520.2800, -49.846
1520.3000, -49.815
1520.3200, -49.790
1520.3400, -49.758
1520.3600, -49.732
1520.3800, -49.692
1520.4000, -49.656
1520.4200, -49.627
1520.4400, -49.610
1520.4600, -49.565
1520.4800, -49.532
1520.5000, -49.512
1520.5200, -49.466
1520.5400, -49.432
1520.5600, -49.403
1520.5800, -49.364
1520.6000, -49.332
1520.6200, -49.295
1520.6400, -49.261
1520.6600, -49.233
1520.6800, -49.214
1520.7000, -49.157
1520.7200, -49.144
1520.7400, -49.101
1520.7600, -49.074
1520.7800, -49.036
1520.8000, -48.991
1520.8200, -48.968
1520.8400, -48.932
1520.8600, -48.901
1520.8800, -48.867
1520.9000, -48.826
1520.9200, -48.789
1520.9400, -48.755
1520.9600, -48.726
1520.9800, -48.693
1521.0000, -48.650
1521.0200, -48.618
1521.0400, -48.570
1521.0600, -48.551
1521.0800, -48.529
1521.1000, -48.491
1521.1200, -48.435
1521.1400, -48.394
1521.1600, -48.370
1521.1800, -48.343
1521.2000, -48.301
1521.2200, -48.257
1521.2400, -48.219
1521.2600, -48.192
1521.2800, -48.155
1521.3000, -48.117
1521.3200, -48.082
1521.3400, -48.049
1521.3600, -48.005
1521.3800, -47.975
1521.4000, -47.920
1521.4200, -47.887
1521.4400, -47.856
1521.4600, -47.809
1521.4800, -47.774
1521.5000, -47.740
1521.5200, -47.696
1521.5400, -47.658
1521.5600, -47.620
1521.5800, -47.576
1521.6000, -47.546
1521.6200, -47.516
1521.6400, -47.467
1521.6600, -47.436
1521.6800, -47.392
1521.7000, -47.346
1521.7200, -47.307
1521.7400, -47.272
1521.7600, -47.240
1521.7800, -47.203
1521.8000, -47.163
1521.8200, -47.129
1521.8400, -47.077
1521.8600, -47.033
1521.8800, -47.003
1521.9000, -46.964
1521.9200, -46.930
1521.9400, -46.884
1521.9600, -46.850
1521.9800, -46.796
1522.0000, -46.759
1522.0200, -46.716
1522.0400, -46.678
1522.0600, -46.639
1522.0800, -46.597
1522.1000, -46.569
1522.1200, -46.539
1522.1400, -46.492
1522.1600, -46.447
1522.1800, -46.407
1522.2000, -46.371
1522.2200, -46.333
1522.2400, -46.285
1522.2600, -46.244
1522.2800, -46.196
1522.3000, -46.158
1522.3200, -46.128
1522.3400, -46.079
1522.3600, -46.053
1522.3800, -46.004
1522.4000, -45.951
1522.4200, -45.914
1522.4400, -45.873
1522.4600, -45.834
1522.4800, -45.793
1522.5000, -45.744
1522.5200, -45.701
1522.5400, -45.664
1522.5600, -45.638
1522.5800, -45.584
1522.6000, -45.523
1522.6200, -45.474
1522.6400, -45.455
1522.6600, -45.412
1522.6800, -45.366
1522.7000, -45.330
1522.7200, -45.296
1522.7400, -45.257
1522.7600, -45.215
1522.7800, -45.164
1522.8000, -45.124
1522.8200, -45.082
1522.8400, -45.044
1522.8600, -45.001
1522.8800, -44.968
1522.9000, -44.929
1522.9200, -44.890
1522.9400, -44.839
1522.9600, -44.793
1522.9800, -44.759
1523.0000, -44.716
1523.0200, -44.671
1523.0400, -44.630
1523.0600, -44.588
1523.0800, -44.553
1523.1000, -44.503
1523.1200, -44.463
1523.1400, -44.424
1523.1600, -44.381
1523.1800, -44.344
1523.2000, -44.299
1523.2200, -44.252
1523.2400, -44.212
1523.2600, -44.176
1523.2800, -44.130
1523.3000, -44.089
1523.3200, -44.045
1523.3400, -43.998
1523.3600, -43.954
1523.3800, -43.910
1523.4000, -43.872
1523.4200, -43.828
1523.4400, -43.787
1523.4600, -43.743
1523.4800, -43.710
1523.5000, -43.667
1523.5200, -43.620
1523.5400, -43.575
1523.5600, -43.536
1523.5800, -43.506
1523.6000, -43.455
1523.6200, -43.410
1523.6400, -43.371
1523.6600, -43.333
1523.6800, -43.294
1523.7000, -43.253
1523.7200, -43.213
1523.7400, -43.170
1523.7600, -43.129
1523.7800, -43.088
1523.8000, -43.051
1523.8200, -43.011
1523.8400, -42.967
1523.8600, -42.922
1523.8800, -42.881
1523.9000, -42.841
1523.9200, -42.802
1523.9400, -42.764
1523.9600, -42.726
1523.9800, -42.683
1524.0000, -42.643
1524.0200, -42.601
1524.0400, -42.558
1524.0600, -42.521
1524.0800, -42.477
1524.1000, -42.436
1524.1200, -42.392
1524.1400, -42.349
1524.1600, -42.313
1524.1800, -42.269
1524.2000, -42.230
1524.2200, -42.193
1524.2400, -42.152
1524.2600, -42.108
1524.2800, -42.063
1524.3000, -42.026
1524.3200, -41.986
1524.3400, -41.948
1524.3600, -41.904
1524.3800, -41.863
1524.4000, -41.823
1524.4200, -41.783
1524.4400, -41.745
1524.4600, -41.708
1524.4800, -41.670
1524.5000, -41.623
1524.5200, -41.584
1524.5400, -41.544
1524.5600, -41.506
1524.5800, -41.470
1524.6000, -41.432
1524.6200, -41.390
1524.6400, -41.352
1524.6600, -41.311
1524.6800, -41.271
1524.7000, -41.233
1524.7200, -41.194
1524.7400, -41.156
1524.7600, -41.120
1524.7800, -41.081
1524.8000, -41.041
1524.8200, -41.001
1524.8400, -40.963
1524.8600, -40.920
1524.8800, -40.881
1524.9000, -40.840
1524.9200, -40.801
1524.9400, -40.759
1524.9600, -40.718
1524.9800, -40.681
1525.0000, -40.643
1525.0200, -40.602
1525.0400, -40.561
1525.0600, -40.519
1525.0800, -40.477
1525.1000, -40.434
1525.1200, -40.397
1525.1400, -40.361
1525.1600, -40.325
1525.1800, -40.287
1525.2000, -40.244
1525.2200, -40.206
1525.2400, -40.168
1525.2600, -40.126
1525.2800, -40.087
1525.3000, -40.051
1525.3200, -40.011
1525.3400, -39.974
1525.3600, -39.938
1525.3800, -39.899
1525.4000, -39.864
1525.4200, -39.826
1525.4400, -39.785
1525.4600, -39.740
1525.4800, -39.702
1525.5000, -39.663
1525.5200, -39.623
1525.5400, -39.584
1525.5600, -39.549
1525.5800, -39.507
1525.6000, -39.467
1525.6200, -39.434
1525.6400, -39.396
1525.6600, -39.359
1525.6800, -39.321
1525.7000, -39.280
1525.7200, -39.240
1525.7400, -39.203
1525.7600, -39.164
1525.7800, -39.123
1525.8000, -39.080
1525.8200, -39.035
1525.8400, -39.002
1525.8600, -38.963
1525.8800, -38.923
1525.9000, -38.884
1525.9200, -38.849
1525.9400, -38.810
1525.9600, -38.772
1525.9800, -38.738
1526.0000, -38.700
1526.0200, -38.660
1526.0400, -38.627
1526.0600, -38.592
1526.0800, -38.549
1526.1000, -38.518
1526.1200, -38.479
1526.1400, -38.434
1526.1600, -38.395
1526.1800, -38.358
1526.2000, -38.313
1526.2200, -38.270
1526.2400, -38.227
1526.2600, -38.189
1526.2800, -38.153
1526.3000, -38.122
1526.3200, -38.083
1526.3400, -38.047
1526.3600, -38.017
1526.3800, -37.984
1526.4000, -37.943
1526.4200, -37.905
1526.4400, -37.871
1526.4600, -37.838
1526.4800, -37.803
1526.5000, -37.759
1526.5200, -37.728
1526.5400, -37.682
1526.5600, -37.647
1526.5800, -37.612
1526.6000, -37.577
1526.6200, -37.541
1526.6400, -37.505
1526.6600, -37.468
1526.6800, -37.439
1526.7000, -37.404
1526.7200, -37.360
1526.7400, -37.322
1526.7600, -37.291
1526.7800, -37.253
1526.8000, -37.214
1526.8200, -37.177
1526.8400, -37.142
1526.8600, -37.047
1526.8800, -37.048
1526.9000, -37.014
1526.9200, -36.975
1526.9400, -36.932
1526.9600, -36.885
1526.9800, -36.845
1527.0000, -36.813
1527.0200, -36.776
1527.0400, -36.745
1527.0600, -36.701
1527.0800, -36.663
1527.1000, -36.627
1527.1200, -36.589
1527.1400, -36.546
1527.1600, -36.502
1527.1800, -36.470
1527.2000, -36.437
1527.2200, -36.401
1527.2400, -36.364
1527.2600, -36.338
1527.2800, -36.297
1527.3000, -36.242
1527.3200, -36.203
1527.3400, -36.163
1527.3600, -36.131
1527.3800, -36.096
1527.4000, -36.065
1527.4200, -36.027
1527.4400, -35.983
1527.4600, -35.940
1527.4800, -35.892
1527.5000, -35.851
1527.5200, -35.815
1527.5400, -35.779
1527.5600, -35.734
1527.5800, -35.682
1527.6000, -35.665
1527.6200, -35.628
1527.6400, -35.589
1527.6600, -35.537
1527.6800, -35.486
1527.7000, -35.453
1527.7200, -35.413
1527.7400, -35.376
1527.7600, -35.326
1527.7800, -35.286
1527.8000, -35.238
1527.8200, -35.188
1527.8400, -35.151
1527.8600, -35.108
1527.8800, -35.071
1527.9000, -35.031
1527.9200, -34.997
1527.9400, -34.968
1527.9600, -34.919
1527.9800, -34.879
1528.0000, -34.835
1528.0200, -34.780
1528.0400, -34.729
1528.0600, -34.675
1528.0800, -34.639
1528.1000, -34.589
1528.1200, -34.547
1528.1400, -34.497
1528.1600, -34.468
1528.1800, -34.443
1528.2000, -34.400
1528.2200, -34.351
1528.2400, -34.291
1528.2600, -34.247
1528.2800, -34.218
1528.3000, -34.182
1528.3200, -34.151
1528.3400, -34.114
1528.3600, -34.069
1528.3800, -34.034
1528.4000, -33.991
1528.4200, -33.956
1528.4400, -33.927
1528.4600, -33.903
1528.4800, -33.858
1528.5000, -33.807
1528.5200, -33.773
1528.5400, -33.736
1528.5600, -33.705
1528.5800, -33.670
1528.6000, -33.622
1528.6200, -33.601
1528.6400, -33.571
1528.6600, -33.538
1528.6800, -33.499
1528.7000, -33.451
1528.7200, -33.405
1528.7400, -33.356
1528.7600, -33.301
1528.7800, -33.259
1528.8000, -33.206
1528.8200, -33.153
1528.8400, -33.127
1528.8600, -33.055
1528.8800, -33.016
1528.9000, -32.974
1528.9200, -32.938
1528.9400, -32.884
1528.9600, -32.832
1528.9800, -32.778
1529.0000, -32.726
1529.0200, -32.684
1529.0400, -32.629
1529.0600, -32.583
1529.0800, -32.535
1529.1000, -32.513
1529.1200, -32.479
1529.1400, -32.419
1529.1600, -32.345
1529.1800, -32.300
1529.2000, -32.254
1529.2200, -32.216
1529.2400, -32.177
1529.2600, -32.151
1529.2800, -32.115
1529.3000, -32.056
1529.3200, -32.007
1529.3400, -31.968
1529.3600, -31.925
1529.3800, -31.879
1529.4000, -31.828
1529.4200, -31.793
1529.4400, -31.720
1529.4600, -31.669
1529.4800, -31.627
1529.5000, -31.606
1529.5200, -31.574
1529.5400, -31.579
1529.5600, -31.549
1529.5800, -31.495
1529.6000, -31.449
1529.6200, -31.382
1529.6400, -31.321
1529.6600, -31.286
1529.6800, -31.247
1529.7000, -31.210
1529.7200, -31.170
1529.7400, -31.126
1529.7600, -31.124
1529.7800, -31.056
1529.8000, -30.978
1529.8200, -30.946
1529.8400, -30.888
1529.8600, -30.839
1529.8800, -30.753
1529.9000, -30.805
1529.9200, -30.730
1529.9400, -30.734
1529.9600, -30.674
1529.9800, -30.575
1530.0000, -30.582
1530.0200, -30.562
1530.0400, -30.462
1530.0600, -30.397
1530.0800, -30.469
1530.1000, -30.315
1530.1200, -30.256
1530.1400, -30.320
1530.1600, -30.234
1530.1800, -30.280
1530.2000, -30.289
1530.2200, -30.379
1530.2400, -30.176
1530.2600, -30.174
1530.2800, -30.162
1530.3000, -30.270
1530.3200, -30.029
1530.3400, -30.163
1530.3600, -30.017
1530.3800, -29.986
1530.4000, -29.865
1530.4200, -29.873
1530.4400, -29.685
1530.4600, -29.762
1530.4800, -29.713
1530.5000, -29.700
1530.5200, -29.624
1530.5400, -29.550
1530.5600, -29.511
1530.5800, -29.391
1530.6000, -29.310
1530.6200, -29.220
1530.6400, -29.261
1530.6600, -29.186
1530.6800, -29.092
1530.7000, -29.188
1530.7200, -29.204
1530.7400, -29.221
1530.7600, -29.133
1530.7800, -29.092
1530.8000, -29.075
1530.8200, -29.106
1530.8400, -29.148
1530.8600, -29.131
1530.8800, -28.866
1530.9000, -29.059
1530.9200, -29.048
1530.9400, -28.823
1530.9600, -28.948
1530.9800, -28.885
1531.0000, -28.831
1531.0200, -28.851
1531.0400, -28.987
1531.0600, -28.822
1531.0800, -28.875
1531.1000, -28.865
1531.1200, -28.868
1531.1400, -28.858
1531.1600, -28.818
1531.1800, -28.786
1531.2000, -28.483
1531.2200, -28.569
1531.2400, -28.513
1531.2600, -28.284
1531.2800, -28.406
1531.3000, -28.305
1531.3200, -28.192
1531.3400, -27.640
1531.3600, -26.982
1531.3800, -27.803
1531.4000, -27.950
1531.4200, -28.031
1531.4400, -27.778
1531.4600, -27.302
1531.4800, -27.388
1531.5000, -28.022
1531.5200, -27.912
1531.5400, -27.514
1531.5600, -27.284
1531.5800, -27.903
1531.6000, -27.455
1531.6200, -27.369
1531.6400, -27.526
1531.6600, -27.530
1531.6800, -27.927
1531.7000, -27.832
1531.7200, -27.772
1531.7400, -27.228
1531.7600, -27.370
1531.7800, -27.741
1531.8000, -27.921
1531.8200, -27.320
1531.8400, -27.267
1531.8600, -27.725
1531.8800, -27.738
1531.9000, -27.603
1531.9200, -27.097
1531.9400, -26.719
1531.9600, -26.802
1531.9800, -26.574
1532.0000, -27.116
1532.0200, -27.372
1532.0400, -26.948
1532.0600, -27.527
1532.0800, -26.716
1532.1000, -25.430
1532.1200, -25.856
1532.1400, -27.822
1532.1600, -27.532
1532.1800, -27.690
1532.2000, -27.235
1532.2200, -27.899
1532.2400, -27.903
1532.2600, -28.161
1532.2800, -27.646
1532.3000, -28.073
1532.3200, -27.465
1532.3400, -27.532
1532.3600, -26.240
1532.3800, -27.302
1532.4000, -27.775
1532.4200, -27.400
1532.4400, -27.761
1532.4600, -28.188
1532.4800, -27.892
1532.5000, -27.039
1532.5200, -27.308
1532.5400, -27.115
1532.5600, -27.640
1532.5800, -28.007
1532.6000, -27.853
1532.6200, -28.140
1532.6400, -27.828
1532.6600, -27.788
1532.6800, -28.019
1532.7000, -27.064
1532.7200, -28.004
1532.7400, -26.775
1532.7600, -26.901
1532.7800, -27.986
1532.8000, -27.665
1532.8200, -27.617
1532.8400, -27.415
1532.8600, -26.888
1532.8800, -27.884
1532.9000, -27.883
1532.9200, -28.204
1532.9400, -28.324
1532.9600, -28.309
1532.9800, -28.185
1533.0000, -28.224
1533.0200, -28.163
1533.0400, -28.197
1533.0600, -28.478
1533.0800, -28.552
1533.1000, -28.504
1533.1200, -28.448
1533.1400, -28.341
1533.1600, -28.672
1533.1800, -27.651
1533.2000, -28.153
1533.2200, -28.517
1533.2400, -28.159
1533.2600, -28.677
1533.2800, -28.698
1533.3000, -28.397
1533.3200, -28.784
1533.3400, -28.977
1533.3600, -28.809
1533.3800, -28.748
1533.4000, -27.453
1533.4200, -29.086
1533.4400, -29.053
1533.4600, -29.266
1533.4800, -29.340
1533.5000, -29.390
1533.5200, -29.060
1533.5400, -29.705
1533.5600, -29.853
1533.5800, -29.867
1533.6000, -29.830
1533.6200, -29.941
1533.6400, -30.078
1533.6600, -30.186
1533.6800, -30.289
1533.7000, -30.251
1533.7200, -30.299
1533.7400, -30.462
1533.7600, -30.599
1533.7800, -30.583
1533.8000, -30.537
1533.8200, -30.683
1533.8400, -30.792
1533.8600, -31.018
1533.8800, -31.047
1533.9000, -31.117
1533.9200, -31.225
1533.9400, -31.362
1533.9600, -31.375
1533.9800, -31.524
1534.0000, -31.458
1534.0200, -31.531
1534.0400, -31.535
1534.0600, -31.616
1534.0800, -31.742
1534.1000, -31.739
1534.1200, -31.837
1534.1400, -31.847
1534.1600, -31.887
1534.1800, -32.009
1534.2000, -31.996
1534.2200, -32.057
1534.2400, -32.159
1534.2600, -32.211
1534.2800, -32.278
1534.3000, -32.298
1534.3200, -32.420
1534.3400, -32.523
1534.3600, -32.524
1534.3800, -32.602
1534.4000, -32.720
1534.4200, -32.788
1534.4400, -32.830
1534.4600, -33.004
1534.4800, -32.932
1534.5000, -33.013
1534.5200, -33.006
1534.5400, -33.115
1534.5600, -33.165
1534.5800, -33.268
1534.6000, -33.282
1534.6200, -33.414
1534.6400, -33.455
1534.6600, -33.543
1534.6800, -33.478
1534.7000, -33.533
1534.7200, -33.578
1534.7400, -33.655
1534.7600, -33.713
1534.7800, -33.779
1534.8000, -33.882
1534.8200, -33.963
1534.8400, -33.979
1534.8600, -34.055
1534.8800, -34.127
1534.9000, -34.227
1534.9200, -34.223
1534.9400, -34.347
1534.9600, -34.336
1534.9800, -34.396
1535.0000, -34.492
1535.0200, -34.574
1535.0400, -34.619
1535.0600, -34.636
1535.0800, -34.707
1535.1000, -34.723
1535.1200, -34.809
1535.1400, -34.854
1535.1600, -34.894
1535.1800, -34.946
1535.2000, -34.992
1535.2200, -35.052
1535.2400, -35.119
1535.2600, -35.172
1535.2800, -35.248
1535.3000, -35.289
1535.3200, -35.355
1535.3400, -35.405
1535.3600, -35.466
1535.3800, -35.524
1535.4000, -35.567
1535.4200, -35.615
1535.4400, -35.673
1535.4600, -35.731
1535.4800, -35.793
1535.5000, -35.845
1535.5200, -35.905
1535.5400, -35.963
1535.5600, -36.010
1535.5800, -36.065
1535.6000, -36.120
1535.6200, -36.184
1535.6400, -36.240
1535.6600, -36.297
1535.6800, -36.362
1535.7000, -36.418
1535.7200, -36.467
1535.7400, -36.521
1535.7600, -36.583
1535.7800, -36.634
1535.8000, -36.690
1535.8200, -36.740
1535.8400, -36.796
1535.8600, -36.846
1535.8800, -36.896
1535.9000, -36.929
1535.9200, -36.976
1535.9400, -37.021
1535.9600, -37.072
1535.9800, -37.118
1536.0000, -37.173
1536.0200, -37.230
1536.0400, -37.275
1536.0600, -37.320
1536.0800, -37.348
1536.1000, -37.400
1536.1200, -37.444
1536.1400, -37.487
1536.1600, -37.533
1536.1800, -37.588
1536.2000, -37.621
1536.2200, -37.664
1536.2400, -37.706
1536.2600, -37.745
1536.2800, -37.786
1536.3000, -37.823
1536.3200, -37.855
1536.3400, -37.902
1536.3600, -37.941
1536.3800, -37.978
1536.4000, -38.019
1536.4200, -38.050
1536.4400, -38.098
1536.4600, -38.153
1536.4800, -38.185
1536.5000, -38.208
1536.5200, -38.257
1536.5400, -38.299
1536.5600, -38.334
1536.5800, -38.368
1536.6000, -38.404
1536.6200, -38.439
1536.6400, -38.472
1536.6600, -38.507
1536.6800, -38.539
1536.7000, -38.571
1536.7200, -38.609
1536.7400, -38.641
1536.7600, -38.672
1536.7800, -38.718
1536.8000, -38.748
1536.8200, -38.775
1536.8400, -38.813
1536.8600, -38.849
1536.8800, -38.886
1536.9000, -38.912
1536.9200, -38.949
1536.9400, -38.994
1536.9600, -39.026
1536.9800, -39.057
1537.0000, -39.076
1537.0200, -39.117
1537.0400, -39.146
1537.0600, -39.175
1537.0800, -39.206
1537.1000, -39.240
1537.1200, -39.269
1537.1400, -39.298
1537.1600, -39.325
1537.1800, -39.344
1537.2000, -39.379
1537.2200, -39.408
1537.2400, -39.422
1537.2600, -39.452
1537.2800, -39.474
1537.3000, -39.499
1537.3200, -39.531
1537.3400, -39.554
1537.3600, -39.576
1537.3800, -39.617
1537.4000, -39.645
1537.4200, -39.645
1537.4400, -39.679
1537.4600, -39.707
1537.4800, -39.731
1537.5000, -39.758
1537.5200, -39.782
1537.5400, -39.806
1537.5600, -39.825
1537.5800, -39.848
1537.6000, -39.872
1537.6200, -39.900
1537.6400, -39.924
1537.6600, -39.943
1537.6800, -39.962
1537.7000, -39.981
1537.7200, -39.997
1537.7400, -40.016
1537.7600, -40.041
1537.7800, -40.066
1537.8000, -40.083
1537.8200, -40.098
1537.8400, -40.131
1537.8600, -40.157
1537.8800, -40.174
1537.9000, -40.193
1537.9200, -40.204
1537.9400, -40.234
1537.9600, -40.252
1537.9800, -40.264
1538.0000, -40.280
1538.0200, -40.307
1538.0400, -40.320
1538.0600, -40.339
1538.0800, -40.354
1538.1000, -40.372
1538.1200, -40.390
1538.1400, -40.410
1538.1600, -40.426
1538.1800, -40.444
1538.2000, -40.456
1538.2200, -40.469
1538.2400, -40.491
1538.2600, -40.501
1538.2800, -40.516
1538.3000, -40.533
1538.3200, -40.544
1538.3400, -40.550
1538.3600, -40.564
1538.3800, -40.578
1538.4000, -40.595
1538.4200, -40.612
1538.4400, -40.622
1538.4600, -40.636
1538.4800, -40.646
1538.5000, -40.660
1538.5200, -40.668
1538.5400, -40.691
1538.5600, -40.701
1538.5800, -40.714
1538.6000, -40.724
1538.6200, -40.741
1538.6400, -40.741
1538.6600, -40.749
1538.6800, -40.770
1538.7000, -40.782
1538.7200, -40.777
1538.7400, -40.781
1538.7600, -40.803
1538.7800, -40.815
1538.8000, -40.824
1538.8200, -40.823
1538.8400, -40.832
1538.8600, -40.844
1538.8800, -40.852
1538.9000, -40.859
1538.9200, -40.867
1538.9400, -40.879
1538.9600, -40.877
1538.9800, -40.887
1539.0000, -40.880
1539.0200, -40.907
1539.0400, -40.910
1539.0600, -40.917
1539.0800, -40.924
1539.1000, -40.928
1539.1200, -40.934
1539.1400, -40.943
1539.1600, -40.952
1539.1800, -40.949
1539.2000, -40.953
1539.2200, -40.960
1539.2400, -40.956
1539.2600, -40.969
1539.2800, -40.978
1539.3000, -40.985
1539.3200, -40.996
1539.3400, -41.008
1539.3600, -41.008
1539.3800, -41.016
1539.4000, -41.017
1539.4200, -41.023
1539.4400, -41.027
1539.4600, -41.033
1539.4800, -41.039
1539.5000, -41.046
1539.5200, -41.055
1539.5400, -41.060
1539.5600, -41.057
1539.5800, -41.066
1539.6000, -41.076
1539.6200, -41.080
1539.6400, -41.079
1539.6600, -41.085
1539.6800, -41.096
1539.7000, -41.099
1539.7200, -41.103
1539.7400, -41.105
1539.7600, -41.106
1539.7800, -41.105
1539.8000, -41.102
1539.8200, -41.106
1539.8400, -41.107
1539.8600, -41.108
1539.8800, -41.112
1539.9000, -41.116
1539.9200, -41.105
1539.9400, -41.120
1539.9600, -41.126
1539.9800, -41.121
1540.0000, -41.121
1540.0200, -41.121
1540.0400, -41.121
1540.0600, -41.127
1540.0800, -41.128
1540.1000, -41.126
1540.1200, -41.143
1540.1400, -41.133
1540.1600, -41.129
1540.1800, -41.131
1540.2000, -41.131
1540.2200, -41.135
1540.2400, -41.137
1540.2600, -41.137
1540.2800, -41.134
1540.3000, -41.129
1540.3200, -41.129
1540.3400, -41.124
1540.3600, -41.125
1540.3800, -41.123
1540.4000, -41.124
1540.4200, -41.120
1540.4400, -41.118
1540.4600, -41.117
1540.4800, -41.112
1540.5000, -41.111
1540.5200, -41.111
1540.5400, -41.111
1540.5600, -41.112
1540.5800, -41.113
1540.6000, -41.123
1540.6200, -41.122
1540.6400, -41.115
1540.6600, -41.113
1540.6800, -41.113
1540.7000, -41.111
1540.7200, -41.109
1540.7400, -41.107
1540.7600, -41.101
1540.7800, -41.095
1540.8000, -41.099
1540.8200, -41.094
1540.8400, -41.090
1540.8600, -41.094
1540.8800, -41.091
1540.9000, -41.088
1540.9200, -41.086
1540.9400, -41.080
1540.9600, -41.081
1540.9800, -41.081
1541.0000, -41.075
1541.0200, -41.072
1541.0400, -41.084
1541.0600, -41.082
1541.0800, -41.077
1541.1000, -41.072
1541.1200, -41.065
1541.1400, -41.051
1541.1600, -41.052
1541.1800, -41.049
1541.2000, -41.050
1541.2200, -41.044
1541.2400, -41.046
1541.2600, -41.033
1541.2800, -41.031
1541.3000, -41.033
1541.3200, -41.032
1541.3400, -41.026
1541.3600, -41.033
1541.3800, -41.020
1541.4000, -41.019
1541.4200, -41.026
1541.4400, -41.019
1541.4600, -41.004
1541.4800, -41.003
1541.5000, -41.008
1541.5200, -41.008
1541.5400, -41.006
1541.5600, -40.999
1541.5800, -40.990
1541.6000, -40.992
1541.6200, -40.987
1541.6400, -40.981
1541.6600, -40.975
1541.6800, -40.969
1541.7000, -40.963
1541.7200, -40.967
1541.7400, -40.958
1541.7600, -40.962
1541.7800, -40.958
1541.8000, -40.949
1541.8200, -40.949
1541.8400, -40.948
1541.8600, -40.945
1541.8800, -40.939
1541.9000, -40.932
1541.9200, -40.927
1541.9400, -40.932
1541.9600, -40.936
1541.9800, -40.925
1542.0000, -40.914
1542.0200, -40.909
1542.0400, -40.903
1542.0600, -40.897
1542.0800, -40.897
1542.1000, -40.894
1542.1200, -40.891
1542.1400, -40.886
1542.1600, -40.880
1542.1800, -40.879
1542.2000, -40.878
1542.2200, -40.880
1542.2400, -40.871
1542.2600, -40.865
1542.2800, -40.857
1542.3000, -40.852
1542.3200, -40.850
1542.3400, -40.846
1542.3600, -40.846
1542.3800, -40.848
1542.4000, -40.832
1542.4200, -40.835
1542.4400, -40.830
1542.4600, -40.824
1542.4800, -40.814
1542.5000, -40.811
1542.5200, -40.805
1542.5400, -40.799
1542.5600, -40.794
1542.5800, -40.788
1542.6000, -40.792
1542.6200, -40.787
1542.6400, -40.782
1542.6600, -40.771
1542.6800, -40.777
1542.7000, -40.772
1542.7200, -40.760
1542.7400, -40.759
1542.7600, -40.751
1542.7800, -40.750
1542.8000, -40.742
1542.8200, -40.741
1542.8400, -40.737
1542.8600, -40.742
1542.8800, -40.727
1542.9000, -40.721
1542.9200, -40.716
1542.9400, -40.711
1542.9600, -40.710
1542.9800, -40.698
1543.0000, -40.702
1543.0200, -40.700
1543.0400, -40.690
1543.0600, -40.687
1543.0800, -40.690
1543.1000, -40.678
1543.1200, -40.681
1543.1400, -40.680
1543.1600, -40.678
1543.1800, -40.673
1543.2000, -40.665
1543.2200, -40.668
1543.2400, -40.660
1543.2600, -40.662
1543.2800, -40.660
1543.3000, -40.650
1543.3200, -40.653
1543.3400, -40.657
1543.3600, -40.656
1543.3800, -40.644
1543.4000, -40.642
1543.4200, -40.641
1543.4400, -40.636
1543.4600, -40.630
1543.4800, -40.626
1543.5000, -40.625
1543.5200, -40.617
1543.5400, -40.621
1543.5600, -40.604
1543.5800, -40.608
1543.6000, -40.611
1543.6200, -40.601
1543.6400, -40.602
1543.6600, -40.598
1543.6800, -40.594
1543.7000, -40.587
1543.7200, -40.577
1543.7400, -40.574
1543.7600, -40.581
1543.7800, -40.576
1543.8000, -40.570
1543.8200, -40.568
1543.8400, -40.558
1543.8600, -40.556
1543.8800, -40.546
1543.9000, -40.547
1543.9200, -40.551
1543.9400, -40.551
1543.9600, -40.548
1543.9800, -40.542
1544.0000, -40.544
1544.0200, -40.544
1544.0400, -40.547
1544.0600, -40.537
1544.0800, -40.539
1544.1000, -40.535
1544.1200, -40.527
1544.1400, -40.538
1544.1600, -40.536
1544.1800, -40.531
1544.2000, -40.517
1544.2200, -40.520
1544.2400, -40.531
1544.2600, -40.530
1544.2800, -40.526
1544.3000, -40.519
1544.3200, -40.520
1544.3400, -40.514
1544.3600, -40.513
1544.3800, -40.506
1544.4000, -40.501
1544.4200, -40.506
1544.4400, -40.506
1544.4600, -40.500
1544.4800, -40.493
1544.5000, -40.503
1544.5200, -40.500
1544.5400, -40.498
1544.5600, -40.494
1544.5800, -40.490
1544.6000, -40.486
1544.6200, -40.473
1544.6400, -40.480
1544.6600, -40.483
1544.6800, -40.489
1544.7000, -40.491
1544.7200, -40.491
1544.7400, -40.481
1544.7600, -40.481
1544.7800, -40.477
1544.8000, -40.481
1544.8200, -40.487
1544.8400, -40.482
1544.8600, -40.478
1544.8800, -40.474
1544.9000, -40.469
1544.9200, -40.469
1544.9400, -40.477
1544.9600, -40.473
1544.9800, -40.474
1545.0000, -40.472
1545.0200, -40.463
1545.0400, -40.463
1545.0600, -40.465
1545.0800, -40.466
1545.1000, -40.462
1545.1200, -40.463
1545.1400, -40.473
1545.1600, -40.476
1545.1800, -40.472
1545.2000, -40.466
1545.2200, -40.471
1545.2400, -40.468
1545.2600, -40.472
1545.2800, -40.467
1545.3000, -40.462
1545.3200, -40.462
1545.3400, -40.466
1545.3600, -40.471
1545.3800, -40.463
1545.4000, -40.468
1545.4200, -40.467
1545.4400, -40.464
1545.4600, -40.463
1545.4800, -40.453
1545.5000, -40.451
1545.5200, -40.440
1545.5400, -40.440
1545.5600, -40.439
1545.5800, -40.445
1545.6000, -40.435
1545.6200, -40.450
1545.6400, -40.453
1545.6600, -40.452
1545.6800, -40.443
1545.7000, -40.443
1545.7200, -40.445
1545.7400, -40.448
1545.7600, -40.442
1545.7800, -40.443
1545.8000, -40.440
1545.8200, -40.438
1545.8400, -40.441
1545.8600, -40.442
1545.8800, -40.444
1545.9000, -40.445
1545.9200, -40.435
1545.9400, -40.433
1545.9600, -40.431
1545.9800, -40.435
1546.0000, -40.443
1546.0200, -40.436
1546.0400, -40.429
1546.0600, -40.433
1546.0800, -40.432
1546.1000, -40.427
1546.1200, -40.431
1546.1400, -40.429
1546.1600, -40.432
1546.1800, -40.436
1546.2000, -40.430
1546.2200, -40.428
1546.2400, -40.430
1546.2600, -40.440
1546.2800, -40.434
1546.3000, -40.438
1546.3200, -40.435
1546.3400, -40.432
1546.3600, -40.436
1546.3800, -40.435
1546.4000, -40.440
1546.4200, -40.436
1546.4400, -40.436
1546.4600, -40.442
1546.4800, -40.449
1546.5000, -40.457
1546.5200, -40.458
1546.5400, -40.455
1546.5600, -40.451
1546.5800, -40.444
1546.6000, -40.443
1546.6200, -40.451
1546.6400, -40.455
1546.6600, -40.459
1546.6800, -40.456
1546.7000, -40.454
1546.7200, -40.454
1546.7400, -40.456
1546.7600, -40.457
1546.7800, -40.449
1546.8000, -40.455
1546.8200, -40.453
1546.8400, -40.455
1546.8600, -40.461
1546.8800, -40.459
1546.9000, -40.458
1546.9200, -40.453
1546.9400, -40.451
1546.9600, -40.456
1546.9800, -40.454
1547.0000, -40.453
1547.0200, -40.451
1547.0400, -40.451
1547.0600, -40.450
1547.0800, -40.454
1547.1000, -40.447
1547.1200, -40.444
1547.1400, -40.450
1547.1600, -40.457
1547.1800, -40.455
1547.2000, -40.457
1547.2200, -40.454
1547.2400, -40.455
1547.2600, -40.458
1547.2800, -40.455
1547.3000, -40.455
1547.3200, -40.452
1547.3400, -40.450
1547.3600, -40.462
1547.3800, -40.465
1547.4000, -40.466
1547.4200, -40.467
1547.4400, -40.467
1547.4600, -40.467
1547.4800, -40.460
1547.5000, -40.450
1547.5200, -40.454
1547.5400, -40.457
1547.5600, -40.455
1547.5800, -40.457
1547.6000, -40.450
1547.6200, -40.457
1547.6400, -40.462
1547.6600, -40.470
1547.6800, -40.475
1547.7000, -40.482
1547.7200, -40.487
1547.7400, -40.482
1547.7600, -40.492
1547.7800, -40.490
1547.8000, -40.491
1547.8200, -40.479
1547.8400, -40.483
1547.8600, -40.490
1547.8800, -40.484
1547.9000, -40.485
1547.9200, -40.486
1547.9400, -40.487
1547.9600, -40.489
1547.9800, -40.490
1548.0000, -40.492
1548.0200, -40.494
1548.0400, -40.499
1548.0600, -40.500
1548.0800, -40.499
1548.1000, -40.504
1548.1200, -40.500
1548.1400, -40.496
1548.1600, -40.497
1548.1800, -40.496
1548.2000, -40.498
1548.2200, -40.501
1548.2400, -40.496
1548.2600, -40.511
1548.2800, -40.509
1548.3000, -40.519
1548.3200, -40.520
1548.3400, -40.519
1548.3600, -40.522
1548.3800, -40.517
1548.4000, -40.513
1548.4200, -40.516
1548.4400, -40.518
1548.4600, -40.524
1548.4800, -40.524
1548.5000, -40.520
1548.5200, -40.519
1548.5400, -40.514
1548.5600, -40.517
1548.5800, -40.518
1548.6000, -40.526
1548.6200, -40.531
1548.6400, -40.526
1548.6600, -40.537
1548.6800, -40.539
1548.7000, -40.541
1548.7200, -40.532
1548.7400, -40.532
1548.7600, -40.544
1548.7800, -40.550
1548.8000, -40.554
1548.8200, -40.551
1548.8400, -40.555
1548.8600, -40.553
1548.8800, -40.559
1548.9000, -40.551
1548.9200, -40.555
1548.9400, -40.558
1548.9600, -40.558
1548.9800, -40.559
1549.0000, -40.556
1549.0200, -40.563
1549.0400, -40.564
1549.0600, -40.568
1549.0800, -40.566
1549.1000, -40.564
1549.1200, -40.561
1549.1400, -40.558
1549.1600, -40.567
1549.1800, -40.569
1549.2000, -40.580
1549.2200, -40.582
1549.2400, -40.588
1549.2600, -40.590
1549.2800, -40.574
1549.3000, -40.573
1549.3200, -40.572
1549.3400, -40.576
1549.3600, -40.577
1549.3800, -40.578
1549.4000, -40.581
1549.4200, -40.588
1549.4400, -40.592
1549.4600, -40.597
1549.4800, -40.599
1549.5000, -40.602
1549.5200, -40.615
1549.5400, -40.610
1549.5600, -40.615
1549.5800, -40.615
1549.6000, -40.614
1549.6200, -40.612
1549.6400, -40.625
1549.6600, -40.624
1549.6800, -40.628
1549.7000, -40.631
1549.7200, -40.632
1549.7400, -40.633
1549.7600, -40.634
1549.7800, -40.640
1549.8000, -40.642
1549.8200, -40.648
1549.8400, -40.647
1549.8600, -40.657
1549.8800, -40.659
1549.9000, -40.661
1549.9200, -40.657
1549.9400, -40.655
1549.9600, -40.657
1549.9800, -40.657
1550.0000, -40.662
1550.0200, -40.662
1550.0400, -40.659
1550.0600, -40.660
1550.0800, -40.660
1550.1000, -40.667
1550.1200, -40.669
1550.1400, -40.661
1550.1600, -40.663
1550.1800, -40.661
1550.2000, -40.663
1550.2200, -40.668
1550.2400, -40.676
1550.2600, -40.678
1550.2800, -40.680
1550.3000, -40.690
1550.3200, -40.693
1550.3400, -40.697
1550.3600, -40.703
1550.3800, -40.704
1550.4000, -40.711
1550.4200, -40.714
1550.4400, -40.710
1550.4600, -40.720
1550.4800, -40.723
1550.5000, -40.724
1550.5200, -40.712
1550.5400, -40.724
1550.5600, -40.723
1550.5800, -40.719
1550.6000, -40.727
1550.6200, -40.731
1550.6400, -40.737
1550.6600, -40.741
1550.6800, -40.747
1550.7000, -40.748
1550.7200, -40.753
1550.7400, -40.757
1550.7600, -40.763
1550.7800, -40.766
1550.8000, -40.771
1550.8200, -40.775
1550.8400, -40.775
1550.8600, -40.779
1550.8800, -40.780
1550.9000, -40.785
1550.9200, -40.784
1550.9400, -40.782
1550.9600, -40.786
1550.9800, -40.792
1551.0000, -40.796
1551.0200, -40.804
1551.0400, -40.807
1551.0600, -40.808
1551.0800, -40.805
1551.1000, -40.807
1551.1200, -40.809
1551.1400, -40.813
1551.1600, -40.815
1551.1800, -40.824
1551.2000, -40.824
1551.2200, -40.824
1551.2400, -40.830
1551.2600, -40.839
1551.2800, -40.840
1551.3000, -40.841
1551.3200, -40.843
1551.3400, -40.839
1551.3600, -40.847
1551.3800, -40.855
1551.4000, -40.852
1551.4200, -40.843
1551.4400, -40.849
1551.4600, -40.849
1551.4800, -40.852
1551.5000, -40.855
1551.5200, -40.854
1551.5400, -40.859
1551.5600, -40.860
1551.5800, -40.862
1551.6000, -40.862
1551.6200, -40.866
1551.6400, -40.872
1551.6600, -40.877
1551.6800, -40.881
1551.7000, -40.887
1551.7200, -40.887
1551.7400, -40.890
1551.7600, -40.895
1551.7800, -40.899
1551.8000, -40.903
1551.8200, -40.903
1551.8400, -40.909
1551.8600, -40.914
1551.8800, -40.915
1551.9000, -40.916
1551.9200, -40.926
1551.9400, -40.924
1551.9600, -40.920
1551.9800, -40.917
1552.0000, -40.921
1552.0200, -40.927
1552.0400, -40.932
1552.0600, -40.932
1552.0800, -40.938
1552.1000, -40.945
1552.1200, -40.947
1552.1400, -40.955
1552.1600, -40.963
1552.1800, -40.962
1552.2000, -40.969
1552.2200, -40.972
1552.2400, -40.965
1552.2600, -40.967
1552.2800, -40.969
1552.3000, -40.971
1552.3200, -40.977
1552.3400, -40.988
1552.3600, -40.983
1552.3800, -40.990
1552.4000, -40.991
1552.4200, -40.991
1552.4400, -40.994
1552.4600, -40.994
1552.4800, -40.997
1552.5000, -40.996
1552.5200, -41.007
1552.5400, -41.002
1552.5600, -41.004
1552.5800, -41.005
1552.6000, -41.012
1552.6200, -41.015
1552.6400, -41.023
1552.6600, -41.027
1552.6800, -41.034
1552.7000, -41.038
1552.7200, -41.037
1552.7400, -41.038
1552.7600, -41.040
1552.7800, -41.046
1552.8000, -41.054
1552.8200, -41.060
1552.8400, -41.060
1552.8600, -41.059
1552.8800, -41.056
1552.9000, -41.061
1552.9200, -41.062
1552.9400, -41.068
1552.9600, -41.068
1552.9800, -41.070
1553.0000, -41.071
1553.0200, -41.071
1553.0400, -41.074
1553.0600, -41.079
1553.0800, -41.081
1553.1000, -41.087
1553.1200, -41.086
1553.1400, -41.085
1553.1600, -41.088
1553.1800, -41.093
1553.2000, -41.098
1553.2200, -41.103
1553.2400, -41.112
1553.2600, -41.112
1553.2800, -41.121
1553.3000, -41.120
1553.3200, -41.127
1553.3400, -41.125
1553.3600, -41.125
1553.3800, -41.123
1553.4000, -41.125
1553.4200, -41.121
1553.4400, -41.128
1553.4600, -41.124
1553.4800, -41.128
1553.5000, -41.129
1553.5200, -41.131
1553.5400, -41.132
1553.5600, -41.134
1553.5800, -41.138
1553.6000, -41.139
1553.6200, -41.144
1553.6400, -41.147
1553.6600, -41.149
1553.6800, -41.155
1553.7000, -41.159
1553.7200, -41.162
1553.7400, -41.161
1553.7600, -41.158
1553.7800, -41.157
1553.8000, -41.160
1553.8200, -41.165
1553.8400, -41.162
1553.8600, -41.169
1553.8800, -41.172
1553.9000, -41.175
1553.9200, -41.176
1553.9400, -41.182
1553.9600, -41.182
1553.9800, -41.182
1554.0000, -41.194
1554.0200, -41.189
1554.0400, -41.202
1554.0600, -41.209
1554.0800, -41.214
1554.1000, -41.209
1554.1200, -41.218
1554.1400, -41.224
1554.1600, -41.223
1554.1800, -41.231
1554.2000, -41.230
1554.2200, -41.235
1554.2400, -41.234
1554.2600, -41.235
1554.2800, -41.234
1554.3000, -41.237
1554.3200, -41.241
1554.3400, -41.243
1554.3600, -41.241
1554.3800, -41.242
1554.4000, -41.242
1554.4200, -41.244
1554.4400, -41.243
1554.4600, -41.240
1554.4800, -41.244
1554.5000, -41.243
1554.5200, -41.247
1554.5400, -41.255
1554.5600, -41.256
1554.5800, -41.262
1554.6000, -41.267
1554.6200, -41.269
1554.6400, -41.264
1554.6600, -41.269
1554.6800, -41.270
1554.7000, -41.276
1554.7200, -41.282
1554.7400, -41.281
1554.7600, -41.281
1554.7800, -41.281
1554.8000, -41.281
1554.8200, -41.285
1554.8400, -41.290
1554.8600, -41.290
1554.8800, -41.293
1554.9000, -41.301
1554.9200, -41.298
1554.9400, -41.299
1554.9600, -41.300
1554.9800, -41.305
1555.0000, -41.301
1555.0200, -41.311
1555.0400, -41.305
1555.0600, -41.307
1555.0800, -41.310
1555.1000, -41.312
1555.1200, -41.310
1555.1400, -41.310
1555.1600, -41.313
1555.1800, -41.316
1555.2000, -41.321
1555.2200, -41.320
1555.2400, -41.326
1555.2600, -41.330
1555.2800, -41.337
1555.3000, -41.342
1555.3200, -41.340
1555.3400, -41.341
1555.3600, -41.340
1555.3800, -41.341
1555.4000, -41.342
1555.4200, -41.340
1555.4400, -41.344
1555.4600, -41.350
1555.4800, -41.354
1555.5000, -41.358
1555.5200, -41.363
1555.5400, -41.356
1555.5600, -41.358
1555.5800, -41.363
1555.6000, -41.367
1555.6200, -41.371
1555.6400, -41.374
1555.6600, -41.378
1555.6800, -41.379
1555.7000, -41.380
1555.7200, -41.382
1555.7400, -41.386
1555.7600, -41.383
1555.7800, -41.389
1555.8000, -41.391
1555.8200, -41.398
1555.8400, -41.403
1555.8600, -41.408
1555.8800, -41.400
1555.9000, -41.408
1555.9200, -41.407
1555.9400, -41.404
1555.9600, -41.418
1555.9800, -41.422
1556.0000, -41.427
1556.0200, -41.431
1556.0400, -41.434
1556.0600, -41.434
1556.0800, -41.440
1556.1000, -41.444
1556.1200, -41.448
1556.1400, -41.450
1556.1600, -41.455
1556.1800, -41.453
1556.2000, -41.458
1556.2200, -41.457
1556.2400, -41.460
1556.2600, -41.461
1556.2800, -41.460
1556.3000, -41.458
1556.3200, -41.470
1556.3400, -41.468
1556.3600, -41.473
1556.3800, -41.480
1556.4000, -41.483
1556.4200, -41.478
1556.4400, -41.481
1556.4600, -41.484
1556.4800, -41.486
1556.5000, -41.494
1556.5200, -41.498
1556.5400, -41.497
1556.5600, -41.499
1556.5800, -41.495
1556.6000, -41.503
1556.6200, -41.509
1556.6400, -41.516
1556.6600, -41.520
1556.6800, -41.525
1556.7000, -41.524
1556.7200, -41.538
1556.7400, -41.540
1556.7600, -41.542
1556.7800, -41.540
1556.8000, -41.553
1556.8200, -41.552
1556.8400, -41.558
1556.8600, -41.559
1556.8800, -41.560
1556.9000, -41.564
1556.9200, -41.564
1556.9400, -41.565
1556.9600, -41.567
1556.9800, -41.569
1557.0000, -41.578
1557.0200, -41.574
1557.0400, -41.578
1557.0600, -41.580
1557.0800, -41.577
1557.1000, -41.581
1557.1200, -41.582
1557.1400, -41.586
1557.1600, -41.589
1557.1800, -41.591
1557.2000, -41.597
1557.2200, -41.601
1557.2400, -41.602
1557.2600, -41.610
1557.2800, -41.617
1557.3000, -41.619
1557.3200, -41.620
1557.3400, -41.626
1557.3600, -41.631
1557.3800, -41.636
1557.4000, -41.648
1557.4200, -41.650
1557.4400, -41.658
1557.4600, -41.660
1557.4800, -41.663
1557.5000, -41.670
1557.5200, -41.674
1557.5400, -41.676
1557.5600, -41.680
1557.5800, -41.683
1557.6000, -41.685
1557.6200, -41.698
1557.6400, -41.702
1557.6600, -41.703
1557.6800, -41.714
1557.7000, -41.719
1557.7200, -41.719
1557.7400, -41.728
1557.7600, -41.729
1557.7800, -41.735
1557.8000, -41.737
1557.8200, -41.737
1557.8400, -41.735
1557.8600, -41.739
1557.8800, -41.744
1557.9000, -41.743
1557.9200, -41.746
1557.9400, -41.760
1557.9600, -41.762
1557.9800, -41.769
1558.0000, -41.773
1558.0200, -41.776
1558.0400, -41.782
1558.0600, -41.787
1558.0800, -41.797
1558.1000, -41.810
1558.1200, -41.815
1558.1400, -41.820
1558.1600, -41.831
1558.1800, -41.836
1558.2000, -41.837
1558.2200, -41.835
1558.2400, -41.842
1558.2600, -41.848
1558.2800, -41.856
1558.3000, -41.859
1558.3200, -41.863
1558.3400, -41.872
1558.3600, -41.874
1558.3800, -41.883
1558.4000, -41.892
1558.4200, -41.894
1558.4400, -41.901
1558.4600, -41.909
1558.4800, -41.904
1558.5000, -41.913
1558.5200, -41.922
1558.5400, -41.926
1558.5600, -41.934
1558.5800, -41.950
1558.6000, -41.944
1558.6200, -41.952
1558.6400, -41.961
1558.6600, -41.967
1558.6800, -41.973
1558.7000, -41.978
1558.7200, -41.984
1558.7400, -41.987
1558.7600, -41.996
1558.7800, -42.007
1558.8000, -42.004
1558.8200, -42.018
1558.8400, -42.027
1558.8600, -42.033
1558.8800, -42.039
1558.9000, -42.043
1558.9200, -42.050
1558.9400, -42.056
1558.9600, -42.066
1558.9800, -42.072
1559.0000, -42.080
1559.0200, -42.088
1559.0400, -42.096
1559.0600, -42.103
1559.0800, -42.108
1559.1000, -42.115
1559.1200, -42.124
1559.1400, -42.132
1559.1600, -42.143
1559.1800, -42.151
1559.2000, -42.155
1559.2200, -42.167
1559.2400, -42.174
1559.2600, -42.181
1559.2800, -42.192
1559.3000, -42.194
1559.3200, -42.201
1559.3400, -42.218
1559.3600, -42.218
1559.3800, -42.228
1559.4000, -42.232
1559.4200, -42.242
1559.4400, -42.248
1559.4600, -42.266
1559.4800, -42.271
1559.5000, -42.278
1559.5200, -42.293
1559.5400, -42.301
1559.5600, -42.310
1559.5800, -42.319
1559.6000, -42.325
1559.6200, -42.330
1559.6400, -42.338
1559.6600, -42.348
1559.6800, -42.348
1559.7000, -42.360
1559.7200, -42.379
1559.7400, -42.388
1559.7600, -42.391
1559.7800, -42.400
1559.8000, -42.407
1559.8200, -42.415
1559.8400, -42.419
1559.8600, -42.425
1559.8800, -42.438
1559.9000, -42.440
1559.9200, -42.456
1559.9400, -42.471
1559.9600, -42.479
1559.9800, -42.483
1560.0000, -42.497
1560.0200, -42.508
1560.0400, -42.519
1560.0600, -42.528
1560.0800, -42.536
1560.1000, -42.547
1560.1200, -42.552
1560.1400, -42.562
1560.1600, -42.575
1560.1800, -42.585
1560.2000, -42.597
1560.2200, -42.611
1560.2400, -42.620
1560.2600, -42.636
1560.2800, -42.656
1560.3000, -42.663
1560.3200, -42.666
1560.3400, -42.684
1560.3600, -42.693
1560.3800, -42.697
1560.4000, -42.710
1560.4200, -42.720
1560.4400, -42.731
1560.4600, -42.738
1560.4800, -42.750
1560.5000, -42.758
1560.5200, -42.774
1560.5400, -42.787
1560.5600, -42.798
1560.5800, -42.808
1560.6000, -42.832
1560.6200, -42.841
1560.6400, -42.853
1560.6600, -42.863
1560.6800, -42.878
1560.7000, -42.892
1560.7200, -42.899
1560.7400, -42.910
1560.7600, -42.925
1560.7800, -42.930
1560.8000, -42.950
1560.8200, -42.952
1560.8400, -42.961
1560.8600, -42.972
1560.8800, -42.985
1560.9000, -43.000
1560.9200, -43.014
1560.9400, -43.025
1560.9600, -43.030
1560.9800, -43.048
1561.0000, -43.057
1561.0200, -43.067
1561.0400, -43.079
1561.0600, -43.093
1561.0800, -43.110
1561.1000, -43.119
1561.1200, -43.132
1561.1400, -43.142
1561.1600, -43.154
1561.1800, -43.169
1561.2000, -43.180
1561.2200, -43.196
1561.2400, -43.214
1561.2600, -43.219
1561.2800, -43.238
1561.3000, -43.250
1561.3200, -43.265
1561.3400, -43.280
1561.3600, -43.294
1561.3800, -43.302
1561.4000, -43.317
1561.4200, -43.327
1561.4400, -43.342
1561.4600, -43.361
1561.4800, -43.379
1561.5000, -43.390
1561.5200, -43.404
1561.5400, -43.418
1561.5600, -43.430
1561.5800, -43.445
1561.6000, -43.451
1561.6200, -43.470
1561.6400, -43.482
1561.6600, -43.496
1561.6800, -43.517
1561.7000, -43.527
1561.7200, -43.545
1561.7400, -43.560
1561.7600, -43.573
1561.7800, -43.590
1561.8000, -43.604
1561.8200, -43.619
1561.8400, -43.633
1561.8600, -43.648
1561.8800, -43.656
1561.9000, -43.672
1561.9200, -43.687
1561.9400, -43.699
1561.9600, -43.718
1561.9800, -43.730
1562.0000, -43.741
1562.0200, -43.756
1562.0400, -43.768
1562.0600, -43.787
1562.0800, -43.804
1562.1000, -43.824
1562.1200, -43.846
1562.1400, -43.857
1562.1600, -43.873
1562.1800, -43.890
1562.2000, -43.904
1562.2200, -43.921
1562.2400, -43.937
1562.2600, -43.950
1562.2800, -43.968
1562.3000, -43.988
1562.3200, -43.999
1562.3400, -44.018
1562.3600, -44.036
1562.3800, -44.053
1562.4000, -44.068
1562.4200, -44.082
1562.4400, -44.098
1562.4600, -44.112
1562.4800, -44.121
1562.5000, -44.141
1562.5200, -44.153
1562.5400, -44.171
1562.5600, -44.187
1562.5800, -44.205
1562.6000, -44.228
1562.6200, -44.239
1562.6400, -44.253
1562.6600, -44.266
1562.6800, -44.284
1562.7000, -44.301
1562.7200, -44.314
1562.7400, -44.331
1562.7600, -44.349
1562.7800, -44.364
1562.8000, -44.379
1562.8200, -44.399
1562.8400, -44.414
1562.8600, -44.434
1562.8800, -44.448
1562.9000, -44.468
1562.9200, -44.493
1562.9400, -44.509
1562.9600, -44.522
1562.9800, -44.532
1563.0000, -44.558
1563.0200, -44.570
1563.0400, -44.591
1563.0600, -44.607
1563.0800, -44.626
1563.1000, -44.644
1563.1200, -44.662
1563.1400, -44.675
1563.1600, -44.694
1563.1800, -44.717
1563.2000, -44.728
1563.2200, -44.748
1563.2400, -44.761
1563.2600, -44.779
1563.2800, -44.795
1563.3000, -44.809
1563.3200, -44.829
1563.3400, -44.847
1563.3600, -44.857
1563.3800, -44.878
1563.4000, -44.898
1563.4200, -44.912
1563.4400, -44.934
1563.4600, -44.947
1563.4800, -44.967
1563.5000, -44.987
1563.5200, -45.004
1563.5400, -45.019
1563.5600, -45.039
1563.5800, -45.054
1563.6000, -45.076
1563.6200, -45.093
1563.6400, -45.109
1563.6600, -45.124
1563.6800, -45.147
1563.7000, -45.168
1563.7200, -45.191
1563.7400, -45.205
1563.7600, -45.224
1563.7800, -45.239
1563.8000, -45.258
1563.8200, -45.274
1563.8400, -45.292
1563.8600, -45.312
1563.8800, -45.337
1563.9000, -45.351
1563.9200, -45.372
1563.9400, -45.390
1563.9600, -45.413
1563.9800, -45.429
1564.0000, -45.449
1564.0200, -45.466
1564.0400, -45.483
1564.0600, -45.494
1564.0800, -45.516
1564.1000, -45.531
1564.1200, -45.554
1564.1400, -45.571
1564.1600, -45.587
1564.1800, -45.601
1564.2000, -45.622
1564.2200, -45.640
1564.2400, -45.659
1564.2600, -45.680
1564.2800, -45.701
1564.3000, -45.716
1564.3200, -45.733
1564.3400, -45.751
1564.3600, -45.770
1564.3800, -45.789
1564.4000, -45.811
1564.4200, -45.831
1564.4400, -45.850
1564.4600, -45.870
1564.4800, -45.892
1564.5000, -45.909
1564.5200, -45.928
1564.5400, -45.951
1564.5600, -45.970
1564.5800, -45.992
1564.6000, -46.012
1564.6200, -46.030
1564.6400, -46.046
1564.6600, -46.071
1564.6800, -46.084
1564.7000, -46.105
1564.7200, -46.132
1564.7400, -46.143
1564.7600, -46.170
1564.7800, -46.179
1564.8000, -46.202
1564.8200, -46.225
1564.8400, -46.244
1564.8600, -46.262
1564.8800, -46.281
1564.9000, -46.295
1564.9200, -46.319
1564.9400, -46.339
1564.9600, -46.359
1564.9800, -46.370
1565.0000, -46.397
1565.0200, -46.416
1565.0400, -46.437
1565.0600, -46.455
1565.0800, -46.476
1565.1000, -46.492
1565.1200, -46.505
1565.1400, -46.528
1565.1600, -46.552
1565.1800, -46.570
1565.2000, -46.586
1565.2200, -46.608
1565.2400, -46.627
1565.2600, -46.647
1565.2800, -46.666
1565.3000, -46.686
1565.3200, -46.708
1565.3400, -46.732
1565.3600, -46.750
1565.3800, -46.775
1565.4000, -46.789
1565.4200, -46.810
1565.4400, -46.835
1565.4600, -46.855
1565.4800, -46.878
1565.5000, -46.894
1565.5200, -46.913
1565.5400, -46.938
1565.5600, -46.951
1565.5800, -46.971
1565.6000, -46.997
1565.6200, -47.009
1565.6400, -47.038
1565.6600, -47.046
1565.6800, -47.072
1565.7000, -47.088
1565.7200, -47.109
1565.7400, -47.132
1565.7600, -47.153
1565.7800, -47.165
1565.8000, -47.194
1565.8200, -47.212
1565.8400, -47.228
1565.8600, -47.244
1565.8800, -47.268
1565.9000, -47.286
1565.9200, -47.308
1565.9400, -47.330
1565.9600, -47.347
1565.9800, -47.365
1566.0000, -47.382
1566.0200, -47.406
1566.0400, -47.427
1566.0600, -47.443
1566.0800, -47.465
1566.1000, -47.484
1566.1200, -47.503
1566.1400, -47.521
1566.1600, -47.540
1566.1800, -47.564
1566.2000, -47.579
1566.2200, -47.603
1566.2400, -47.631
1566.2600, -47.649
1566.2800, -47.661
1566.3000, -47.682
1566.3200, -47.702
1566.3400, -47.722
1566.3600, -47.746
1566.3800, -47.765
1566.4000, -47.779
1566.4200, -47.802
1566.4400, -47.820
1566.4600, -47.842
1566.4800, -47.859
1566.5000, -47.880
1566.5200, -47.907
1566.5400, -47.915
1566.5600, -47.943
1566.5800, -47.964
1566.6000, -47.984
1566.6200, -47.999
1566.6400, -48.026
1566.6600, -48.036
1566.6800, -48.061
1566.7000, -48.078
1566.7200, -48.098
1566.7400, -48.116
1566.7600, -48.143
1566.7800, -48.160
1566.8000, -48.180
1566.8200, -48.198
1566.8400, -48.218
1566.8600, -48.240
1566.8800, -48.252
1566.9000, -48.276
1566.9200, -48.297
1566.9400, -48.317
1566.9600, -48.336
1566.9800, -48.354
1567.0000, -48.374
1567.0200, -48.399
1567.0400, -48.415
1567.0600, -48.441
1567.0800, -48.457
1567.1000, -48.475
1567.1200, -48.501
1567.1400, -48.520
1567.1600, -48.535
1567.1800, -48.557
1567.2000, -48.576
1567.2200, -48.598
1567.2400, -48.620
1567.2600, -48.638
1567.2800, -48.661
1567.3000, -48.674
1567.3200, -48.697
1567.3400, -48.718
1567.3600, -48.730
1567.3800, -48.760
1567.4000, -48.781
1567.4200, -48.799
1567.4400, -48.818
1567.4600, -48.838
1567.4800, -48.860
1567.5000, -48.879
1567.5200, -48.899
1567.5400, -48.915
1567.5600, -48.939
1567.5800, -48.954
1567.6000, -48.976
1567.6200, -48.997
1567.6400, -49.020
1567.6600, -49.042
1567.6800, -49.059
1567.7000, -49.074
1567.7200, -49.099
1567.7400, -49.113
1567.7600, -49.136
1567.7800, -49.153
1567.8000, -49.173
1567.8200, -49.191
1567.8400, -49.211
1567.8600, -49.233
1567.8800, -49.251
1567.9000, -49.272
1567.9200, -49.291
1567.9400, -49.312
1567.9600, -49.332
1567.9800, -49.348
1568.0000, -49.369
1568.0200, -49.387
1568.0400, -49.404
1568.0600, -49.427
1568.0800, -49.451
1568.1000, -49.470
1568.1200, -49.488
1568.1400, -49.510
1568.1600, -49.527
1568.1800, -49.545
1568.2000, -49.566
1568.2200, -49.584
1568.2400, -49.597
1568.2600, -49.630
1568.2800, -49.644
1568.3000, -49.666
1568.3200, -49.687
1568.3400, -49.707
1568.3600, -49.727
1568.3800, -49.744
1568.4000, -49.766
1568.4200, -49.786
1568.4400, -49.806
1568.4600, -49.823
1568.4800, -49.842
1568.5000, -49.858
1568.5200, -49.889
1568.5400, -49.902
1568.5600, -49.921
1568.5800, -49.937
1568.6000, -49.961
1568.6200, -49.976
1568.6400, -50.003
1568.6600, -50.019
1568.6800, -50.038
1568.7000, -50.059
1568.7200, -50.077
1568.7400, -50.099
1568.7600, -50.112
1568.7800, -50.134
1568.8000, -50.154
1568.8200, -50.174
1568.8400, -50.192
1568.8600, -50.214
1568.8800, -50.231
1568.9000, -50.250
1568.9200, -50.274
1568.9400, -50.287
1568.9600, -50.309
1568.9800, -50.332
1569.0000, -50.353
1569.0200, -50.370
1569.0400, -50.385
1569.0600, -50.408
1569.0800, -50.430
1569.1000, -50.440
1569.1200, -50.462
1569.1400, -50.493
1569.1600, -50.505
1569.1800, -50.527
1569.2000, -50.548
1569.2200, -50.567
1569.2400, -50.586
1569.2600, -50.601
1569.2800, -50.624
1569.3000, -50.642
1569.3200, -50.660
1569.3400, -50.673
1569.3600, -50.693
1569.3800, -50.717
1569.4000, -50.735
1569.4200, -50.754
1569.4400, -50.767
1569.4600, -50.788
1569.4800, -50.809
1569.5000, -50.823
1569.5200, -50.848
1569.5400, -50.860
1569.5600, -50.886
1569.5800, -50.899
1569.6000, -50.921
1569.6200, -50.942
1569.6400, -50.957
1569.6600, -50.976
1569.6800, -51.003
1569.7000, -51.022
1569.7200, -51.040
1569.7400, -51.057
1569.7600, -51.078
1569.7800, -51.095
1569.8000, -51.110
1569.8200, -51.131
1569.8400, -51.148
1569.8600, -51.166
1569.8800, -51.185
1569.9000, -51.208
1569.9200, -51.222
1569.9400, -51.243
1569.9600, -51.261
1569.9800, -51.275
1570.0000, -51.300
1570.0200, -51.317
1570.0400, -51.341
1570.0600, -51.351
1570.0800, -51.374
1570.1000, -51.391
1570.1200, -51.411
1570.1400, -51.423
1570.1600, -51.451
1570.1800, -51.474
1570.2000, -51.488
1570.2200, -51.506
1570.2400, -51.521
1570.2600, -51.539
1570.2800, -51.561
1570.3000, -51.580
1570.3200, -51.598
1570.3400, -51.615
1570.3600, -51.637
1570.3800, -51.648
1570.4000, -51.667
1570.4200, -51.689
1570.4400, -51.708
1570.4600, -51.722
1570.4800, -51.737
1570.5000, -51.765
1570.5200, -51.780
1570.5400, -51.799
1570.5600, -51.808
1570.5800, -51.837
1570.6000, -51.858
1570.6200, -51.873
1570.6400, -51.891
1570.6600, -51.911
1570.6800, -51.928
1570.7000, -51.946
1570.7200, -51.963
1570.7400, -51.984
1570.7600, -52.005
1570.7800, -52.020
1570.8000, -52.041
1570.8200, -52.056
1570.8400, -52.074
1570.8600, -52.097
1570.8800, -52.121
1570.9000, -52.137
1570.9200, -52.147
1570.9400, -52.163
1570.9600, -52.190
1570.9800, -52.209
1571.0000, -52.214
1571.0200, -52.239
1571.0400, -52.261
1571.0600, -52.277
1571.0800, -52.296
1571.1000, -52.307
1571.1200, -52.330
1571.1400, -52.350
1571.1600, -52.355
1571.1800, -52.380
1571.2000, -52.401
1571.2200, -52.413
1571.2400, -52.432
1571.2600, -52.444
1571.2800, -52.474
1571.3000, -52.498
1571.3200, -52.504
1571.3400, -52.522
1571.3600, -52.538
1571.3800, -52.566
1571.4000, -52.575
1571.4200, -52.596
1571.4400, -52.615
1571.4600, -52.633
1571.4800, -52.650
1571.5000, -52.668
1571.5200, -52.687
1571.5400, -52.709
1571.5600, -52.725
1571.5800, -52.741
1571.6000, -52.756
1571.6200, -52.777
1571.6400, -52.795
1571.6600, -52.814
1571.6800, -52.833
1571.7000, -52.849
1571.7200, -52.865
1571.7400, -52.883
1571.7600, -52.897
1571.7800, -52.912
1571.8000, -52.926
1571.8200, -52.951
1571.8400, -52.968
1571.8600, -52.986
1571.8800, -52.999
1571.9000, -53.018
1571.9200, -53.031
1571.9400, -53.046
1571.9600, -53.079
1571.9800, -53.089
1572.0000, -53.103
1572.0200, -53.124
1572.0400, -53.143
1572.0600, -53.154
1572.0800, -53.168
1572.1000, -53.192
1572.1200, -53.209
1572.1400, -53.223
1572.1600, -53.246
1572.1800, -53.268
1572.2000, -53.261
1572.2200, -53.287
1572.2400, -53.311
1572.2600, -53.319
1572.2800, -53.340
1572.3000, -53.364
1572.3200, -53.370
1572.3400, -53.393
1572.3600, -53.416
1572.3800, -53.419
1572.4000, -53.442
1572.4200, -53.457
1572.4400, -53.476
1572.4600, -53.492
1572.4800, -53.517
1572.5000, -53.520
1572.5200, -53.542
1572.5400, -53.563
1572.5600, -53.582
1572.5800, -53.588
1572.6000, -53.611
1572.6200, -53.632
1572.6400, -53.642
1572.6600, -53.658
1572.6800, -53.676
1572.7000, -53.683
1572.7200, -53.704
1572.7400, -53.720
1572.7600, -53.732
1572.7800, -53.750
1572.8000, -53.765
1572.8200, -53.786
1572.8400, -53.799
1572.8600, -53.830
1572.8800, -53.831
1572.9000, -53.844
1572.9200, -53.870
1572.9400, -53.885
1572.9600, -53.906
1572.9800, -53.908
1573.0000, -53.924
1573.0200, -53.950
1573.0400, -53.967
1573.0600, -53.982
1573.0800, -53.998
1573.1000, -54.020
1573.1200, -54.037
1573.1400, -54.043
1573.1600, -54.060
1573.1800, -54.075
1573.2000, -54.087
1573.2200, -54.106
1573.2400, -54.124
1573.2600, -54.143
1573.2800, -54.161
1573.3000, -54.172
1573.3200, -54.191
1573.3400, -54.205
1573.3600, -54.206
1573.3800, -54.235
1573.4000, -54.251
1573.4200, -54.263
1573.4400, -54.274
1573.4600, -54.295
1573.4800, -54.322
1573.5000, -54.321
1573.5200, -54.345
1573.5400, -54.356
1573.5600, -54.372
1573.5800, -54.394
1573.6000, -54.407
1573.6200, -54.420
1573.6400, -54.439
1573.6600, -54.456
1573.6800, -54.466
1573.7000, -54.490
1573.7200, -54.501
1573.7400, -54.519
1573.7600, -54.522
1573.7800, -54.544
1573.8000, -54.550
1573.8200, -54.574
1573.8400, -54.586
1573.8600, -54.598
1573.8800, -54.614
1573.9000, -54.630
1573.9200, -54.651
1573.9400, -54.666
1573.9600, -54.670
1573.9800, -54.686
1574.0000, -54.701
1574.0200, -54.714
1574.0400, -54.745
1574.0600, -54.748
1574.0800, -54.771
1574.1000, -54.771
1574.1200, -54.794
1574.1400, -54.809
1574.1600, -54.827
1574.1800, -54.851
1574.2000, -54.853
1574.2200, -54.882
1574.2400, -54.879
1574.2600, -54.909
1574.2800, -54.924
1574.3000, -54.920
1574.3200, -54.939
1574.3400, -54.955
1574.3600, -54.972
1574.3800, -54.983
1574.4000, -55.011
1574.4200, -55.009
1574.4400, -55.031
1574.4600, -55.042
1574.4800, -55.054
1574.5000, -55.083
1574.5200, -55.087
1574.5400, -55.108
1574.5600, -55.103
1574.5800, -55.136
1574.6000, -55.143
1574.6200, -55.159
1574.6400, -55.171
1574.6600, -55.197
1574.6800, -55.211
1574.7000, -55.213
1574.7200, -55.224
1574.7400, -55.238
1574.7600, -55.263
1574.7800, -55.288
1574.8000, -55.284
1574.8200, -55.301
1574.8400, -55.317
1574.8600, -55.329
1574.8800, -55.350
1574.9000, -55.367
1574.9200, -55.364
1574.9400, -55.387
1574.9600, -55.401
1574.9800, -55.417
1575.0000, -55.424
1575.0200, -55.445
1575.0400, -55.459
1575.0600, -55.476
1575.0800, -55.489
1575.1000, -55.499
1575.1200, -55.521
1575.1400, -55.529
1575.1600, -55.543
1575.1800, -55.553
1575.2000, -55.568
1575.2200, -55.583
1575.2400, -55.606
1575.2600, -55.620
1575.2800, -55.613
1575.3000, -55.642
1575.3200, -55.667
1575.3400, -55.658
1575.3600, -55.674
1575.3800, -55.686
1575.4000, -55.698
1575.4200, -55.718
1575.4400, -55.717
1575.4600, -55.753
1575.4800, -55.749
1575.5000, -55.779
1575.5200, -55.794
1575.5400, -55.799
1575.5600, -55.805
1575.5800, -55.822
1575.6000, -55.837
1575.6200, -55.846
1575.6400, -55.853
1575.6600, -55.872
1575.6800, -55.889
1575.7000, -55.901
1575.7200, -55.916
1575.7400, -55.926
1575.7600, -55.939
1575.7800, -55.959
1575.8000, -55.970
1575.8200, -55.977
1575.8400, -55.993
1575.8600, -56.006
1575.8800, -56.031
1575.9000, -56.024
1575.9200, -56.065
1575.9400, -56.050
1575.9600, -56.074
1575.9800, -56.095
1576.0000, -56.114
1576.0200, -56.108
1576.0400, -56.124
1576.0600, -56.134
1576.0800, -56.152
1576.1000, -56.159
1576.1200, -56.177
1576.1400, -56.201
1576.1600, -56.209
1576.1800, -56.193
1576.2000, -56.219
1576.2200, -56.231
1576.2400, -56.246
1576.2600, -56.260
1576.2800, -56.272
1576.3000, -56.289
1576.3200, -56.306
1576.3400, -56.304
1576.3600, -56.328
1576.3800, -56.331
1576.4000, -56.334
1576.4200, -56.360
1576.4400, -56.365
1576.4600, -56.391
1576.4800, -56.389
1576.5000, -56.387
1576.5200, -56.422
1576.5400, -56.445
1576.5600, -56.425
1576.5800, -56.446
1576.6000, -56.463
1576.6200, -56.478
1576.6400, -56.493
1576.6600, -56.478
1576.6800, -56.509
1576.7000, -56.515
1576.7200, -56.546
1576.7400, -56.559
1576.7600, -56.560
1576.7800, -56.568
1576.8000, -56.589
1576.8200, -56.591
1576.8400, -56.601
1576.8600, -56.607
1576.8800, -56.629
1576.9000, -56.631
1576.9200, -56.643
1576.9400, -56.665
1576.9600, -56.673
1576.9800, -56.688
1577.0000, -56.717
1577.0200, -56.701
1577.0400, -56.717
1577.0600, -56.732
1577.0800, -56.741
1577.1000, -56.751
1577.1200, -56.768
1577.1400, -56.763
1577.1600, -56.790
1577.1800, -56.794
1577.2000, -56.804
1577.2200, -56.815
1577.2400, -56.834
1577.2600, -56.827
1577.2800, -56.853
1577.3000, -56.860
1577.3200, -56.876
1577.3400, -56.887
1577.3600, -56.908
1577.3800, -56.901
1577.4000, -56.915
1577.4200, -56.927
1577.4400, -56.932
1577.4600, -56.964
1577.4800, -56.948
1577.5000, -56.978
1577.5200, -56.989
1577.5400, -57.007
1577.5600, -57.016
1577.5800, -57.025
1577.6000, -57.031
1577.6200, -57.044
1577.6400, -57.060
1577.6600, -57.078
1577.6800, -57.069
1577.7000, -57.086
1577.7200, -57.097
1577.7400, -57.106
1577.7600, -57.112
1577.7800, -57.117
1577.8000, -57.137
1577.8200, -57.158
1577.8400, -57.149
1577.8600, -57.180
1577.8800, -57.186
1577.9000, -57.189
1577.9200, -57.205
1577.9400, -57.216
1577.9600, -57.222
1577.9800, -57.238
1578.0000, -57.245
1578.0200, -57.256
1578.0400, -57.263
1578.0600, -57.284
1578.0800, -57.297
1578.1000, -57.298
1578.1200, -57.315
1578.1400, -57.326
1578.1600, -57.338
1578.1800, -57.328
1578.2000, -57.371
1578.2200, -57.347
1578.2400, -57.377
1578.2600, -57.373
1578.2800, -57.398
1578.3000, -57.405
1578.3200, -57.407
1578.3400, -57.422
1578.3600, -57.416
1578.3800, -57.456
1578.4000, -57.443
1578.4200, -57.477
1578.4400, -57.477
1578.4600, -57.492
1578.4800, -57.493
1578.5000, -57.500
1578.5200, -57.525
1578.5400, -57.517
1578.5600, -57.530
1578.5800, -57.550
1578.6000, -57.539
1578.6200, -57.571
1578.6400, -57.559
1578.6600, -57.595
1578.6800, -57.590
1578.7000, -57.604
1578.7200, -57.602
1578.7400, -57.639
1578.7600, -57.633
1578.7800, -57.636
1578.8000, -57.659
1578.8200, -57.670
1578.8400, -57.660
1578.8600, -57.684
1578.8800, -57.696
1578.9000, -57.703
1578.9200, -57.718
1578.9400, -57.729
1578.9600, -57.743
1578.9800, -57.746
1579.0000, -57.752
1579.0200, -57.764
1579.0400, -57.769
1579.0600, -57.759
1579.0800, -57.784
1579.1000, -57.786
1579.1200, -57.795
1579.1400, -57.828
1579.1600, -57.817
1579.1800, -57.835
1579.2000, -57.837
1579.2200, -57.864
1579.2400, -57.866
1579.2600, -57.884
1579.2800, -57.889
1579.3000, -57.894
1579.3200, -57.900
1579.3400, -57.910
1579.3600, -57.915
1579.3800, -57.940
1579.4000, -57.945
1579.4200, -57.941
1579.4400, -57.958
1579.4600, -57.960
1579.4800, -57.978
1579.5000, -57.999
1579.5200, -57.969
1579.5400, -58.024
1579.5600, -58.016
1579.5800, -57.997
1579.6000, -58.034
1579.6200, -58.042
1579.6400, -58.052
1579.6600, -58.060
1579.6800, -58.083
1579.7000, -58.067
1579.7200, -58.092
1579.7400, -58.098
1579.7600, -58.123
1579.7800, -58.117
1579.8000, -58.128
1579.8200, -58.124
1579.8400, -58.135
1579.8600, -58.160
1579.8800, -58.160
1579.9000, -58.144
1579.9200, -58.205
1579.9400, -58.176
1579.9600, -58.195
1579.9800, -58.216
1580.0000, -58.188
1580.0200, -58.224
1580.0400, -58.223
1580.0600, -58.214
1580.0800, -58.257
1580.1000, -58.252
1580.1200, -58.248
1580.1400, -58.265
1580.1600, -58.280
1580.1800, -58.288
1580.2000, -58.296
1580.2200, -58.333
1580.2400, -58.329
1580.2600, -58.307
1580.2800, -58.339
1580.3000, -58.331
1580.3200, -58.340
1580.3400, -58.340
1580.3600, -58.363
1580.3800, -58.362
1580.4000, -58.385
1580.4200, -58.404
1580.4400, -58.393
1580.4600, -58.394
1580.4800, -58.415
1580.5000, -58.409
1580.5200, -58.425
1580.5400, -58.432
1580.5600, -58.449
1580.5800, -58.434
1580.6000, -58.458
1580.6200, -58.467
1580.6400, -58.481
1580.6600, -58.479
1580.6800, -58.489
1580.7000, -58.530
1580.7200, -58.501
1580.7400, -58.524
1580.7600, -58.516
1580.7800, -58.522
1580.8000, -58.530
1580.8200, -58.542
1580.8400, -58.567
1580.8600, -58.575
1580.8800, -58.554
1580.9000, -58.583
1580.9200, -58.580
1580.9400, -58.601
1580.9600, -58.602
1580.9800, -58.606
1581.0000, -58.629
1581.0200, -58.621
1581.0400, -58.643
1581.0600, -58.646
1581.0800, -58.681
1581.1000, -58.635
1581.1200, -58.676
1581.1400, -58.677
1581.1600, -58.673
1581.1800, -58.686
1581.2000, -58.694
1581.2200, -58.696
1581.2400, -58.731
1581.2600, -58.739
1581.2800, -58.737
1581.3000, -58.726
1581.3200, -58.750
1581.3400, -58.739
1581.3600, -58.779
1581.3800, -58.757
1581.4000, -58.782
1581.4200, -58.778
1581.4400, -58.787
1581.4600, -58.812
1581.4800, -58.800
1581.5000, -58.826
1581.5200, -58.824
1581.5400, -58.820
1581.5600, -58.824
1581.5800, -58.824
1581.6000, -58.849
1581.6200, -58.860
1581.6400, -58.857
1581.6600, -58.866
1581.6800, -58.857
1581.7000, -58.900
1581.7200, -58.887
1581.7400, -58.892
1581.7600, -58.905
1581.7800, -58.912
1581.8000, -58.909
1581.8200, -58.935
1581.8400, -58.931
1581.8600, -58.953
1581.8800, -58.954
1581.9000, -58.953
1581.9200, -58.967
1581.9400, -58.981
1581.9600, -58.964
1581.9800, -58.991
1582.0000, -59.010
1582.0200, -58.989
1582.0400, -59.021
1582.0600, -59.005
1582.0800, -59.030
1582.1000, -59.044
1582.1200, -59.047
1582.1400, -59.059
1582.1600, -59.042
1582.1800, -59.049
1582.2000, -59.072
1582.2200, -59.059
1582.2400, -59.090
1582.2600, -59.075
1582.2800, -59.101
1582.3000, -59.104
1582.3200, -59.134
1582.3400, -59.119
1582.3600, -59.104
1582.3800, -59.131
1582.4000, -59.136
1582.4200, -59.134
1582.4400, -59.161
1582.4600, -59.142
1582.4800, -59.158
1582.5000, -59.163
1582.5200, -59.177
1582.5400, -59.175
1582.5600, -59.174
1582.5800, -59.201
1582.6000, -59.192
1582.6200, -59.222
1582.6400, -59.212
1582.6600, -59.216
1582.6800, -59.228
1582.7000, -59.273
1582.7200, -59.247
1582.7400, -59.252
1582.7600, -59.282
1582.7800, -59.248
1582.8000, -59.286
1582.8200, -59.267
1582.8400, -59.305
1582.8600, -59.318
1582.8800, -59.288
1582.9000, -59.311
1582.9200, -59.330
1582.9400, -59.313
1582.9600, -59.310
1582.9800, -59.336
1583.0000, -59.338
1583.0200, -59.355
1583.0400, -59.353
1583.0600, -59.360
1583.0800, -59.380
1583.1000, -59.390
1583.1200, -59.370
1583.1400, -59.385
1583.1600, -59.385
1583.1800, -59.403
1583.2000, -59.405
1583.2200, -59.420
1583.2400, -59.445
1583.2600, -59.413
1583.2800, -59.428
1583.3000, -59.451
1583.3200, -59.468
1583.3400, -59.421
1583.3600, -59.453
1583.3800, -59.461
1583.4000, -59.466
1583.4200, -59.498
1583.4400, -59.485
1583.4600, -59.501
1583.4800, -59.501
1583.5000, -59.490
1583.5200, -59.538
1583.5400, -59.499
1583.5600, -59.510
1583.5800, -59.538
1583.6000, -59.535
1583.6200, -59.558
1583.6400, -59.588
1583.6600, -59.533
1583.6800, -59.573
1583.7000, -59.553
1583.7200, -59.581
1583.7400, -59.561
1583.7600, -59.608
1583.7800, -59.584
1583.8000, -59.604
1583.8200, -59.609
1583.8400, -59.615
1583.8600, -59.626
1583.8800, -59.589
1583.9000, -59.646
1583.9200, -59.633
1583.9400, -59.658
1583.9600, -59.640
1583.9800, -59.645
1584.0000, -59.690
1584.0200, -59.660
1584.0400, -59.667
1584.0600, -59.676
1584.0800, -59.667
1584.1000, -59.718
1584.1200, -59.697
1584.1400, -59.700
1584.1600, -59.718
1584.1800, -59.708
1584.2000, -59.714
1584.2200, -59.718
1584.2400, -59.739
1584.2600, -59.725
1584.2800, -59.768
1584.3000, -59.718
1584.3200, -59.767
1584.3400, -59.759
1584.3600, -59.772
1584.3800, -59.779
1584.4000, -59.782
1584.4200, -59.769
1584.4400, -59.792
1584.4600, -59.793
1584.4800, -59.815
1584.5000, -59.812
1584.5200, -59.799
1584.5400, -59.827
1584.5600, -59.824
1584.5800, -59.825
1584.6000, -59.845
1584.6200, -59.828
1584.6400, -59.858
1584.6600, -59.865
1584.6800, -59.866
1584.7000, -59.864
1584.7200, -59.865
1584.7400, -59.871
1584.7600, -59.862
1584.7800, -59.910
1584.8000, -59.882
1584.8200, -59.923
1584.8400, -59.883
1584.8600, -59.896
1584.8800, -59.923
1584.9000, -59.916
1584.9200, -59.928
1584.9400, -59.923
1584.9600, -59.930
1584.9800, -59.959
1585.0000, -59.953
1585.0200, -59.953
1585.0400, -59.956
1585.0600, -59.963
1585.0800, -59.957
1585.1000, -59.962
1585.1200, -59.964
1585.1400, -59.976
1585.1600, -60.009
1585.1800, -59.987
1585.2000, -59.975
1585.2200, -60.010
1585.2400, -60.008
1585.2600, -60.015
1585.2800, -60.013
1585.3000, -60.008
1585.3200, -60.029
1585.3400, -60.029
1585.3600, -60.054
1585.3800, -60.022
1585.4000, -60.062
1585.4200, -60.053
1585.4400, -60.075
1585.4600, -60.047
1585.4800, -60.079
1585.5000, -60.064
1585.5200, -60.081
1585.5400, -60.071
1585.5600, -60.117
1585.5800, -60.078
1585.6000, -60.104
1585.6200, -60.131
1585.6400, -60.138
1585.6600, -60.113
1585.6800, -60.119
1585.7000, -60.107
1585.7200, -60.136
1585.7400, -60.171
1585.7600, -60.101
1585.7800, -60.135
1585.8000, -60.156
1585.8200, -60.166
1585.8400, -60.159
1585.8600, -60.165
1585.8800, -60.193
1585.9000, -60.157
1585.9200, -60.194
1585.9400, -60.201
1585.9600, -60.171
1585.9800, -60.209
1586.0000, -60.204
1586.0200, -60.199
1586.0400, -60.214
1586.0600, -60.222
1586.0800, -60.225
1586.1000, -60.225
1586.1200, -60.219
1586.1400, -60.225
1586.1600, -60.256
1586.1800, -60.245
1586.2000, -60.259
1586.2200, -60.256
1586.2400, -60.260
1586.2600, -60.266
1586.2800, -60.267
1586.3000, -60.309
1586.3200, -60.277
1586.3400, -60.296
1586.3600, -60.289
1586.3800, -60.306
1586.4000, -60.292
1586.4200, -60.291
1586.4400, -60.342
1586.4600, -60.307
1586.4800, -60.320
1586.5000, -60.332
1586.5200, -60.332
1586.5400, -60.336
1586.5600, -60.339
1586.5800, -60.386
1586.6000, -60.338
1586.6200, -60.373
1586.6400, -60.371
1586.6600, -60.371
1586.6800, -60.397
1586.7000, -60.381
1586.7200, -60.394
1586.7400, -60.382
1586.7600, -60.421
1586.7800, -60.402
1586.8000, -60.397
1586.8200, -60.424
1586.8400, -60.417
1586.8600, -60.430
1586.8800, -60.439
1586.9000, -60.462
1586.9200, -60.440
1586.9400, -60.440
1586.9600, -60.446
1586.9800, -60.466
1587.0000, -60.500
1587.0200, -60.461
1587.0400, -60.461
1587.0600, -60.486
1587.0800, -60.460
1587.1000, -60.468
1587.1200, -60.494
1587.1400, -60.504
1587.1600, -60.536
1587.1800, -60.479
1587.2000, -60.515
1587.2200, -60.486
1587.2400, -60.524
1587.2600, -60.520
1587.2800, -60.514
1587.3000, -60.548
1587.3200, -60.546
1587.3400, -60.547
1587.3600, -60.542
1587.3800, -60.543
1587.4000, -60.573
1587.4200, -60.566
1587.4400, -60.588
1587.4600, -60.584
1587.4800, -60.587
1587.5000, -60.610
1587.5200, -60.557
1587.5400, -60.583
1587.5600, -60.590
1587.5800, -60.643
1587.6000, -60.631
1587.6200, -60.594
1587.6400, -60.659
1587.6600, -60.604
1587.6800, -60.625
1587.7000, -60.616
1587.7200, -60.627
1587.7400, -60.662
1587.7600, -60.666
1587.7800, -60.628
1587.8000, -60.665
1587.8200, -60.679
1587.8400, -60.675
1587.8600, -60.685
1587.8800, -60.682
1587.9000, -60.663
1587.9200, -60.698
1587.9400, -60.706
1587.9600, -60.694
1587.9800, -60.698
1588.0000, -60.707
1588.0200, -60.715
1588.0400, -60.719
1588.0600, -60.727
1588.0800, -60.736
1588.1000, -60.716
1588.1200, -60.761
1588.1400, -60.736
1588.1600, -60.743
1588.1800, -60.739
1588.2000, -60.750
1588.2200, -60.762
1588.2400, -60.760
1588.2600, -60.746
1588.2800, -60.770
1588.3000, -60.784
1588.3200, -60.785
1588.3400, -60.781
1588.3600, -60.797
1588.3800, -60.822
1588.4000, -60.812
1588.4200, -60.789
1588.4400, -60.805
1588.4600, -60.835
1588.4800, -60.792
1588.5000, -60.837
1588.5200, -60.816
1588.5400, -60.817
1588.5600, -60.852
1588.5800, -60.829
1588.6000, -60.838
1588.6200, -60.872
1588.6400, -60.834
1588.6600, -60.841
1588.6800, -60.883
1588.7000, -60.874
1588.7200, -60.868
1588.7400, -60.877
1588.7600, -60.865
1588.7800, -60.868
1588.8000, -60.893
1588.8200, -60.885
1588.8400, -60.892
1588.8600, -60.925
1588.8800, -60.918
1588.9000, -60.904
1588.9200, -60.914
1588.9400, -60.918
1588.9600, -60.909
1588.9800, -60.915
1589.0000, -60.922
1589.0200, -60.919
1589.0400, -60.975
1589.0600, -60.911
1589.0800, -60.976
1589.1000, -60.952
1589.1200, -60.949
1589.1400, -60.962
1589.1600, -60.975
1589.1800, -60.963
1589.2000, -60.963
1589.2200, -60.997
1589.2400, -60.973
1589.2600, -60.965
1589.2800, -61.014
1589.3000, -61.004
1589.3200, -61.002
1589.3400, -61.005
1589.3600, -60.999
1589.3800, -61.007
1589.4000, -61.009
1589.4200, -61.040
1589.4400, -60.991
1589.4600, -61.070
1589.4800, -61.020
1589.5000, -61.052
1589.5200, -61.060
1589.5400, -61.026
1589.5600, -61.086
1589.5800, -61.041
1589.6000, -61.080
1589.6200, -61.103
1589.6400, -61.044
1589.6600, -61.084
1589.6800, -61.073
1589.7000, -61.085
1589.7200, -61.110
1589.7400, -61.118
1589.7600, -61.081
1589.7800, -61.105
1589.8000, -61.085
1589.8200, -61.114
1589.8400, -61.095
1589.8600, -61.095
1589.8800, -61.098
1589.9000, -61.121
1589.9200, -61.134
1589.9400, -61.136
1589.9600, -61.151
1589.9800, -61.146
1590.0000, -61.136
1590.0200, -61.137
1590.0400, -61.129
1590.0600, -61.187
1590.0800, -61.170
1590.1000, -61.206
1590.1200, -61.164
1590.1400, -61.166
1590.1600, -61.177
1590.1800, -61.192
1590.2000, -61.198
1590.2200, -61.151
1590.2400, -61.191
1590.2600, -61.190
1590.2800, -61.220
1590.3000, -61.218
1590.3200, -61.205
1590.3400, -61.230
1590.3600, -61.215
1590.3800, -61.243
1590.4000, -61.233
1590.4200, -61.229
1590.4400, -61.254
1590.4600, -61.250
1590.4800, -61.278
1590.5000, -61.240
1590.5200, -61.276
1590.5400, -61.286
1590.5600, -61.267
1590.5800, -61.259
1590.6000, -61.279
1590.6200, -61.340
1590.6400, -61.264
1590.6600, -61.302
1590.6800, -61.321
1590.7000, -61.265
1590.7200, -61.302
1590.7400, -61.295
1590.7600, -61.349
1590.7800, -61.309
1590.8000, -61.312
1590.8200, -61.333
1590.8400, -61.339
1590.8600, -61.339
1590.8800, -61.344
1590.9000, -61.308
1590.9200, -61.377
1590.9400, -61.347
1590.9600, -61.370
1590.9800, -61.357
1591.0000, -61.353
1591.0200, -61.356
1591.0400, -61.395
1591.0600, -61.376
1591.0800, -61.438
1591.1000, -61.402
1591.1200, -61.384
1591.1400, -61.407
1591.1600, -61.391
1591.1800, -61.387
1591.2000, -61.423
1591.2200, -61.463
1591.2400, -61.422
1591.2600, -61.427
1591.2800, -61.475
1591.3000, -61.442
1591.3200, -61.470
1591.3400, -61.443
1591.3600, -61.419
1591.3800, -61.429
1591.4000, -61.491
1591.4200, -61.453
1591.4400, -61.496
1591.4600, -61.486
1591.4800, -61.480
1591.5000, -61.496
1591.5200, -61.498
1591.5400, -61.475
1591.5600, -61.497
1591.5800, -61.504
1591.6000, -61.516
1591.6200, -61.478
1591.6400, -61.519
1591.6600, -61.504
1591.6800, -61.531
1591.7000, -61.545
1591.7200, -61.533
1591.7400, -61.517
1591.7600, -61.510
1591.7800, -61.533
1591.8000, -61.569
1591.8200, -61.530
1591.8400, -61.573
1591.8600, -61.551
1591.8800, -61.565
1591.9000, -61.560
1591.9200, -61.561
1591.9400, -61.587
1591.9600, -61.598
1591.9800, -61.560
1592.0000, -61.640
1592.0200, -61.634
1592.0400, -61.584
1592.0600, -61.580
1592.0800, -61.599
1592.1000, -61.652
1592.1200, -61.604
1592.1400, -61.607
1592.1600, -61.652
1592.1800, -61.614
1592.2000, -61.643
1592.2200, -61.634
1592.2400, -61.716
1592.2600, -61.621
1592.2800, -61.608
1592.3000, -61.651
1592.3200, -61.688
1592.3400, -61.635
1592.3600, -61.659
1592.3800, -61.668
1592.4000, -61.681
1592.4200, -61.713
1592.4400, -61.668
1592.4600, -61.678
1592.4800, -61.710
1592.5000, -61.693
1592.5200, -61.680
1592.5400, -61.739
1592.5600, -61.725
1592.5800, -61.688
1592.6000, -61.714
1592.6200, -61.733
1592.6400, -61.720
1592.6600, -61.731
1592.6800, -61.726
1592.7000, -61.754
1592.7200, -61.739
1592.7400, -61.744
1592.7600, -61.757
1592.7800, -61.765
1592.8000, -61.741
1592.8200, -61.756
1592.8400, -61.767
1592.8600, -61.788
1592.8800, -61.791
1592.9000, -61.786
1592.9200, -61.804
1592.9400, -61.798
1592.9600, -61.778
1592.9800, -61.793
1593.0000, -61.772
1593.0200, -61.827
1593.0400, -61.833
1593.0600, -61.808
1593.0800, -61.825
1593.1000, -61.841
1593.1200, -61.786
1593.1400, -61.868
1593.1600, -61.841
1593.1800, -61.831
1593.2000, -61.841
1593.2200, -61.845
1593.2400, -61.853
1593.2600, -61.852
1593.2800, -61.818
1593.3000, -61.866
1593.3200, -61.884
1593.3400, -61.890
1593.3600, -61.880
1593.3800, -61.869
1593.4000, -61.892
1593.4200, -61.871
1593.4400, -61.890
1593.4600, -61.898
1593.4800, -61.879
1593.5000, -61.919
1593.5200, -61.899
1593.5400, -61.966
1593.5600, -61.914
1593.5800, -61.898
1593.6000, -61.940
1593.6200, -61.933
1593.6400, -61.927
1593.6600, -61.955
1593.6800, -61.975
1593.7000, -61.929
1593.7200, -62.023
1593.7400, -61.950
1593.7600, -61.920
1593.7800, -61.955
1593.8000, -61.955
1593.8200, -61.979
1593.8400, -61.976
1593.8600, -62.007
1593.8800, -61.953
1593.9000, -62.033
1593.9200, -61.981
1593.9400, -61.969
1593.9600, -61.993
1593.9800, -62.007
1594.0000, -62.017
1594.0200, -62.006
1594.0400, -62.035
1594.0600, -62.006
1594.0800, -61.991
1594.1000, -62.034
1594.1200, -62.037
1594.1400, -62.028
1594.1600, -62.050
1594.1800, -62.030
1594.2000, -62.022
1594.2200, -62.088
1594.2400, -62.011
1594.2600, -62.033
1594.2800, -62.055
1594.3000, -62.079
1594.3200, -62.062
1594.3400, -62.094
1594.3600, -62.100
1594.3800, -62.070
1594.4000, -62.056
1594.4200, -62.123
1594.4400, -62.096
1594.4600, -62.100
1594.4800, -62.142
1594.5000, -62.084
1594.5200, -62.113
1594.5400, -62.097
1594.5600, -62.119
1594.5800, -62.104
1594.6000, -62.151
1594.6200, -62.109
1594.6400, -62.177
1594.6600, -62.136
1594.6800, -62.181
1594.7000, -62.120
1594.7200, -62.174
1594.7400, -62.182
1594.7600, -62.199
1594.7800, -62.157
1594.8000, -62.159
1594.8200, -62.164
1594.8400, -62.150
1594.8600, -62.200
1594.8800, -62.189
1594.9000, -62.186
1594.9200, -62.181
1594.9400, -62.196
1594.9600, -62.238
1594.9800, -62.212
1595.0000, -62.215
1595.0200, -62.222
1595.0400, -62.216
1595.0600, -62.305
1595.0800, -62.214
1595.1000, -62.223
1595.1200, -62.208
1595.1400, -62.210
1595.1600, -62.298
1595.1800, -62.191
1595.2000, -62.292
1595.2200, -62.244
1595.2400, -62.258
1595.2600, -62.250
1595.2800, -62.271
1595.3000, -62.258
1595.3200, -62.294
1595.3400, -62.275
1595.3600, -62.303
1595.3800, -62.259
1595.4000, -62.290
1595.4200, -62.307
1595.4400, -62.322
1595.4600, -62.283
1595.4800, -62.302
1595.5000, -62.379
1595.5200, -62.277
1595.5400, -62.311
1595.5600, -62.338
1595.5800, -62.355
1595.6000, -62.368
1595.6200, -62.391
1595.6400, -62.359
1595.6600, -62.356
1595.6800, -62.354
1595.7000, -62.335
1595.7200, -62.406
1595.7400, -62.381
1595.7600, -62.403
1595.7800, -62.335
1595.8000, -62.397
1595.8200, -62.379
1595.8400, -62.377
1595.8600, -62.479
1595.8800, -62.339
1595.9000, -62.411
1595.9200, -62.389
1595.9400, -62.412
1595.9600, -62.400
1595.9800, -62.416
1596.0000, -62.442
1596.0200, -62.433
1596.0400, -62.452
1596.0600, -62.437
1596.0800, -62.390
1596.1000, -62.501
1596.1200, -62.415
1596.1400, -62.514
1596.1600, -62.462
1596.1800, -62.447
1596.2000, -62.479
1596.2200, -62.484
1596.2400, -62.468
1596.2600, -62.446
1596.2800, -62.525
1596.3000, -62.480
1596.3200, -62.499
1596.3400, -62.508
1596.3600, -62.463
1596.3800, -62.538
1596.4000, -62.499
1596.4200, -62.529
1596.4400, -62.479
1596.4600, -62.492
1596.4800, -62.521
1596.5000, -62.537
1596.5200, -62.541
1596.5400, -62.534
1596.5600, -62.518
1596.5800, -62.578
1596.6000, -62.564
1596.6200, -62.563
1596.6400, -62.569
1596.6600, -62.565
1596.6800, -62.519
1596.7000, -62.508
1596.7200, -62.586
1596.7400, -62.577
1596.7600, -62.592
1596.7800, -62.566
1596.8000, -62.585
1596.8200, -62.603
1596.8400, -62.585
1596.8600, -62.578
1596.8800, -62.599
1596.9000, -62.601
1596.9200, -62.587
1596.9400, -62.638
1596.9600, -62.622
1596.9800, -62.606
1597.0000, -62.629
1597.0200, -62.614
1597.0400, -62.602
1597.0600, -62.635
1597.0800, -62.633
1597.1000, -62.637
1597.1200, -62.634
1597.1400, -62.654
1597.1600, -62.640
1597.1800, -62.669
1597.2000, -62.693
1597.2200, -62.676
1597.2400, -62.640
1597.2600, -62.740
1597.2800, -62.696
1597.3000, -62.682
1597.3200, -62.661
1597.3400, -62.709
1597.3600, -62.699
1597.3800, -62.698
1597.4000, -62.717
1597.4200, -62.720
1597.4400, -62.690
1597.4600, -62.717
1597.4800, -62.705
1597.5000, -62.729
1597.5200, -62.718
1597.5400, -62.759
1597.5600, -62.796
1597.5800, -62.721
1597.6000, -62.737
1597.6200, -62.753
1597.6400, -62.741
1597.6600, -62.753
1597.6800, -62.720
1597.7000, -62.771
1597.7200, -62.739
1597.7400, -62.778
1597.7600, -62.798
1597.7800, -62.790
1597.8000, -62.796
1597.8200, -62.782
1597.8400, -62.801
1597.8600, -62.784
1597.8800, -62.767
1597.9000, -62.828
1597.9200, -62.781
1597.9400, -62.813
1597.9600, -62.840
1597.9800, -62.833
1598.0000, -62.803
1598.0200, -62.837
1598.0400, -62.812
1598.0600, -62.827
1598.0800, -62.854
1598.1000, -62.839
1598.1200, -62.859
1598.1400, -62.845
1598.1600, -62.848
1598.1800, -62.876
1598.2000, -62.903
1598.2200, -62.854
1598.2400, -62.861
1598.2600, -62.906
1598.2800, -62.909
1598.3000, -62.890
1598.3200, -62.889
1598.3400, -62.874
1598.3600, -62.877
1598.3800, -62.912
1598.4000, -62.914
1598.4200, -62.908
1598.4400, -62.954
1598.4600, -62.913
1598.4800, -62.949
1598.5000, -62.921
1598.5200, -62.944
1598.5400, -62.911
1598.5600, -62.926
1598.5800, -62.960
1598.6000, -62.911
1598.6200, -62.955
1598.6400, -62.953
1598.6600, -62.995
1598.6800, -62.933
1598.7000, -63.000
1598.7200, -62.961
1598.7400, -62.995
1598.7600, -62.994
1598.7800, -62.999
1598.8000, -62.981
1598.8200, -62.997
1598.8400, -62.962
1598.8600, -62.987
1598.8800, -63.003
1598.9000, -63.017
1598.9200, -63.025
1598.9400, -63.024
1598.9600, -63.050
1598.9800, -63.029
1599.0000, -63.003
1599.0200, -63.073
1599.0400, -63.055
1599.0600, -63.098
1599.0800, -63.040
1599.1000, -63.082
1599.1200, -63.049
1599.1400, -63.061
1599.1600, -63.061
1599.1800, -63.071
1599.2000, -63.089
1599.2200, -63.089
1599.2400, -63.114
1599.2600, -63.098
1599.2800, -63.099
1599.3000, -63.066
1599.3200, -63.086
1599.3400, -63.079
1599.3600, -63.113
1599.3800, -63.118
1599.4000, -63.099
1599.4200, -63.092
1599.4400, -63.143
1599.4600, -63.159
1599.4800, -63.131
1599.5000, -63.117
1599.5200, -63.120
1599.5400, -63.094
1599.5600, -63.205
1599.5800, -63.122
1599.6000, -63.124
1599.6200, -63.171
1599.6400, -63.146
1599.6600, -63.224
1599.6800, -63.175
1599.7000, -63.173
1599.7200, -63.170
1599.7400, -63.178
1599.7600, -63.209
1599.7800, -63.201
1599.8000, -63.236
1599.8200, -63.148
1599.8400, -63.248
1599.8600, -63.164
1599.8800, -63.211
1599.9000, -63.239
1599.9200, -63.250
1599.9400, -63.200
1599.9600, -63.253
1599.9800, -63.237
1600.0000, -63.247
