70BCSV 	
// AQ6370B OPTICAL SPECTRUM ANALYZER //                 
25
"CTRWL",1550.000000
"SPAN", 100.000000
"START WL",1500.000000
"STOP WL",1600.000000
"WLFREQ", 0
"REFL",-28.8
"LSCL", 5.0
"RESLN",0.100
"AVG",   1
"SMPLAUTO",      0
"SMPL",       5001
"SMPLINTVL",0.0200
"HIGH1"
"MEAS"
"LSUNT",0
"NMSKH","OFF"
"RESCOR",0
"RESPARM", 9050
"FREQPARM", 9050






"[TRACE DATA]"
1500.0000, -61.770
1500.0200, -61.806
1500.0400, -61.768
1500.0600, -61.765
1500.0800, -61.795
1500.1000, -61.779
1500.1200, -61.722
1500.1400, -61.741
1500.1600, -61.735
1500.1800, -61.771
1500.2000, -61.701
1500.2200, -61.704
1500.2400, -61.728
1500.2600, -61.744
1500.2800, -61.726
1500.3000, -61.684
1500.3200, -61.702
1500.3400, -61.710
1500.3600, -61.696
1500.3800, -61.678
1500.4000, -61.677
1500.4200, -61.676
1500.4400, -61.687
1500.4600, -61.669
1500.4800, -61.667
1500.5000, -61.649
1500.5200, -61.634
1500.5400, -61.658
1500.5600, -61.628
1500.5800, -61.608
1500.6000, -61.630
1500.6200, -61.614
1500.6400, -61.616
1500.6600, -61.589
1500.6800, -61.615
1500.7000, -61.597
1500.7200, -61.595
1500.7400, -61.566
1500.7600, -61.642
1500.7800, -61.584
1500.8000, -61.581
1500.8200, -61.577
1500.8400, -61.542
1500.8600, -61.525
1500.8800, -61.516
1500.9000, -61.558
1500.9200, -61.529
1500.9400, -61.495
1500.9600, -61.532
1500.9800, -61.532
1501.0000, -61.499
1501.0200, -61.517
1501.0400, -61.491
1501.0600, -61.489
1501.0800, -61.486
1501.1000, -61.459
1501.1200, -61.509
1501.1400, -61.448
1501.1600, -61.462
1501.1800, -61.449
1501.2000, -61.475
1501.2200, -61.444
1501.2400, -61.445
1501.2600, -61.447
1501.2800, -61.428
1501.3000, -61.423
1501.3200, -61.422
1501.3400, -61.441
1501.3600, -61.389
1501.3800, -61.407
1501.4000, -61.386
1501.4200, -61.424
1501.4400, -61.358
1501.4600, -61.347
1501.4800, -61.397
1501.5000, -61.342
1501.5200, -61.396
1501.5400, -61.345
1501.5600, -61.333
1501.5800, -61.344
1501.6000, -61.341
1501.6200, -61.354
1501.6400, -61.340
1501.6600, -61.316
1501.6800, -61.323
1501.7000, -61.325
1501.7200, -61.323
1501.7400, -61.314
1501.7600, -61.258
1501.7800, -61.289
1501.8000, -61.290
1501.8200, -61.293
1501.8400, -61.289
1501.8600, -61.261
1501.8800, -61.266
1501.9000, -61.272
1501.9200, -61.285
1501.9400, -61.240
1501.9600, -61.257
1501.9800, -61.218
1502.0000, -61.258
1502.0200, -61.180
1502.0400, -61.210
1502.0600, -61.211
1502.0800, -61.186
1502.1000, -61.160
1502.1200, -61.189
1502.1400, -61.170
1502.1600, -61.167
1502.1800, -61.153
1502.2000, -61.204
1502.2200, -61.140
1502.2400, -61.140
1502.2600, -61.147
1502.2800, -61.125
1502.3000, -61.137
1502.3200, -61.140
1502.3400, -61.113
1502.3600, -61.085
1502.3800, -61.082
1502.4000, -61.073
1502.4200, -61.120
1502.4400, -61.071
1502.4600, -61.095
1502.4800, -61.027
1502.5000, -61.065
1502.5200, -61.058
1502.5400, -61.051
1502.5600, -61.050
1502.5800, -61.007
1502.6000, -61.035
1502.6200, -61.001
1502.6400, -61.039
1502.6600, -61.002
1502.6800, -60.985
1502.7000, -61.010
1502.7200, -61.015
1502.7400, -60.971
1502.7600, -60.971
1502.7800, -60.985
1502.8000, -60.967
1502.8200, -60.945
1502.8400, -60.956
1502.8600, -60.947
1502.8800, -60.944
1502.9000, -60.925
1502.9200, -60.921
1502.9400, -60.917
1502.9600, -60.896
1502.9800, -60.901
1503.0000, -60.889
1503.0200, -60.886
1503.0400, -60.882
1503.0600, -60.872
1503.0800, -60.859
1503.1000, -60.885
1503.1200, -60.828
1503.1400, -60.877
1503.1600, -60.832
1503.1800, -60.825
1503.2000, -60.827
1503.2200, -60.827
1503.2400, -60.836
1503.2600, -60.798
1503.2800, -60.816
1503.3000, -60.831
1503.3200, -60.781
1503.3400, -60.753
1503.3600, -60.788
1503.3800, -60.808
1503.4000, -60.771
1503.4200, -60.748
1503.4400, -60.742
1503.4600, -60.734
1503.4800, -60.738
1503.5000, -60.770
1503.5200, -60.732
1503.5400, -60.695
1503.5600, -60.695
1503.5800, -60.687
1503.6000, -60.657
1503.6200, -60.697
1503.6400, -60.672
1503.6600, -60.691
1503.6800, -60.667
1503.7000, -60.657
1503.7200, -60.658
1503.7400, -60.651
1503.7600, -60.618
1503.7800, -60.640
1503.8000, -60.615
1503.8200, -60.652
1503.8400, -60.645
1503.8600, -60.613
1503.8800, -60.616
1503.9000, -60.608
1503.9200, -60.571
1503.9400, -60.565
1503.9600, -60.552
1503.9800, -60.589
1504.0000, -60.546
1504.0200, -60.569
1504.0400, -60.558
1504.0600, -60.540
1504.0800, -60.520
1504.1000, -60.524
1504.1200, -60.520
1504.1400, -60.540
1504.1600, -60.487
1504.1800, -60.494
1504.2000, -60.467
1504.2200, -60.478
1504.2400, -60.483
1504.2600, -60.466
1504.2800, -60.437
1504.3000, -60.437
1504.3200, -60.435
1504.3400, -60.444
1504.3600, -60.407
1504.3800, -60.436
1504.4000, -60.416
1504.4200, -60.382
1504.4400, -60.419
1504.4600, -60.366
1504.4800, -60.380
1504.5000, -60.375
1504.5200, -60.384
1504.5400, -60.378
1504.5600, -60.316
1504.5800, -60.355
1504.6000, -60.348
1504.6200, -60.318
1504.6400, -60.318
1504.6600, -60.316
1504.6800, -60.321
1504.7000, -60.338
1504.7200, -60.285
1504.7400, -60.283
1504.7600, -60.304
1504.7800, -60.280
1504.8000, -60.265
1504.8200, -60.256
1504.8400, -60.266
1504.8600, -60.261
1504.8800, -60.243
1504.9000, -60.209
1504.9200, -60.209
1504.9400, -60.218
1504.9600, -60.188
1504.9800, -60.208
1505.0000, -60.185
1505.0200, -60.200
1505.0400, -60.161
1505.0600, -60.154
1505.0800, -60.171
1505.1000, -60.152
1505.1200, -60.131
1505.1400, -60.140
1505.1600, -60.144
1505.1800, -60.108
1505.2000, -60.095
1505.2200, -60.116
1505.2400, -60.110
1505.2600, -60.088
1505.2800, -60.047
1505.3000, -60.100
1505.3200, -60.050
1505.3400, -60.060
1505.3600, -60.043
1505.3800, -60.024
1505.4000, -60.052
1505.4200, -60.047
1505.4400, -60.021
1505.4600, -60.014
1505.4800, -59.983
1505.5000, -60.011
1505.5200, -60.012
1505.5400, -59.979
1505.5600, -59.973
1505.5800, -59.976
1505.6000, -59.954
1505.6200, -59.950
1505.6400, -59.931
1505.6600, -59.922
1505.6800, -59.925
1505.7000, -59.958
1505.7200, -59.913
1505.7400, -59.887
1505.7600, -59.915
1505.7800, -59.883
1505.8000, -59.881
1505.8200, -59.880
1505.8400, -59.882
1505.8600, -59.867
1505.8800, -59.830
1505.9000, -59.822
1505.9200, -59.868
1505.9400, -59.818
1505.9600, -59.828
1505.9800, -59.815
1506.0000, -59.764
1506.0200, -59.804
1506.0400, -59.796
1506.0600, -59.782
1506.0800, -59.772
1506.1000, -59.789
1506.1200, -59.740
1506.1400, -59.754
1506.1600, -59.728
1506.1800, -59.707
1506.2000, -59.735
1506.2200, -59.713
1506.2400, -59.705
1506.2600, -59.707
1506.2800, -59.682
1506.3000, -59.673
1506.3200, -59.705
1506.3400, -59.678
1506.3600, -59.635
1506.3800, -59.693
1506.4000, -59.626
1506.4200, -59.645
1506.4400, -59.649
1506.4600, -59.613
1506.4800, -59.637
1506.5000, -59.609
1506.5200, -59.585
1506.5400, -59.606
1506.5600, -59.576
1506.5800, -59.593
1506.6000, -59.572
1506.6200, -59.566
1506.6400, -59.556
1506.6600, -59.534
1506.6800, -59.541
1506.7000, -59.527
1506.7200, -59.510
1506.7400, -59.511
1506.7600, -59.506
1506.7800, -59.503
1506.8000, -59.484
1506.8200, -59.476
1506.8400, -59.443
1506.8600, -59.473
1506.8800, -59.457
1506.9000, -59.438
1506.9200, -59.439
1506.9400, -59.450
1506.9600, -59.433
1506.9800, -59.413
1507.0000, -59.418
1507.0200, -59.409
1507.0400, -59.398
1507.0600, -59.367
1507.0800, -59.388
1507.1000, -59.392
1507.1200, -59.344
1507.1400, -59.352
1507.1600, -59.342
1507.1800, -59.336
1507.2000, -59.338
1507.2200, -59.306
1507.2400, -59.323
1507.2600, -59.307
1507.2800, -59.300
1507.3000, -59.299
1507.3200, -59.284
1507.3400, -59.262
1507.3600, -59.271
1507.3800, -59.233
1507.4000, -59.249
1507.4200, -59.230
1507.4400, -59.242
1507.4600, -59.229
1507.4800, -59.214
1507.5000, -59.199
1507.5200, -59.180
1507.5400, -59.188
1507.5600, -59.171
1507.5800, -59.196
1507.6000, -59.140
1507.6200, -59.142
1507.6400, -59.138
1507.6600, -59.145
1507.6800, -59.149
1507.7000, -59.095
1507.7200, -59.120
1507.7400, -59.113
1507.7600, -59.092
1507.7800, -59.082
1507.8000, -59.051
1507.8200, -59.062
1507.8400, -59.059
1507.8600, -59.052
1507.8800, -59.040
1507.9000, -59.018
1507.9200, -59.041
1507.9400, -59.019
1507.9600, -58.997
1507.9800, -59.006
1508.0000, -58.999
1508.0200, -58.993
1508.0400, -58.999
1508.0600, -58.967
1508.0800, -58.951
1508.1000, -58.960
1508.1200, -58.950
1508.1400, -58.922
1508.1600, -58.934
1508.1800, -58.915
1508.2000, -58.914
1508.2200, -58.888
1508.2400, -58.896
1508.2600, -58.874
1508.2800, -58.884
1508.3000, -58.891
1508.3200, -58.883
1508.3400, -58.874
1508.3600, -58.847
1508.3800, -58.829
1508.4000, -58.807
1508.4200, -58.825
1508.4400, -58.823
1508.4600, -58.788
1508.4800, -58.790
1508.5000, -58.787
1508.5200, -58.772
1508.5400, -58.768
1508.5600, -58.757
1508.5800, -58.756
1508.6000, -58.741
1508.6200, -58.745
1508.6400, -58.722
1508.6600, -58.729
1508.6800, -58.715
1508.7000, -58.717
1508.7200, -58.702
1508.7400, -58.698
1508.7600, -58.688
1508.7800, -58.664
1508.8000, -58.657
1508.8200, -58.656
1508.8400, -58.633
1508.8600, -58.645
1508.8800, -58.623
1508.9000, -58.611
1508.9200, -58.614
1508.9400, -58.597
1508.9600, -58.586
1508.9800, -58.587
1509.0000, -58.585
1509.0200, -58.552
1509.0400, -58.556
1509.0600, -58.549
1509.0800, -58.527
1509.1000, -58.537
1509.1200, -58.528
1509.1400, -58.510
1509.1600, -58.510
1509.1800, -58.486
1509.2000, -58.488
1509.2200, -58.474
1509.2400, -58.464
1509.2600, -58.452
1509.2800, -58.433
1509.3000, -58.447
1509.3200, -58.446
1509.3400, -58.431
1509.3600, -58.410
1509.3800, -58.417
1509.4000, -58.398
1509.4200, -58.394
1509.4400, -58.373
1509.4600, -58.376
1509.4800, -58.352
1509.5000, -58.352
1509.5200, -58.340
1509.5400, -58.321
1509.5600, -58.309
1509.5800, -58.299
1509.6000, -58.306
1509.6200, -58.294
1509.6400, -58.288
1509.6600, -58.285
1509.6800, -58.268
1509.7000, -58.257
1509.7200, -58.259
1509.7400, -58.237
1509.7600, -58.226
1509.7800, -58.213
1509.8000, -58.220
1509.8200, -58.217
1509.8400, -58.194
1509.8600, -58.186
1509.8800, -58.185
1509.9000, -58.155
1509.9200, -58.167
1509.9400, -58.146
1509.9600, -58.133
1509.9800, -58.138
1510.0000, -58.116
1510.0200, -58.107
1510.0400, -58.109
1510.0600, -58.091
1510.0800, -58.072
1510.1000, -58.072
1510.1200, -58.059
1510.1400, -58.050
1510.1600, -58.029
1510.1800, -58.041
1510.2000, -58.015
1510.2200, -58.011
1510.2400, -58.003
1510.2600, -57.996
1510.2800, -57.984
1510.3000, -57.973
1510.3200, -57.968
1510.3400, -57.955
1510.3600, -57.936
1510.3800, -57.928
1510.4000, -57.924
1510.4200, -57.915
1510.4400, -57.884
1510.4600, -57.881
1510.4800, -57.867
1510.5000, -57.860
1510.5200, -57.854
1510.5400, -57.851
1510.5600, -57.830
1510.5800, -57.825
1510.6000, -57.813
1510.6200, -57.801
1510.6400, -57.791
1510.6600, -57.777
1510.6800, -57.756
1510.7000, -57.757
1510.7200, -57.746
1510.7400, -57.734
1510.7600, -57.726
1510.7800, -57.724
1510.8000, -57.713
1510.8200, -57.689
1510.8400, -57.690
1510.8600, -57.676
1510.8800, -57.656
1510.9000, -57.661
1510.9200, -57.641
1510.9400, -57.629
1510.9600, -57.631
1510.9800, -57.613
1511.0000, -57.596
1511.0200, -57.595
1511.0400, -57.575
1511.0600, -57.536
1511.0800, -57.543
1511.1000, -57.535
1511.1200, -57.525
1511.1400, -57.520
1511.1600, -57.505
1511.1800, -57.500
1511.2000, -57.495
1511.2200, -57.469
1511.2400, -57.477
1511.2600, -57.474
1511.2800, -57.455
1511.3000, -57.419
1511.3200, -57.418
1511.3400, -57.392
1511.3600, -57.395
1511.3800, -57.383
1511.4000, -57.383
1511.4200, -57.349
1511.4400, -57.343
1511.4600, -57.341
1511.4800, -57.336
1511.5000, -57.327
1511.5200, -57.311
1511.5400, -57.289
1511.5600, -57.282
1511.5800, -57.281
1511.6000, -57.259
1511.6200, -57.238
1511.6400, -57.244
1511.6600, -57.219
1511.6800, -57.210
1511.7000, -57.203
1511.7200, -57.207
1511.7400, -57.173
1511.7600, -57.174
1511.7800, -57.157
1511.8000, -57.147
1511.8200, -57.132
1511.8400, -57.127
1511.8600, -57.109
1511.8800, -57.095
1511.9000, -57.085
1511.9200, -57.073
1511.9400, -57.066
1511.9600, -57.059
1511.9800, -57.033
1512.0000, -57.032
1512.0200, -57.021
1512.0400, -57.012
1512.0600, -56.990
1512.0800, -56.984
1512.1000, -56.980
1512.1200, -56.968
1512.1400, -56.945
1512.1600, -56.944
1512.1800, -56.939
1512.2000, -56.915
1512.2200, -56.916
1512.2400, -56.905
1512.2600, -56.894
1512.2800, -56.886
1512.3000, -56.844
1512.3200, -56.851
1512.3400, -56.842
1512.3600, -56.835
1512.3800, -56.815
1512.4000, -56.815
1512.4200, -56.804
1512.4400, -56.787
1512.4600, -56.761
1512.4800, -56.764
1512.5000, -56.753
1512.5200, -56.743
1512.5400, -56.725
1512.5600, -56.711
1512.5800, -56.702
1512.6000, -56.682
1512.6200, -56.660
1512.6400, -56.669
1512.6600, -56.652
1512.6800, -56.641
1512.7000, -56.629
1512.7200, -56.625
1512.7400, -56.607
1512.7600, -56.593
1512.7800, -56.589
1512.8000, -56.582
1512.8200, -56.569
1512.8400, -56.544
1512.8600, -56.542
1512.8800, -56.530
1512.9000, -56.511
1512.9200, -56.508
1512.9400, -56.500
1512.9600, -56.470
1512.9800, -56.470
1513.0000, -56.449
1513.0200, -56.451
1513.0400, -56.427
1513.0600, -56.423
1513.0800, -56.401
1513.1000, -56.402
1513.1200, -56.393
1513.1400, -56.378
1513.1600, -56.371
1513.1800, -56.361
1513.2000, -56.332
1513.2200, -56.336
1513.2400, -56.312
1513.2600, -56.304
1513.2800, -56.292
1513.3000, -56.289
1513.3200, -56.262
1513.3400, -56.254
1513.3600, -56.244
1513.3800, -56.228
1513.4000, -56.212
1513.4200, -56.200
1513.4400, -56.195
1513.4600, -56.186
1513.4800, -56.164
1513.5000, -56.156
1513.5200, -56.133
1513.5400, -56.132
1513.5600, -56.105
1513.5800, -56.109
1513.6000, -56.087
1513.6200, -56.062
1513.6400, -56.079
1513.6600, -56.051
1513.6800, -56.041
1513.7000, -56.027
1513.7200, -56.004
1513.7400, -55.991
1513.7600, -55.998
1513.7800, -55.978
1513.8000, -55.957
1513.8200, -55.947
1513.8400, -55.945
1513.8600, -55.923
1513.8800, -55.911
1513.9000, -55.899
1513.9200, -55.883
1513.9400, -55.875
1513.9600, -55.868
1513.9800, -55.846
1514.0000, -55.841
1514.0200, -55.826
1514.0400, -55.800
1514.0600, -55.795
1514.0800, -55.798
1514.1000, -55.770
1514.1200, -55.770
1514.1400, -55.758
1514.1600, -55.734
1514.1800, -55.726
1514.2000, -55.717
1514.2200, -55.696
1514.2400, -55.693
1514.2600, -55.663
1514.2800, -55.654
1514.3000, -55.653
1514.3200, -55.640
1514.3400, -55.617
1514.3600, -55.606
1514.3800, -55.585
1514.4000, -55.582
1514.4200, -55.562
1514.4400, -55.550
1514.4600, -55.538
1514.4800, -55.520
1514.5000, -55.513
1514.5200, -55.488
1514.5400, -55.487
1514.5600, -55.466
1514.5800, -55.466
1514.6000, -55.450
1514.6200, -55.434
1514.6400, -55.426
1514.6600, -55.415
1514.6800, -55.399
1514.7000, -55.377
1514.7200, -55.370
1514.7400, -55.364
1514.7600, -55.334
1514.7800, -55.324
1514.8000, -55.318
1514.8200, -55.287
1514.8400, -55.287
1514.8600, -55.271
1514.8800, -55.252
1514.9000, -55.242
1514.9200, -55.228
1514.9400, -55.213
1514.9600, -55.202
1514.9800, -55.186
1515.0000, -55.183
1515.0200, -55.158
1515.0400, -55.157
1515.0600, -55.136
1515.0800, -55.124
1515.1000, -55.108
1515.1200, -55.095
1515.1400, -55.078
1515.1600, -55.055
1515.1800, -55.044
1515.2000, -55.030
1515.2200, -55.011
1515.2400, -55.000
1515.2600, -54.980
1515.2800, -54.976
1515.3000, -54.957
1515.3200, -54.958
1515.3400, -54.922
1515.3600, -54.925
1515.3800, -54.900
1515.4000, -54.887
1515.4200, -54.860
1515.4400, -54.854
1515.4600, -54.822
1515.4800, -54.820
1515.5000, -54.810
1515.5200, -54.791
1515.5400, -54.789
1515.5600, -54.776
1515.5800, -54.761
1515.6000, -54.746
1515.6200, -54.729
1515.6400, -54.718
1515.6600, -54.687
1515.6800, -54.692
1515.7000, -54.667
1515.7200, -54.644
1515.7400, -54.645
1515.7600, -54.614
1515.7800, -54.608
1515.8000, -54.594
1515.8200, -54.578
1515.8400, -54.574
1515.8600, -54.542
1515.8800, -54.529
1515.9000, -54.522
1515.9200, -54.502
1515.9400, -54.494
1515.9600, -54.467
1515.9800, -54.455
1516.0000, -54.444
1516.0200, -54.435
1516.0400, -54.406
1516.0600, -54.390
1516.0800, -54.379
1516.1000, -54.355
1516.1200, -54.337
1516.1400, -54.330
1516.1600, -54.308
1516.1800, -54.292
1516.2000, -54.280
1516.2200, -54.260
1516.2400, -54.247
1516.2600, -54.231
1516.2800, -54.220
1516.3000, -54.200
1516.3200, -54.192
1516.3400, -54.166
1516.3600, -54.150
1516.3800, -54.124
1516.4000, -54.115
1516.4200, -54.098
1516.4400, -54.083
1516.4600, -54.064
1516.4800, -54.050
1516.5000, -54.045
1516.5200, -54.028
1516.5400, -53.995
1516.5600, -53.988
1516.5800, -53.978
1516.6000, -53.958
1516.6200, -53.935
1516.6400, -53.914
1516.6600, -53.895
1516.6800, -53.870
1516.7000, -53.871
1516.7200, -53.847
1516.7400, -53.844
1516.7600, -53.813
1516.7800, -53.799
1516.8000, -53.777
1516.8200, -53.764
1516.8400, -53.749
1516.8600, -53.739
1516.8800, -53.717
1516.9000, -53.695
1516.9200, -53.682
1516.9400, -53.663
1516.9600, -53.642
1516.9800, -53.631
1517.0000, -53.599
1517.0200, -53.587
1517.0400, -53.565
1517.0600, -53.548
1517.0800, -53.525
1517.1000, -53.511
1517.1200, -53.482
1517.1400, -53.480
1517.1600, -53.462
1517.1800, -53.443
1517.2000, -53.423
1517.2200, -53.411
1517.2400, -53.381
1517.2600, -53.362
1517.2800, -53.341
1517.3000, -53.325
1517.3200, -53.310
1517.3400, -53.295
1517.3600, -53.271
1517.3800, -53.266
1517.4000, -53.240
1517.4200, -53.215
1517.4400, -53.205
1517.4600, -53.181
1517.4800, -53.163
1517.5000, -53.141
1517.5200, -53.122
1517.5400, -53.096
1517.5600, -53.087
1517.5800, -53.066
1517.6000, -53.037
1517.6200, -53.031
1517.6400, -53.005
1517.6600, -52.985
1517.6800, -52.967
1517.7000, -52.946
1517.7200, -52.931
1517.7400, -52.910
1517.7600, -52.881
1517.7800, -52.862
1517.8000, -52.845
1517.8200, -52.831
1517.8400, -52.814
1517.8600, -52.791
1517.8800, -52.774
1517.9000, -52.752
1517.9200, -52.731
1517.9400, -52.703
1517.9600, -52.682
1517.9800, -52.665
1518.0000, -52.640
1518.0200, -52.615
1518.0400, -52.598
1518.0600, -52.574
1518.0800, -52.557
1518.1000, -52.547
1518.1200, -52.520
1518.1400, -52.492
1518.1600, -52.483
1518.1800, -52.453
1518.2000, -52.440
1518.2200, -52.402
1518.2400, -52.383
1518.2600, -52.357
1518.2800, -52.339
1518.3000, -52.312
1518.3200, -52.300
1518.3400, -52.296
1518.3600, -52.260
1518.3800, -52.245
1518.4000, -52.231
1518.4200, -52.198
1518.4400, -52.179
1518.4600, -52.150
1518.4800, -52.118
1518.5000, -52.103
1518.5200, -52.083
1518.5400, -52.070
1518.5600, -52.022
1518.5800, -52.007
1518.6000, -51.987
1518.6200, -51.974
1518.6400, -51.943
1518.6600, -51.934
1518.6800, -51.901
1518.7000, -51.873
1518.7200, -51.851
1518.7400, -51.830
1518.7600, -51.813
1518.7800, -51.790
1518.8000, -51.765
1518.8200, -51.746
1518.8400, -51.723
1518.8600, -51.702
1518.8800, -51.677
1518.9000, -51.651
1518.9200, -51.623
1518.9400, -51.591
1518.9600, -51.564
1518.9800, -51.546
1519.0000, -51.521
1519.0200, -51.494
1519.0400, -51.485
1519.0600, -51.464
1519.0800, -51.421
1519.1000, -51.408
1519.1200, -51.375
1519.1400, -51.356
1519.1600, -51.322
1519.1800, -51.295
1519.2000, -51.268
1519.2200, -51.248
1519.2400, -51.213
1519.2600, -51.190
1519.2800, -51.175
1519.3000, -51.160
1519.3200, -51.121
1519.3400, -51.096
1519.3600, -51.069
1519.3800, -51.045
1519.4000, -51.021
1519.4200, -50.983
1519.4400, -50.965
1519.4600, -50.925
1519.4800, -50.896
1519.5000, -50.875
1519.5200, -50.857
1519.5400, -50.822
1519.5600, -50.793
1519.5800, -50.767
1519.6000, -50.747
1519.6200, -50.710
1519.6400, -50.687
1519.6600, -50.661
1519.6800, -50.630
1519.7000, -50.617
1519.7200, -50.586
1519.7400, -50.560
1519.7600, -50.529
1519.7800, -50.504
1519.8000, -50.478
1519.8200, -50.445
1519.8400, -50.412
1519.8600, -50.368
1519.8800, -50.352
1519.9000, -50.328
1519.9200, -50.295
1519.9400, -50.258
1519.9600, -50.234
1519.9800, -50.206
1520.0000, -50.190
1520.0200, -50.155
1520.0400, -50.124
1520.0600, -50.096
1520.0800, -50.061
1520.1000, -50.015
1520.1200, -49.990
1520.1400, -49.960
1520.1600, -49.934
1520.1800, -49.895
1520.2000, -49.861
1520.2200, -49.836
1520.2400, -49.818
1520.2600, -49.777
1520.2800, -49.750
1520.3000, -49.723
1520.3200, -49.687
1520.3400, -49.657
1520.3600, -49.628
1520.3800, -49.590
1520.4000, -49.568
1520.4200, -49.532
1520.4400, -49.502
1520.4600, -49.466
1520.4800, -49.438
1520.5000, -49.393
1520.5200, -49.373
1520.5400, -49.340
1520.5600, -49.307
1520.5800, -49.268
1520.6000, -49.239
1520.6200, -49.196
1520.6400, -49.178
1520.6600, -49.150
1520.6800, -49.114
1520.7000, -49.083
1520.7200, -49.049
1520.7400, -49.011
1520.7600, -48.975
1520.7800, -48.933
1520.8000, -48.893
1520.8200, -48.863
1520.8400, -48.833
1520.8600, -48.793
1520.8800, -48.757
1520.9000, -48.721
1520.9200, -48.684
1520.9400, -48.666
1520.9600, -48.624
1520.9800, -48.590
1521.0000, -48.558
1521.0200, -48.516
1521.0400, -48.459
1521.0600, -48.437
1521.0800, -48.402
1521.1000, -48.369
1521.1200, -48.333
1521.1400, -48.289
1521.1600, -48.272
1521.1800, -48.235
1521.2000, -48.188
1521.2200, -48.157
1521.2400, -48.126
1521.2600, -48.089
1521.2800, -48.055
1521.3000, -48.005
1521.3200, -47.978
1521.3400, -47.919
1521.3600, -47.903
1521.3800, -47.852
1521.4000, -47.816
1521.4200, -47.777
1521.4400, -47.741
1521.4600, -47.718
1521.4800, -47.668
1521.5000, -47.627
1521.5200, -47.595
1521.5400, -47.555
1521.5600, -47.511
1521.5800, -47.490
1521.6000, -47.451
1521.6200, -47.415
1521.6400, -47.378
1521.6600, -47.341
1521.6800, -47.294
1521.7000, -47.253
1521.7200, -47.209
1521.7400, -47.171
1521.7600, -47.124
1521.7800, -47.094
1521.8000, -47.055
1521.8200, -47.012
1521.8400, -46.967
1521.8600, -46.941
1521.8800, -46.889
1521.9000, -46.851
1521.9200, -46.820
1521.9400, -46.782
1521.9600, -46.742
1521.9800, -46.694
1522.0000, -46.650
1522.0200, -46.610
1522.0400, -46.573
1522.0600, -46.526
1522.0800, -46.482
1522.1000, -46.461
1522.1200, -46.412
1522.1400, -46.379
1522.1600, -46.339
1522.1800, -46.305
1522.2000, -46.261
1522.2200, -46.218
1522.2400, -46.180
1522.2600, -46.138
1522.2800, -46.093
1522.3000, -46.045
1522.3200, -46.005
1522.3400, -45.964
1522.3600, -45.918
1522.3800, -45.880
1522.4000, -45.849
1522.4200, -45.803
1522.4400, -45.758
1522.4600, -45.722
1522.4800, -45.681
1522.5000, -45.636
1522.5200, -45.603
1522.5400, -45.564
1522.5600, -45.524
1522.5800, -45.480
1522.6000, -45.439
1522.6200, -45.396
1522.6400, -45.348
1522.6600, -45.301
1522.6800, -45.263
1522.7000, -45.219
1522.7200, -45.178
1522.7400, -45.137
1522.7600, -45.093
1522.7800, -45.047
1522.8000, -45.013
1522.8200, -44.960
1522.8400, -44.925
1522.8600, -44.889
1522.8800, -44.846
1522.9000, -44.800
1522.9200, -44.760
1522.9400, -44.718
1522.9600, -44.677
1522.9800, -44.634
1523.0000, -44.590
1523.0200, -44.549
1523.0400, -44.505
1523.0600, -44.460
1523.0800, -44.429
1523.1000, -44.387
1523.1200, -44.347
1523.1400, -44.302
1523.1600, -44.260
1523.1800, -44.217
1523.2000, -44.176
1523.2200, -44.128
1523.2400, -44.096
1523.2600, -44.043
1523.2800, -44.003
1523.3000, -43.959
1523.3200, -43.917
1523.3400, -43.876
1523.3600, -43.826
1523.3800, -43.783
1523.4000, -43.745
1523.4200, -43.706
1523.4400, -43.667
1523.4600, -43.628
1523.4800, -43.585
1523.5000, -43.541
1523.5200, -43.499
1523.5400, -43.458
1523.5600, -43.418
1523.5800, -43.371
1523.6000, -43.334
1523.6200, -43.289
1523.6400, -43.246
1523.6600, -43.209
1523.6800, -43.161
1523.7000, -43.119
1523.7200, -43.078
1523.7400, -43.041
1523.7600, -43.000
1523.7800, -42.957
1523.8000, -42.918
1523.8200, -42.875
1523.8400, -42.830
1523.8600, -42.792
1523.8800, -42.745
1523.9000, -42.705
1523.9200, -42.664
1523.9400, -42.619
1523.9600, -42.581
1523.9800, -42.542
1524.0000, -42.498
1524.0200, -42.457
1524.0400, -42.422
1524.0600, -42.382
1524.0800, -42.339
1524.1000, -42.295
1524.1200, -42.255
1524.1400, -42.212
1524.1600, -42.169
1524.1800, -42.130
1524.2000, -42.091
1524.2200, -42.052
1524.2400, -42.008
1524.2600, -41.972
1524.2800, -41.928
1524.3000, -41.884
1524.3200, -41.843
1524.3400, -41.805
1524.3600, -41.763
1524.3800, -41.724
1524.4000, -41.688
1524.4200, -41.649
1524.4400, -41.608
1524.4600, -41.566
1524.4800, -41.527
1524.5000, -41.486
1524.5200, -41.443
1524.5400, -41.408
1524.5600, -41.368
1524.5800, -41.330
1524.6000, -41.290
1524.6200, -41.247
1524.6400, -41.205
1524.6600, -41.165
1524.6800, -41.125
1524.7000, -41.084
1524.7200, -41.046
1524.7400, -41.010
1524.7600, -40.969
1524.7800, -40.926
1524.8000, -40.884
1524.8200, -40.844
1524.8400, -40.805
1524.8600, -40.765
1524.8800, -40.724
1524.9000, -40.685
1524.9200, -40.648
1524.9400, -40.603
1524.9600, -40.562
1524.9800, -40.527
1525.0000, -40.486
1525.0200, -40.447
1525.0400, -40.408
1525.0600, -40.364
1525.0800, -40.322
1525.1000, -40.280
1525.1200, -40.240
1525.1400, -40.202
1525.1600, -40.163
1525.1800, -40.128
1525.2000, -40.090
1525.2200, -40.050
1525.2400, -40.013
1525.2600, -39.973
1525.2800, -39.936
1525.3000, -39.900
1525.3200, -39.862
1525.3400, -39.824
1525.3600, -39.788
1525.3800, -39.749
1525.4000, -39.710
1525.4200, -39.669
1525.4400, -39.626
1525.4600, -39.585
1525.4800, -39.547
1525.5000, -39.505
1525.5200, -39.464
1525.5400, -39.428
1525.5600, -39.386
1525.5800, -39.342
1525.6000, -39.305
1525.6200, -39.267
1525.6400, -39.227
1525.6600, -39.190
1525.6800, -39.153
1525.7000, -39.111
1525.7200, -39.069
1525.7400, -39.026
1525.7600, -38.985
1525.7800, -38.945
1525.8000, -38.906
1525.8200, -38.866
1525.8400, -38.828
1525.8600, -38.785
1525.8800, -38.747
1525.9000, -38.710
1525.9200, -38.669
1525.9400, -38.633
1525.9600, -38.598
1525.9800, -38.566
1526.0000, -38.527
1526.0200, -38.491
1526.0400, -38.453
1526.0600, -38.410
1526.0800, -38.372
1526.1000, -38.335
1526.1200, -38.299
1526.1400, -38.261
1526.1600, -38.221
1526.1800, -38.181
1526.2000, -38.140
1526.2200, -38.098
1526.2400, -38.060
1526.2600, -38.019
1526.2800, -37.987
1526.3000, -37.952
1526.3200, -37.917
1526.3400, -37.880
1526.3600, -37.846
1526.3800, -37.809
1526.4000, -37.772
1526.4200, -37.729
1526.4400, -37.691
1526.4600, -37.655
1526.4800, -37.620
1526.5000, -37.583
1526.5200, -37.544
1526.5400, -37.512
1526.5600, -37.466
1526.5800, -37.426
1526.6000, -37.393
1526.6200, -37.352
1526.6400, -37.315
1526.6600, -37.275
1526.6800, -37.236
1526.7000, -37.198
1526.7200, -37.159
1526.7400, -37.120
1526.7600, -37.082
1526.7800, -37.049
1526.8000, -37.005
1526.8200, -36.973
1526.8400, -36.940
1526.8600, -36.902
1526.8800, -36.862
1526.9000, -36.820
1526.9200, -36.777
1526.9400, -36.736
1526.9600, -36.688
1526.9800, -36.646
1527.0000, -36.613
1527.0200, -36.579
1527.0400, -36.537
1527.0600, -36.503
1527.0800, -36.464
1527.1000, -36.427
1527.1200, -36.385
1527.1400, -36.349
1527.1600, -36.313
1527.1800, -36.280
1527.2000, -36.247
1527.2200, -36.212
1527.2400, -36.171
1527.2600, -36.133
1527.2800, -36.096
1527.3000, -36.058
1527.3200, -36.017
1527.3400, -35.979
1527.3600, -35.938
1527.3800, -35.891
1527.4000, -35.853
1527.4200, -35.810
1527.4400, -35.765
1527.4600, -35.747
1527.4800, -35.696
1527.5000, -35.643
1527.5200, -35.602
1527.5400, -35.563
1527.5600, -35.514
1527.5800, -35.470
1527.6000, -35.436
1527.6200, -35.380
1527.6400, -35.349
1527.6600, -35.307
1527.6800, -35.261
1527.7000, -35.224
1527.7200, -35.170
1527.7400, -35.134
1527.7600, -35.100
1527.7800, -35.064
1527.8000, -35.013
1527.8200, -34.965
1527.8400, -34.925
1527.8600, -34.868
1527.8800, -34.823
1527.9000, -34.777
1527.9200, -34.735
1527.9400, -34.705
1527.9600, -34.657
1527.9800, -34.614
1528.0000, -34.579
1528.0200, -34.515
1528.0400, -34.460
1528.0600, -34.424
1528.0800, -34.384
1528.1000, -34.347
1528.1200, -34.305
1528.1400, -34.257
1528.1600, -34.209
1528.1800, -34.166
1528.2000, -34.118
1528.2200, -34.071
1528.2400, -34.029
1528.2600, -33.988
1528.2800, -33.951
1528.3000, -33.910
1528.3200, -33.871
1528.3400, -33.840
1528.3600, -33.793
1528.3800, -33.758
1528.4000, -33.720
1528.4200, -33.676
1528.4400, -33.651
1528.4600, -33.619
1528.4800, -33.588
1528.5000, -33.540
1528.5200, -33.503
1528.5400, -33.457
1528.5600, -33.438
1528.5800, -33.399
1528.6000, -33.348
1528.6200, -33.319
1528.6400, -33.273
1528.6600, -33.244
1528.6800, -33.201
1528.7000, -33.173
1528.7200, -33.132
1528.7400, -33.090
1528.7600, -33.043
1528.7800, -33.003
1528.8000, -32.953
1528.8200, -32.877
1528.8400, -32.827
1528.8600, -32.790
1528.8800, -32.750
1528.9000, -32.706
1528.9200, -32.673
1528.9400, -32.621
1528.9600, -32.571
1528.9800, -32.505
1529.0000, -32.455
1529.0200, -32.405
1529.0400, -32.367
1529.0600, -32.329
1529.0800, -32.283
1529.1000, -32.232
1529.1200, -32.188
1529.1400, -32.133
1529.1600, -32.080
1529.1800, -32.026
1529.2000, -31.973
1529.2200, -31.913
1529.2400, -31.865
1529.2600, -31.824
1529.2800, -31.777
1529.3000, -31.727
1529.3200, -31.693
1529.3400, -31.631
1529.3600, -31.572
1529.3800, -31.522
1529.4000, -31.480
1529.4200, -31.437
1529.4400, -31.353
1529.4600, -31.323
1529.4800, -31.282
1529.5000, -31.285
1529.5200, -31.233
1529.5400, -31.185
1529.5600, -31.188
1529.5800, -31.147
1529.6000, -31.159
1529.6200, -31.020
1529.6400, -30.967
1529.6600, -30.919
1529.6800, -30.866
1529.7000, -30.848
1529.7200, -30.811
1529.7400, -30.823
1529.7600, -30.700
1529.7800, -30.660
1529.8000, -30.598
1529.8200, -30.560
1529.8400, -30.484
1529.8600, -30.480
1529.8800, -30.415
1529.9000, -30.337
1529.9200, -30.354
1529.9400, -30.363
1529.9600, -30.312
1529.9800, -30.248
1530.0000, -30.276
1530.0200, -30.202
1530.0400, -30.080
1530.0600, -30.116
1530.0800, -30.083
1530.1000, -30.047
1530.1200, -30.009
1530.1400, -29.950
1530.1600, -29.944
1530.1800, -29.894
1530.2000, -29.839
1530.2200, -29.925
1530.2400, -29.905
1530.2600, -29.900
1530.2800, -29.956
1530.3000, -29.908
1530.3200, -29.882
1530.3400, -29.786
1530.3600, -29.651
1530.3800, -29.612
1530.4000, -29.484
1530.4200, -29.319
1530.4400, -29.379
1530.4600, -29.378
1530.4800, -29.487
1530.5000, -29.246
1530.5200, -29.299
1530.5400, -29.175
1530.5600, -29.305
1530.5800, -29.134
1530.6000, -29.165
1530.6200, -29.094
1530.6400, -28.977
1530.6600, -29.015
1530.6800, -28.987
1530.7000, -28.858
1530.7200, -28.852
1530.7400, -29.000
1530.7600, -28.953
1530.7800, -28.818
1530.8000, -28.724
1530.8200, -28.753
1530.8400, -28.742
1530.8600, -28.777
1530.8800, -28.707
1530.9000, -28.668
1530.9200, -28.636
1530.9400, -28.578
1530.9600, -28.581
1530.9800, -28.600
1531.0000, -28.696
1531.0200, -28.789
1531.0400, -28.621
1531.0600, -28.586
1531.0800, -28.581
1531.1000, -28.789
1531.1200, -28.779
1531.1400, -28.437
1531.1600, -28.448
1531.1800, -28.718
1531.2000, -28.649
1531.2200, -28.482
1531.2400, -27.989
1531.2600, -28.269
1531.2800, -28.264
1531.3000, -28.294
1531.3200, -27.857
1531.3400, -28.113
1531.3600, -27.984
1531.3800, -28.091
1531.4000, -28.077
1531.4200, -28.006
1531.4400, -27.832
1531.4600, -27.942
1531.4800, -27.904
1531.5000, -27.491
1531.5200, -27.867
1531.5400, -28.156
1531.5600, -27.307
1531.5800, -26.721
1531.6000, -27.877
1531.6200, -27.279
1531.6400, -27.220
1531.6600, -27.572
1531.6800, -27.888
1531.7000, -27.724
1531.7200, -27.364
1531.7400, -26.795
1531.7600, -27.921
1531.7800, -27.172
1531.8000, -26.498
1531.8200, -26.752
1531.8400, -27.387
1531.8600, -27.527
1531.8800, -27.040
1531.9000, -27.357
1531.9200, -27.166
1531.9400, -27.105
1531.9600, -26.747
1531.9800, -26.272
1532.0000, -25.837
1532.0200, -27.591
1532.0400, -26.508
1532.0600, -26.750
1532.0800, -26.948
1532.1000, -25.965
1532.1200, -25.949
1532.1400, -27.031
1532.1600, -27.010
1532.1800, -27.570
1532.2000, -27.425
1532.2200, -26.248
1532.2400, -27.537
1532.2600, -27.847
1532.2800, -27.779
1532.3000, -26.988
1532.3200, -26.623
1532.3400, -27.620
1532.3600, -27.621
1532.3800, -27.257
1532.4000, -25.913
1532.4200, -27.780
1532.4400, -27.712
1532.4600, -27.626
1532.4800, -27.739
1532.5000, -25.048
1532.5200, -27.238
1532.5400, -26.879
1532.5600, -27.614
1532.5800, -27.224
1532.6000, -27.192
1532.6200, -26.872
1532.6400, -27.832
1532.6600, -27.498
1532.6800, -27.787
1532.7000, -27.444
1532.7200, -27.763
1532.7400, -27.942
1532.7600, -27.239
1532.7800, -28.019
1532.8000, -27.623
1532.8200, -25.821
1532.8400, -28.027
1532.8600, -27.236
1532.8800, -27.374
1532.9000, -26.705
1532.9200, -28.060
1532.9400, -26.770
1532.9600, -27.548
1532.9800, -28.309
1533.0000, -28.410
1533.0200, -28.029
1533.0400, -27.352
1533.0600, -28.391
1533.0800, -28.397
1533.1000, -27.663
1533.1200, -28.693
1533.1400, -28.449
1533.1600, -28.442
1533.1800, -28.722
1533.2000, -28.522
1533.2200, -28.730
1533.2400, -28.591
1533.2600, -28.893
1533.2800, -28.949
1533.3000, -28.811
1533.3200, -28.771
1533.3400, -28.926
1533.3600, -28.351
1533.3800, -28.830
1533.4000, -28.993
1533.4200, -28.719
1533.4400, -28.872
1533.4600, -29.120
1533.4800, -29.313
1533.5000, -29.405
1533.5200, -29.311
1533.5400, -29.434
1533.5600, -29.527
1533.5800, -29.614
1533.6000, -29.641
1533.6200, -29.892
1533.6400, -29.923
1533.6600, -29.920
1533.6800, -30.087
1533.7000, -30.113
1533.7200, -30.149
1533.7400, -30.315
1533.7600, -30.404
1533.7800, -30.527
1533.8000, -30.518
1533.8200, -30.625
1533.8400, -30.704
1533.8600, -30.702
1533.8800, -30.895
1533.9000, -30.970
1533.9200, -31.090
1533.9400, -31.147
1533.9600, -31.252
1533.9800, -31.275
1534.0000, -31.322
1534.0200, -31.437
1534.0400, -31.399
1534.0600, -31.491
1534.0800, -31.571
1534.1000, -31.602
1534.1200, -31.718
1534.1400, -31.727
1534.1600, -31.752
1534.1800, -31.893
1534.2000, -31.917
1534.2200, -31.900
1534.2400, -31.990
1534.2600, -32.047
1534.2800, -32.075
1534.3000, -32.179
1534.3200, -32.237
1534.3400, -32.315
1534.3600, -32.436
1534.3800, -32.457
1534.4000, -32.551
1534.4200, -32.578
1534.4400, -32.656
1534.4600, -32.724
1534.4800, -32.724
1534.5000, -32.858
1534.5200, -32.937
1534.5400, -32.959
1534.5600, -33.023
1534.5800, -33.093
1534.6000, -33.122
1534.6200, -33.208
1534.6400, -33.246
1534.6600, -33.328
1534.6800, -33.379
1534.7000, -33.465
1534.7200, -33.454
1534.7400, -33.521
1534.7600, -33.583
1534.7800, -33.726
1534.8000, -33.706
1534.8200, -33.750
1534.8400, -33.893
1534.8600, -33.935
1534.8800, -34.014
1534.9000, -34.065
1534.9200, -34.076
1534.9400, -34.178
1534.9600, -34.178
1534.9800, -34.294
1535.0000, -34.337
1535.0200, -34.364
1535.0400, -34.436
1535.0600, -34.486
1535.0800, -34.587
1535.1000, -34.640
1535.1200, -34.717
1535.1400, -34.741
1535.1600, -34.801
1535.1800, -34.841
1535.2000, -34.896
1535.2200, -34.942
1535.2400, -35.002
1535.2600, -35.057
1535.2800, -35.128
1535.3000, -35.179
1535.3200, -35.237
1535.3400, -35.293
1535.3600, -35.350
1535.3800, -35.410
1535.4000, -35.466
1535.4200, -35.513
1535.4400, -35.559
1535.4600, -35.616
1535.4800, -35.669
1535.5000, -35.733
1535.5200, -35.786
1535.5400, -35.851
1535.5600, -35.901
1535.5800, -35.963
1535.6000, -36.016
1535.6200, -36.063
1535.6400, -36.111
1535.6600, -36.175
1535.6800, -36.224
1535.7000, -36.281
1535.7200, -36.339
1535.7400, -36.387
1535.7600, -36.442
1535.7800, -36.506
1535.8000, -36.562
1535.8200, -36.616
1535.8400, -36.665
1535.8600, -36.712
1535.8800, -36.764
1535.9000, -36.809
1535.9200, -36.857
1535.9400, -36.899
1535.9600, -36.952
1535.9800, -36.997
1536.0000, -37.046
1536.0200, -37.105
1536.0400, -37.150
1536.0600, -37.200
1536.0800, -37.245
1536.1000, -37.287
1536.1200, -37.315
1536.1400, -37.362
1536.1600, -37.408
1536.1800, -37.467
1536.2000, -37.511
1536.2200, -37.548
1536.2400, -37.587
1536.2600, -37.628
1536.2800, -37.669
1536.3000, -37.714
1536.3200, -37.757
1536.3400, -37.800
1536.3600, -37.834
1536.3800, -37.872
1536.4000, -37.916
1536.4200, -37.960
1536.4400, -38.003
1536.4600, -38.039
1536.4800, -38.077
1536.5000, -38.121
1536.5200, -38.161
1536.5400, -38.201
1536.5600, -38.230
1536.5800, -38.272
1536.6000, -38.299
1536.6200, -38.325
1536.6400, -38.361
1536.6600, -38.395
1536.6800, -38.429
1536.7000, -38.469
1536.7200, -38.507
1536.7400, -38.543
1536.7600, -38.572
1536.7800, -38.605
1536.8000, -38.638
1536.8200, -38.669
1536.8400, -38.707
1536.8600, -38.737
1536.8800, -38.774
1536.9000, -38.804
1536.9200, -38.836
1536.9400, -38.878
1536.9600, -38.908
1536.9800, -38.936
1537.0000, -38.967
1537.0200, -38.999
1537.0400, -39.020
1537.0600, -39.051
1537.0800, -39.082
1537.1000, -39.118
1537.1200, -39.154
1537.1400, -39.185
1537.1600, -39.208
1537.1800, -39.238
1537.2000, -39.254
1537.2200, -39.296
1537.2400, -39.322
1537.2600, -39.352
1537.2800, -39.368
1537.3000, -39.394
1537.3200, -39.411
1537.3400, -39.449
1537.3600, -39.482
1537.3800, -39.509
1537.4000, -39.538
1537.4200, -39.567
1537.4400, -39.588
1537.4600, -39.610
1537.4800, -39.632
1537.5000, -39.655
1537.5200, -39.673
1537.5400, -39.697
1537.5600, -39.720
1537.5800, -39.740
1537.6000, -39.768
1537.6200, -39.807
1537.6400, -39.826
1537.6600, -39.847
1537.6800, -39.863
1537.7000, -39.885
1537.7200, -39.906
1537.7400, -39.917
1537.7600, -39.940
1537.7800, -39.962
1537.8000, -39.985
1537.8200, -40.003
1537.8400, -40.031
1537.8600, -40.056
1537.8800, -40.071
1537.9000, -40.084
1537.9200, -40.104
1537.9400, -40.128
1537.9600, -40.146
1537.9800, -40.165
1538.0000, -40.172
1538.0200, -40.186
1538.0400, -40.212
1538.0600, -40.225
1538.0800, -40.244
1538.1000, -40.264
1538.1200, -40.281
1538.1400, -40.307
1538.1600, -40.319
1538.1800, -40.342
1538.2000, -40.348
1538.2200, -40.365
1538.2400, -40.381
1538.2600, -40.401
1538.2800, -40.417
1538.3000, -40.431
1538.3200, -40.445
1538.3400, -40.458
1538.3600, -40.471
1538.3800, -40.481
1538.4000, -40.494
1538.4200, -40.509
1538.4400, -40.518
1538.4600, -40.534
1538.4800, -40.545
1538.5000, -40.553
1538.5200, -40.572
1538.5400, -40.584
1538.5600, -40.603
1538.5800, -40.607
1538.6000, -40.617
1538.6200, -40.631
1538.6400, -40.639
1538.6600, -40.640
1538.6800, -40.656
1538.7000, -40.661
1538.7200, -40.672
1538.7400, -40.674
1538.7600, -40.691
1538.7800, -40.710
1538.8000, -40.715
1538.8200, -40.726
1538.8400, -40.736
1538.8600, -40.746
1538.8800, -40.755
1538.9000, -40.760
1538.9200, -40.764
1538.9400, -40.778
1538.9600, -40.784
1538.9800, -40.782
1539.0000, -40.795
1539.0200, -40.800
1539.0400, -40.810
1539.0600, -40.821
1539.0800, -40.826
1539.1000, -40.830
1539.1200, -40.840
1539.1400, -40.846
1539.1600, -40.852
1539.1800, -40.862
1539.2000, -40.868
1539.2200, -40.875
1539.2400, -40.879
1539.2600, -40.885
1539.2800, -40.889
1539.3000, -40.895
1539.3200, -40.899
1539.3400, -40.905
1539.3600, -40.907
1539.3800, -40.914
1539.4000, -40.918
1539.4200, -40.922
1539.4400, -40.927
1539.4600, -40.940
1539.4800, -40.943
1539.5000, -40.946
1539.5200, -40.952
1539.5400, -40.961
1539.5600, -40.961
1539.5800, -40.968
1539.6000, -40.970
1539.6200, -40.979
1539.6400, -40.983
1539.6600, -40.980
1539.6800, -40.996
1539.7000, -40.998
1539.7200, -40.994
1539.7400, -41.000
1539.7600, -41.001
1539.7800, -41.004
1539.8000, -41.003
1539.8200, -41.002
1539.8400, -41.010
1539.8600, -41.014
1539.8800, -41.014
1539.9000, -41.011
1539.9200, -41.018
1539.9400, -41.015
1539.9600, -41.021
1539.9800, -41.021
1540.0000, -41.021
1540.0200, -41.023
1540.0400, -41.027
1540.0600, -41.030
1540.0800, -41.027
1540.1000, -41.040
1540.1200, -41.043
1540.1400, -41.044
1540.1600, -41.046
1540.1800, -41.046
1540.2000, -41.048
1540.2200, -41.049
1540.2400, -41.046
1540.2600, -41.047
1540.2800, -41.037
1540.3000, -41.034
1540.3200, -41.031
1540.3400, -41.030
1540.3600, -41.031
1540.3800, -41.035
1540.4000, -41.034
1540.4200, -41.026
1540.4400, -41.025
1540.4600, -41.025
1540.4800, -41.017
1540.5000, -41.014
1540.5200, -41.015
1540.5400, -41.017
1540.5600, -41.015
1540.5800, -41.015
1540.6000, -41.022
1540.6200, -41.022
1540.6400, -41.017
1540.6600, -41.017
1540.6800, -41.016
1540.7000, -41.014
1540.7200, -41.013
1540.7400, -41.008
1540.7600, -41.008
1540.7800, -41.007
1540.8000, -40.999
1540.8200, -40.991
1540.8400, -40.992
1540.8600, -40.989
1540.8800, -40.990
1540.9000, -40.982
1540.9200, -40.981
1540.9400, -40.982
1540.9600, -40.983
1540.9800, -40.982
1541.0000, -40.981
1541.0200, -40.986
1541.0400, -40.984
1541.0600, -40.981
1541.0800, -40.977
1541.1000, -40.974
1541.1200, -40.968
1541.1400, -40.964
1541.1600, -40.955
1541.1800, -40.959
1541.2000, -40.954
1541.2200, -40.952
1541.2400, -40.946
1541.2600, -40.949
1541.2800, -40.944
1541.3000, -40.948
1541.3200, -40.945
1541.3400, -40.938
1541.3600, -40.935
1541.3800, -40.933
1541.4000, -40.924
1541.4200, -40.922
1541.4400, -40.918
1541.4600, -40.915
1541.4800, -40.919
1541.5000, -40.914
1541.5200, -40.907
1541.5400, -40.907
1541.5600, -40.907
1541.5800, -40.900
1541.6000, -40.894
1541.6200, -40.884
1541.6400, -40.879
1541.6600, -40.878
1541.6800, -40.883
1541.7000, -40.877
1541.7200, -40.871
1541.7400, -40.868
1541.7600, -40.865
1541.7800, -40.864
1541.8000, -40.862
1541.8200, -40.861
1541.8400, -40.856
1541.8600, -40.851
1541.8800, -40.848
1541.9000, -40.844
1541.9200, -40.844
1541.9400, -40.839
1541.9600, -40.841
1541.9800, -40.835
1542.0000, -40.832
1542.0200, -40.825
1542.0400, -40.818
1542.0600, -40.806
1542.0800, -40.804
1542.1000, -40.801
1542.1200, -40.798
1542.1400, -40.793
1542.1600, -40.788
1542.1800, -40.793
1542.2000, -40.790
1542.2200, -40.788
1542.2400, -40.785
1542.2600, -40.773
1542.2800, -40.772
1542.3000, -40.767
1542.3200, -40.753
1542.3400, -40.753
1542.3600, -40.749
1542.3800, -40.743
1542.4000, -40.741
1542.4200, -40.738
1542.4400, -40.736
1542.4600, -40.729
1542.4800, -40.724
1542.5000, -40.717
1542.5200, -40.712
1542.5400, -40.708
1542.5600, -40.694
1542.5800, -40.702
1542.6000, -40.703
1542.6200, -40.695
1542.6400, -40.691
1542.6600, -40.683
1542.6800, -40.679
1542.7000, -40.679
1542.7200, -40.671
1542.7400, -40.668
1542.7600, -40.667
1542.7800, -40.660
1542.8000, -40.655
1542.8200, -40.653
1542.8400, -40.654
1542.8600, -40.651
1542.8800, -40.647
1542.9000, -40.642
1542.9200, -40.635
1542.9400, -40.632
1542.9600, -40.626
1542.9800, -40.613
1543.0000, -40.613
1543.0200, -40.605
1543.0400, -40.603
1543.0600, -40.596
1543.0800, -40.595
1543.1000, -40.596
1543.1200, -40.591
1543.1400, -40.586
1543.1600, -40.579
1543.1800, -40.579
1543.2000, -40.576
1543.2200, -40.572
1543.2400, -40.566
1543.2600, -40.567
1543.2800, -40.563
1543.3000, -40.564
1543.3200, -40.561
1543.3400, -40.548
1543.3600, -40.556
1543.3800, -40.550
1543.4000, -40.553
1543.4200, -40.547
1543.4400, -40.547
1543.4600, -40.543
1543.4800, -40.541
1543.5000, -40.536
1543.5200, -40.531
1543.5400, -40.531
1543.5600, -40.521
1543.5800, -40.520
1543.6000, -40.515
1543.6200, -40.511
1543.6400, -40.508
1543.6600, -40.515
1543.6800, -40.508
1543.7000, -40.506
1543.7200, -40.499
1543.7400, -40.495
1543.7600, -40.489
1543.7800, -40.481
1543.8000, -40.476
1543.8200, -40.474
1543.8400, -40.474
1543.8600, -40.474
1543.8800, -40.468
1543.9000, -40.467
1543.9200, -40.462
1543.9400, -40.462
1543.9600, -40.457
1543.9800, -40.459
1544.0000, -40.466
1544.0200, -40.456
1544.0400, -40.458
1544.0600, -40.453
1544.0800, -40.448
1544.1000, -40.446
1544.1200, -40.438
1544.1400, -40.431
1544.1600, -40.432
1544.1800, -40.426
1544.2000, -40.423
1544.2200, -40.428
1544.2400, -40.421
1544.2600, -40.429
1544.2800, -40.425
1544.3000, -40.428
1544.3200, -40.428
1544.3400, -40.426
1544.3600, -40.422
1544.3800, -40.415
1544.4000, -40.419
1544.4200, -40.413
1544.4400, -40.411
1544.4600, -40.410
1544.4800, -40.408
1544.5000, -40.406
1544.5200, -40.407
1544.5400, -40.407
1544.5600, -40.404
1544.5800, -40.401
1544.6000, -40.399
1544.6200, -40.394
1544.6400, -40.394
1544.6600, -40.404
1544.6800, -40.401
1544.7000, -40.400
1544.7200, -40.401
1544.7400, -40.399
1544.7600, -40.402
1544.7800, -40.400
1544.8000, -40.394
1544.8200, -40.401
1544.8400, -40.392
1544.8600, -40.393
1544.8800, -40.391
1544.9000, -40.399
1544.9200, -40.393
1544.9400, -40.386
1544.9600, -40.386
1544.9800, -40.387
1545.0000, -40.382
1545.0200, -40.385
1545.0400, -40.383
1545.0600, -40.381
1545.0800, -40.380
1545.1000, -40.381
1545.1200, -40.385
1545.1400, -40.386
1545.1600, -40.373
1545.1800, -40.383
1545.2000, -40.384
1545.2200, -40.385
1545.2400, -40.383
1545.2600, -40.382
1545.2800, -40.379
1545.3000, -40.379
1545.3200, -40.380
1545.3400, -40.374
1545.3600, -40.373
1545.3800, -40.375
1545.4000, -40.377
1545.4200, -40.380
1545.4400, -40.376
1545.4600, -40.373
1545.4800, -40.368
1545.5000, -40.363
1545.5200, -40.358
1545.5400, -40.362
1545.5600, -40.361
1545.5800, -40.356
1545.6000, -40.358
1545.6200, -40.360
1545.6400, -40.363
1545.6600, -40.363
1545.6800, -40.362
1545.7000, -40.360
1545.7200, -40.358
1545.7400, -40.360
1545.7600, -40.353
1545.7800, -40.348
1545.8000, -40.352
1545.8200, -40.351
1545.8400, -40.347
1545.8600, -40.351
1545.8800, -40.351
1545.9000, -40.348
1545.9200, -40.350
1545.9400, -40.345
1545.9600, -40.343
1545.9800, -40.342
1546.0000, -40.339
1546.0200, -40.343
1546.0400, -40.344
1546.0600, -40.324
1546.0800, -40.332
1546.1000, -40.331
1546.1200, -40.332
1546.1400, -40.333
1546.1600, -40.335
1546.1800, -40.337
1546.2000, -40.336
1546.2200, -40.340
1546.2400, -40.335
1546.2600, -40.334
1546.2800, -40.332
1546.3000, -40.328
1546.3200, -40.333
1546.3400, -40.337
1546.3600, -40.338
1546.3800, -40.337
1546.4000, -40.340
1546.4200, -40.344
1546.4400, -40.342
1546.4600, -40.353
1546.4800, -40.358
1546.5000, -40.357
1546.5200, -40.359
1546.5400, -40.358
1546.5600, -40.360
1546.5800, -40.359
1546.6000, -40.353
1546.6200, -40.360
1546.6400, -40.362
1546.6600, -40.363
1546.6800, -40.365
1546.7000, -40.369
1546.7200, -40.372
1546.7400, -40.364
1546.7600, -40.368
1546.7800, -40.365
1546.8000, -40.352
1546.8200, -40.360
1546.8400, -40.360
1546.8600, -40.359
1546.8800, -40.354
1546.9000, -40.356
1546.9200, -40.358
1546.9400, -40.366
1546.9600, -40.357
1546.9800, -40.365
1547.0000, -40.360
1547.0200, -40.361
1547.0400, -40.361
1547.0600, -40.361
1547.0800, -40.362
1547.1000, -40.364
1547.1200, -40.365
1547.1400, -40.358
1547.1600, -40.369
1547.1800, -40.369
1547.2000, -40.371
1547.2200, -40.369
1547.2400, -40.377
1547.2600, -40.375
1547.2800, -40.378
1547.3000, -40.373
1547.3200, -40.375
1547.3400, -40.377
1547.3600, -40.380
1547.3800, -40.380
1547.4000, -40.380
1547.4200, -40.376
1547.4400, -40.374
1547.4600, -40.375
1547.4800, -40.372
1547.5000, -40.366
1547.5200, -40.364
1547.5400, -40.368
1547.5600, -40.366
1547.5800, -40.362
1547.6000, -40.363
1547.6200, -40.373
1547.6400, -40.373
1547.6600, -40.380
1547.6800, -40.376
1547.7000, -40.381
1547.7200, -40.383
1547.7400, -40.385
1547.7600, -40.379
1547.7800, -40.377
1547.8000, -40.378
1547.8200, -40.378
1547.8400, -40.387
1547.8600, -40.376
1547.8800, -40.372
1547.9000, -40.377
1547.9200, -40.383
1547.9400, -40.383
1547.9600, -40.386
1547.9800, -40.389
1548.0000, -40.393
1548.0200, -40.397
1548.0400, -40.398
1548.0600, -40.393
1548.0800, -40.396
1548.1000, -40.394
1548.1200, -40.393
1548.1400, -40.395
1548.1600, -40.398
1548.1800, -40.396
1548.2000, -40.396
1548.2200, -40.402
1548.2400, -40.406
1548.2600, -40.414
1548.2800, -40.418
1548.3000, -40.419
1548.3200, -40.420
1548.3400, -40.418
1548.3600, -40.422
1548.3800, -40.420
1548.4000, -40.421
1548.4200, -40.420
1548.4400, -40.420
1548.4600, -40.422
1548.4800, -40.425
1548.5000, -40.426
1548.5200, -40.433
1548.5400, -40.425
1548.5600, -40.427
1548.5800, -40.425
1548.6000, -40.428
1548.6200, -40.437
1548.6400, -40.435
1548.6600, -40.434
1548.6800, -40.436
1548.7000, -40.438
1548.7200, -40.445
1548.7400, -40.455
1548.7600, -40.453
1548.7800, -40.455
1548.8000, -40.463
1548.8200, -40.466
1548.8400, -40.467
1548.8600, -40.470
1548.8800, -40.470
1548.9000, -40.470
1548.9200, -40.476
1548.9400, -40.478
1548.9600, -40.475
1548.9800, -40.477
1549.0000, -40.476
1549.0200, -40.480
1549.0400, -40.486
1549.0600, -40.487
1549.0800, -40.486
1549.1000, -40.488
1549.1200, -40.485
1549.1400, -40.489
1549.1600, -40.492
1549.1800, -40.499
1549.2000, -40.501
1549.2200, -40.504
1549.2400, -40.509
1549.2600, -40.512
1549.2800, -40.510
1549.3000, -40.506
1549.3200, -40.503
1549.3400, -40.500
1549.3600, -40.501
1549.3800, -40.501
1549.4000, -40.507
1549.4200, -40.517
1549.4400, -40.517
1549.4600, -40.525
1549.4800, -40.524
1549.5000, -40.524
1549.5200, -40.529
1549.5400, -40.530
1549.5600, -40.530
1549.5800, -40.531
1549.6000, -40.531
1549.6200, -40.531
1549.6400, -40.536
1549.6600, -40.536
1549.6800, -40.539
1549.7000, -40.543
1549.7200, -40.545
1549.7400, -40.546
1549.7600, -40.548
1549.7800, -40.553
1549.8000, -40.557
1549.8200, -40.561
1549.8400, -40.563
1549.8600, -40.560
1549.8800, -40.563
1549.9000, -40.565
1549.9200, -40.564
1549.9400, -40.560
1549.9600, -40.563
1549.9800, -40.571
1550.0000, -40.571
1550.0200, -40.575
1550.0400, -40.573
1550.0600, -40.573
1550.0800, -40.576
1550.1000, -40.579
1550.1200, -40.581
1550.1400, -40.583
1550.1600, -40.580
1550.1800, -40.578
1550.2000, -40.580
1550.2200, -40.579
1550.2400, -40.582
1550.2600, -40.583
1550.2800, -40.591
1550.3000, -40.597
1550.3200, -40.609
1550.3400, -40.608
1550.3600, -40.613
1550.3800, -40.617
1550.4000, -40.615
1550.4200, -40.622
1550.4400, -40.623
1550.4600, -40.620
1550.4800, -40.622
1550.5000, -40.627
1550.5200, -40.625
1550.5400, -40.636
1550.5600, -40.633
1550.5800, -40.641
1550.6000, -40.645
1550.6200, -40.652
1550.6400, -40.657
1550.6600, -40.661
1550.6800, -40.665
1550.7000, -40.662
1550.7200, -40.666
1550.7400, -40.679
1550.7600, -40.680
1550.7800, -40.685
1550.8000, -40.693
1550.8200, -40.694
1550.8400, -40.702
1550.8600, -40.706
1550.8800, -40.713
1550.9000, -40.711
1550.9200, -40.715
1550.9400, -40.713
1550.9600, -40.721
1550.9800, -40.724
1551.0000, -40.725
1551.0200, -40.729
1551.0400, -40.734
1551.0600, -40.736
1551.0800, -40.738
1551.1000, -40.739
1551.1200, -40.738
1551.1400, -40.740
1551.1600, -40.744
1551.1800, -40.749
1551.2000, -40.748
1551.2200, -40.760
1551.2400, -40.765
1551.2600, -40.770
1551.2800, -40.772
1551.3000, -40.765
1551.3200, -40.771
1551.3400, -40.772
1551.3600, -40.770
1551.3800, -40.774
1551.4000, -40.776
1551.4200, -40.774
1551.4400, -40.781
1551.4600, -40.782
1551.4800, -40.785
1551.5000, -40.784
1551.5200, -40.781
1551.5400, -40.785
1551.5600, -40.793
1551.5800, -40.795
1551.6000, -40.798
1551.6200, -40.798
1551.6400, -40.804
1551.6600, -40.806
1551.6800, -40.811
1551.7000, -40.811
1551.7200, -40.815
1551.7400, -40.820
1551.7600, -40.827
1551.7800, -40.834
1551.8000, -40.831
1551.8200, -40.836
1551.8400, -40.840
1551.8600, -40.837
1551.8800, -40.838
1551.9000, -40.846
1551.9200, -40.850
1551.9400, -40.849
1551.9600, -40.851
1551.9800, -40.849
1552.0000, -40.846
1552.0200, -40.851
1552.0400, -40.852
1552.0600, -40.857
1552.0800, -40.861
1552.1000, -40.863
1552.1200, -40.871
1552.1400, -40.884
1552.1600, -40.887
1552.1800, -40.882
1552.2000, -40.888
1552.2200, -40.891
1552.2400, -40.887
1552.2600, -40.887
1552.2800, -40.889
1552.3000, -40.894
1552.3200, -40.894
1552.3400, -40.901
1552.3600, -40.906
1552.3800, -40.907
1552.4000, -40.909
1552.4200, -40.912
1552.4400, -40.914
1552.4600, -40.915
1552.4800, -40.919
1552.5000, -40.911
1552.5200, -40.915
1552.5400, -40.927
1552.5600, -40.924
1552.5800, -40.926
1552.6000, -40.933
1552.6200, -40.938
1552.6400, -40.949
1552.6600, -40.953
1552.6800, -40.959
1552.7000, -40.963
1552.7200, -40.969
1552.7400, -40.969
1552.7600, -40.977
1552.7800, -40.981
1552.8000, -40.983
1552.8200, -40.987
1552.8400, -40.989
1552.8600, -40.991
1552.8800, -40.992
1552.9000, -40.994
1552.9200, -40.994
1552.9400, -40.993
1552.9600, -40.999
1552.9800, -40.999
1553.0000, -40.998
1553.0200, -41.004
1553.0400, -41.011
1553.0600, -41.011
1553.0800, -41.012
1553.1000, -41.016
1553.1200, -41.016
1553.1400, -41.020
1553.1600, -41.024
1553.1800, -41.028
1553.2000, -41.032
1553.2200, -41.031
1553.2400, -41.036
1553.2600, -41.048
1553.2800, -41.051
1553.3000, -41.055
1553.3200, -41.056
1553.3400, -41.059
1553.3600, -41.062
1553.3800, -41.064
1553.4000, -41.058
1553.4200, -41.061
1553.4400, -41.062
1553.4600, -41.057
1553.4800, -41.062
1553.5000, -41.062
1553.5200, -41.066
1553.5400, -41.065
1553.5600, -41.073
1553.5800, -41.075
1553.6000, -41.078
1553.6200, -41.077
1553.6400, -41.084
1553.6600, -41.093
1553.6800, -41.095
1553.7000, -41.096
1553.7200, -41.097
1553.7400, -41.096
1553.7600, -41.097
1553.7800, -41.098
1553.8000, -41.099
1553.8200, -41.098
1553.8400, -41.100
1553.8600, -41.104
1553.8800, -41.105
1553.9000, -41.107
1553.9200, -41.112
1553.9400, -41.117
1553.9600, -41.113
1553.9800, -41.115
1554.0000, -41.123
1554.0200, -41.124
1554.0400, -41.127
1554.0600, -41.131
1554.0800, -41.135
1554.1000, -41.139
1554.1200, -41.141
1554.1400, -41.148
1554.1600, -41.158
1554.1800, -41.155
1554.2000, -41.157
1554.2200, -41.163
1554.2400, -41.164
1554.2600, -41.166
1554.2800, -41.164
1554.3000, -41.159
1554.3200, -41.160
1554.3400, -41.168
1554.3600, -41.162
1554.3800, -41.162
1554.4000, -41.160
1554.4200, -41.166
1554.4400, -41.167
1554.4600, -41.172
1554.4800, -41.168
1554.5000, -41.168
1554.5200, -41.173
1554.5400, -41.177
1554.5600, -41.183
1554.5800, -41.185
1554.6000, -41.189
1554.6200, -41.191
1554.6400, -41.191
1554.6600, -41.194
1554.6800, -41.194
1554.7000, -41.202
1554.7200, -41.204
1554.7400, -41.206
1554.7600, -41.208
1554.7800, -41.205
1554.8000, -41.209
1554.8200, -41.219
1554.8400, -41.220
1554.8600, -41.219
1554.8800, -41.223
1554.9000, -41.228
1554.9200, -41.228
1554.9400, -41.228
1554.9600, -41.229
1554.9800, -41.232
1555.0000, -41.231
1555.0200, -41.233
1555.0400, -41.238
1555.0600, -41.238
1555.0800, -41.240
1555.1000, -41.241
1555.1200, -41.242
1555.1400, -41.245
1555.1600, -41.249
1555.1800, -41.251
1555.2000, -41.254
1555.2200, -41.261
1555.2400, -41.260
1555.2600, -41.260
1555.2800, -41.266
1555.3000, -41.268
1555.3200, -41.277
1555.3400, -41.277
1555.3600, -41.276
1555.3800, -41.275
1555.4000, -41.275
1555.4200, -41.277
1555.4400, -41.282
1555.4600, -41.286
1555.4800, -41.288
1555.5000, -41.292
1555.5200, -41.297
1555.5400, -41.296
1555.5600, -41.297
1555.5800, -41.297
1555.6000, -41.302
1555.6200, -41.305
1555.6400, -41.309
1555.6600, -41.312
1555.6800, -41.313
1555.7000, -41.317
1555.7200, -41.323
1555.7400, -41.322
1555.7600, -41.321
1555.7800, -41.325
1555.8000, -41.325
1555.8200, -41.323
1555.8400, -41.325
1555.8600, -41.328
1555.8800, -41.331
1555.9000, -41.329
1555.9200, -41.332
1555.9400, -41.341
1555.9600, -41.344
1555.9800, -41.344
1556.0000, -41.348
1556.0200, -41.356
1556.0400, -41.359
1556.0600, -41.365
1556.0800, -41.368
1556.1000, -41.372
1556.1200, -41.375
1556.1400, -41.374
1556.1600, -41.379
1556.1800, -41.378
1556.2000, -41.383
1556.2200, -41.387
1556.2400, -41.390
1556.2600, -41.388
1556.2800, -41.390
1556.3000, -41.386
1556.3200, -41.391
1556.3400, -41.394
1556.3600, -41.402
1556.3800, -41.404
1556.4000, -41.409
1556.4200, -41.410
1556.4400, -41.411
1556.4600, -41.411
1556.4800, -41.414
1556.5000, -41.413
1556.5200, -41.420
1556.5400, -41.423
1556.5600, -41.420
1556.5800, -41.423
1556.6000, -41.430
1556.6200, -41.437
1556.6400, -41.438
1556.6600, -41.441
1556.6800, -41.447
1556.7000, -41.449
1556.7200, -41.449
1556.7400, -41.450
1556.7600, -41.458
1556.7800, -41.461
1556.8000, -41.463
1556.8200, -41.475
1556.8400, -41.479
1556.8600, -41.480
1556.8800, -41.482
1556.9000, -41.489
1556.9200, -41.491
1556.9400, -41.495
1556.9600, -41.500
1556.9800, -41.499
1557.0000, -41.503
1557.0200, -41.504
1557.0400, -41.502
1557.0600, -41.504
1557.0800, -41.507
1557.1000, -41.511
1557.1200, -41.513
1557.1400, -41.516
1557.1600, -41.518
1557.1800, -41.524
1557.2000, -41.530
1557.2200, -41.536
1557.2400, -41.543
1557.2600, -41.548
1557.2800, -41.554
1557.3000, -41.558
1557.3200, -41.561
1557.3400, -41.565
1557.3600, -41.570
1557.3800, -41.573
1557.4000, -41.580
1557.4200, -41.590
1557.4400, -41.594
1557.4600, -41.597
1557.4800, -41.607
1557.5000, -41.616
1557.5200, -41.618
1557.5400, -41.617
1557.5600, -41.623
1557.5800, -41.623
1557.6000, -41.625
1557.6200, -41.626
1557.6400, -41.632
1557.6600, -41.637
1557.6800, -41.641
1557.7000, -41.651
1557.7200, -41.660
1557.7400, -41.663
1557.7600, -41.664
1557.7800, -41.667
1557.8000, -41.673
1557.8200, -41.676
1557.8400, -41.675
1557.8600, -41.675
1557.8800, -41.670
1557.9000, -41.675
1557.9200, -41.680
1557.9400, -41.686
1557.9600, -41.693
1557.9800, -41.699
1558.0000, -41.707
1558.0200, -41.712
1558.0400, -41.715
1558.0600, -41.724
1558.0800, -41.731
1558.1000, -41.734
1558.1200, -41.749
1558.1400, -41.758
1558.1600, -41.763
1558.1800, -41.769
1558.2000, -41.771
1558.2200, -41.770
1558.2400, -41.775
1558.2600, -41.780
1558.2800, -41.783
1558.3000, -41.786
1558.3200, -41.794
1558.3400, -41.799
1558.3600, -41.809
1558.3800, -41.819
1558.4000, -41.821
1558.4200, -41.827
1558.4400, -41.829
1558.4600, -41.836
1558.4800, -41.837
1558.5000, -41.842
1558.5200, -41.845
1558.5400, -41.853
1558.5600, -41.860
1558.5800, -41.867
1558.6000, -41.879
1558.6200, -41.880
1558.6400, -41.888
1558.6600, -41.896
1558.6800, -41.903
1558.7000, -41.912
1558.7200, -41.919
1558.7400, -41.919
1558.7600, -41.924
1558.7800, -41.933
1558.8000, -41.944
1558.8200, -41.947
1558.8400, -41.953
1558.8600, -41.960
1558.8800, -41.969
1558.9000, -41.969
1558.9200, -41.981
1558.9400, -41.989
1558.9600, -41.998
1558.9800, -42.007
1559.0000, -42.019
1559.0200, -42.028
1559.0400, -42.035
1559.0600, -42.043
1559.0800, -42.051
1559.1000, -42.057
1559.1200, -42.063
1559.1400, -42.071
1559.1600, -42.078
1559.1800, -42.087
1559.2000, -42.096
1559.2200, -42.102
1559.2400, -42.111
1559.2600, -42.122
1559.2800, -42.127
1559.3000, -42.131
1559.3200, -42.138
1559.3400, -42.150
1559.3600, -42.157
1559.3800, -42.162
1559.4000, -42.169
1559.4200, -42.177
1559.4400, -42.184
1559.4600, -42.192
1559.4800, -42.205
1559.5000, -42.212
1559.5200, -42.223
1559.5400, -42.237
1559.5600, -42.248
1559.5800, -42.255
1559.6000, -42.263
1559.6200, -42.273
1559.6400, -42.276
1559.6600, -42.287
1559.6800, -42.297
1559.7000, -42.301
1559.7200, -42.310
1559.7400, -42.321
1559.7600, -42.328
1559.7800, -42.340
1559.8000, -42.351
1559.8200, -42.355
1559.8400, -42.364
1559.8600, -42.371
1559.8800, -42.379
1559.9000, -42.391
1559.9200, -42.402
1559.9400, -42.409
1559.9600, -42.419
1559.9800, -42.427
1560.0000, -42.439
1560.0200, -42.451
1560.0400, -42.461
1560.0600, -42.469
1560.0800, -42.481
1560.1000, -42.487
1560.1200, -42.496
1560.1400, -42.508
1560.1600, -42.519
1560.1800, -42.530
1560.2000, -42.542
1560.2200, -42.553
1560.2400, -42.562
1560.2600, -42.573
1560.2800, -42.586
1560.3000, -42.600
1560.3200, -42.605
1560.3400, -42.616
1560.3600, -42.625
1560.3800, -42.638
1560.4000, -42.647
1560.4200, -42.655
1560.4400, -42.666
1560.4600, -42.676
1560.4800, -42.688
1560.5000, -42.700
1560.5200, -42.715
1560.5400, -42.727
1560.5600, -42.740
1560.5800, -42.747
1560.6000, -42.761
1560.6200, -42.772
1560.6400, -42.789
1560.6600, -42.806
1560.6800, -42.819
1560.7000, -42.832
1560.7200, -42.840
1560.7400, -42.853
1560.7600, -42.866
1560.7800, -42.878
1560.8000, -42.890
1560.8200, -42.899
1560.8400, -42.909
1560.8600, -42.920
1560.8800, -42.927
1560.9000, -42.943
1560.9200, -42.956
1560.9400, -42.964
1560.9600, -42.978
1560.9800, -42.987
1561.0000, -42.996
1561.0200, -43.010
1561.0400, -43.025
1561.0600, -43.037
1561.0800, -43.051
1561.1000, -43.064
1561.1200, -43.076
1561.1400, -43.088
1561.1600, -43.096
1561.1800, -43.108
1561.2000, -43.119
1561.2200, -43.130
1561.2400, -43.148
1561.2600, -43.166
1561.2800, -43.176
1561.3000, -43.190
1561.3200, -43.203
1561.3400, -43.217
1561.3600, -43.234
1561.3800, -43.249
1561.4000, -43.264
1561.4200, -43.280
1561.4400, -43.290
1561.4600, -43.305
1561.4800, -43.316
1561.5000, -43.328
1561.5200, -43.347
1561.5400, -43.362
1561.5600, -43.377
1561.5800, -43.388
1561.6000, -43.402
1561.6200, -43.416
1561.6400, -43.433
1561.6600, -43.450
1561.6800, -43.463
1561.7000, -43.481
1561.7200, -43.497
1561.7400, -43.513
1561.7600, -43.524
1561.7800, -43.537
1561.8000, -43.548
1561.8200, -43.558
1561.8400, -43.576
1561.8600, -43.591
1561.8800, -43.601
1561.9000, -43.614
1561.9200, -43.631
1561.9400, -43.648
1561.9600, -43.660
1561.9800, -43.670
1562.0000, -43.684
1562.0200, -43.701
1562.0400, -43.713
1562.0600, -43.730
1562.0800, -43.749
1562.1000, -43.764
1562.1200, -43.778
1562.1400, -43.799
1562.1600, -43.816
1562.1800, -43.835
1562.2000, -43.850
1562.2200, -43.864
1562.2400, -43.882
1562.2600, -43.894
1562.2800, -43.910
1562.3000, -43.935
1562.3200, -43.949
1562.3400, -43.962
1562.3600, -43.980
1562.3800, -43.993
1562.4000, -44.012
1562.4200, -44.029
1562.4400, -44.044
1562.4600, -44.059
1562.4800, -44.075
1562.5000, -44.091
1562.5200, -44.107
1562.5400, -44.125
1562.5600, -44.141
1562.5800, -44.159
1562.6000, -44.177
1562.6200, -44.193
1562.6400, -44.208
1562.6600, -44.219
1562.6800, -44.232
1562.7000, -44.247
1562.7200, -44.263
1562.7400, -44.280
1562.7600, -44.297
1562.7800, -44.315
1562.8000, -44.330
1562.8200, -44.343
1562.8400, -44.362
1562.8600, -44.383
1562.8800, -44.397
1562.9000, -44.414
1562.9200, -44.429
1562.9400, -44.447
1562.9600, -44.464
1562.9800, -44.479
1563.0000, -44.496
1563.0200, -44.515
1563.0400, -44.532
1563.0600, -44.555
1563.0800, -44.572
1563.1000, -44.588
1563.1200, -44.611
1563.1400, -44.626
1563.1600, -44.645
1563.1800, -44.663
1563.2000, -44.676
1563.2200, -44.691
1563.2400, -44.711
1563.2600, -44.726
1563.2800, -44.740
1563.3000, -44.756
1563.3200, -44.777
1563.3400, -44.792
1563.3600, -44.811
1563.3800, -44.831
1563.4000, -44.846
1563.4200, -44.870
1563.4400, -44.887
1563.4600, -44.905
1563.4800, -44.923
1563.5000, -44.940
1563.5200, -44.959
1563.5400, -44.974
1563.5600, -44.991
1563.5800, -45.008
1563.6000, -45.022
1563.6200, -45.042
1563.6400, -45.060
1563.6600, -45.077
1563.6800, -45.095
1563.7000, -45.117
1563.7200, -45.141
1563.7400, -45.156
1563.7600, -45.174
1563.7800, -45.188
1563.8000, -45.209
1563.8200, -45.228
1563.8400, -45.243
1563.8600, -45.264
1563.8800, -45.282
1563.9000, -45.298
1563.9200, -45.321
1563.9400, -45.342
1563.9600, -45.358
1563.9800, -45.380
1564.0000, -45.399
1564.0200, -45.416
1564.0400, -45.432
1564.0600, -45.449
1564.0800, -45.464
1564.1000, -45.482
1564.1200, -45.502
1564.1400, -45.519
1564.1600, -45.538
1564.1800, -45.554
1564.2000, -45.572
1564.2200, -45.592
1564.2400, -45.610
1564.2600, -45.632
1564.2800, -45.649
1564.3000, -45.672
1564.3200, -45.690
1564.3400, -45.708
1564.3600, -45.728
1564.3800, -45.746
1564.4000, -45.766
1564.4200, -45.784
1564.4400, -45.805
1564.4600, -45.823
1564.4800, -45.843
1564.5000, -45.866
1564.5200, -45.880
1564.5400, -45.902
1564.5600, -45.923
1564.5800, -45.937
1564.6000, -45.961
1564.6200, -45.981
1564.6400, -45.999
1564.6600, -46.017
1564.6800, -46.038
1564.7000, -46.057
1564.7200, -46.077
1564.7400, -46.096
1564.7600, -46.115
1564.7800, -46.137
1564.8000, -46.151
1564.8200, -46.172
1564.8400, -46.189
1564.8600, -46.210
1564.8800, -46.232
1564.9000, -46.253
1564.9200, -46.267
1564.9400, -46.290
1564.9600, -46.308
1564.9800, -46.323
1565.0000, -46.345
1565.0200, -46.367
1565.0400, -46.387
1565.0600, -46.408
1565.0800, -46.425
1565.1000, -46.444
1565.1200, -46.468
1565.1400, -46.484
1565.1600, -46.506
1565.1800, -46.529
1565.2000, -46.546
1565.2200, -46.570
1565.2400, -46.588
1565.2600, -46.608
1565.2800, -46.626
1565.3000, -46.645
1565.3200, -46.665
1565.3400, -46.686
1565.3600, -46.704
1565.3800, -46.722
1565.4000, -46.741
1565.4200, -46.764
1565.4400, -46.785
1565.4600, -46.803
1565.4800, -46.829
1565.5000, -46.846
1565.5200, -46.866
1565.5400, -46.888
1565.5600, -46.904
1565.5800, -46.920
1565.6000, -46.940
1565.6200, -46.959
1565.6400, -46.983
1565.6600, -47.001
1565.6800, -47.022
1565.7000, -47.039
1565.7200, -47.057
1565.7400, -47.079
1565.7600, -47.103
1565.7800, -47.125
1565.8000, -47.137
1565.8200, -47.155
1565.8400, -47.179
1565.8600, -47.199
1565.8800, -47.218
1565.9000, -47.237
1565.9200, -47.259
1565.9400, -47.280
1565.9600, -47.297
1565.9800, -47.322
1566.0000, -47.339
1566.0200, -47.360
1566.0400, -47.384
1566.0600, -47.399
1566.0800, -47.422
1566.1000, -47.442
1566.1200, -47.464
1566.1400, -47.482
1566.1600, -47.500
1566.1800, -47.520
1566.2000, -47.541
1566.2200, -47.557
1566.2400, -47.581
1566.2600, -47.597
1566.2800, -47.618
1566.3000, -47.637
1566.3200, -47.657
1566.3400, -47.682
1566.3600, -47.699
1566.3800, -47.719
1566.4000, -47.737
1566.4200, -47.758
1566.4400, -47.776
1566.4600, -47.797
1566.4800, -47.814
1566.5000, -47.833
1566.5200, -47.852
1566.5400, -47.879
1566.5600, -47.900
1566.5800, -47.919
1566.6000, -47.940
1566.6200, -47.959
1566.6400, -47.982
1566.6600, -47.995
1566.6800, -48.013
1566.7000, -48.038
1566.7200, -48.052
1566.7400, -48.075
1566.7600, -48.094
1566.7800, -48.115
1566.8000, -48.134
1566.8200, -48.159
1566.8400, -48.177
1566.8600, -48.193
1566.8800, -48.215
1566.9000, -48.233
1566.9200, -48.254
1566.9400, -48.276
1566.9600, -48.294
1566.9800, -48.315
1567.0000, -48.334
1567.0200, -48.361
1567.0400, -48.378
1567.0600, -48.396
1567.0800, -48.417
1567.1000, -48.435
1567.1200, -48.453
1567.1400, -48.473
1567.1600, -48.490
1567.1800, -48.510
1567.2000, -48.532
1567.2200, -48.553
1567.2400, -48.579
1567.2600, -48.593
1567.2800, -48.612
1567.3000, -48.637
1567.3200, -48.655
1567.3400, -48.674
1567.3600, -48.692
1567.3800, -48.707
1567.4000, -48.730
1567.4200, -48.750
1567.4400, -48.771
1567.4600, -48.796
1567.4800, -48.819
1567.5000, -48.835
1567.5200, -48.855
1567.5400, -48.878
1567.5600, -48.898
1567.5800, -48.915
1567.6000, -48.932
1567.6200, -48.949
1567.6400, -48.975
1567.6600, -49.000
1567.6800, -49.012
1567.7000, -49.036
1567.7200, -49.055
1567.7400, -49.073
1567.7600, -49.096
1567.7800, -49.117
1567.8000, -49.135
1567.8200, -49.154
1567.8400, -49.173
1567.8600, -49.192
1567.8800, -49.214
1567.9000, -49.233
1567.9200, -49.254
1567.9400, -49.272
1567.9600, -49.294
1567.9800, -49.307
1568.0000, -49.328
1568.0200, -49.343
1568.0400, -49.358
1568.0600, -49.390
1568.0800, -49.409
1568.1000, -49.427
1568.1200, -49.448
1568.1400, -49.466
1568.1600, -49.481
1568.1800, -49.504
1568.2000, -49.520
1568.2200, -49.543
1568.2400, -49.563
1568.2600, -49.579
1568.2800, -49.603
1568.3000, -49.630
1568.3200, -49.644
1568.3400, -49.663
1568.3600, -49.686
1568.3800, -49.709
1568.4000, -49.725
1568.4200, -49.745
1568.4400, -49.765
1568.4600, -49.781
1568.4800, -49.797
1568.5000, -49.818
1568.5200, -49.835
1568.5400, -49.859
1568.5600, -49.877
1568.5800, -49.897
1568.6000, -49.918
1568.6200, -49.933
1568.6400, -49.964
1568.6600, -49.979
1568.6800, -50.004
1568.7000, -50.021
1568.7200, -50.043
1568.7400, -50.058
1568.7600, -50.077
1568.7800, -50.097
1568.8000, -50.117
1568.8200, -50.138
1568.8400, -50.155
1568.8600, -50.175
1568.8800, -50.194
1568.9000, -50.214
1568.9200, -50.230
1568.9400, -50.255
1568.9600, -50.271
1568.9800, -50.293
1569.0000, -50.316
1569.0200, -50.330
1569.0400, -50.349
1569.0600, -50.367
1569.0800, -50.384
1569.1000, -50.405
1569.1200, -50.425
1569.1400, -50.443
1569.1600, -50.468
1569.1800, -50.489
1569.2000, -50.506
1569.2200, -50.525
1569.2400, -50.544
1569.2600, -50.560
1569.2800, -50.586
1569.3000, -50.605
1569.3200, -50.622
1569.3400, -50.639
1569.3600, -50.652
1569.3800, -50.674
1569.4000, -50.692
1569.4200, -50.715
1569.4400, -50.735
1569.4600, -50.752
1569.4800, -50.765
1569.5000, -50.788
1569.5200, -50.809
1569.5400, -50.828
1569.5600, -50.848
1569.5800, -50.865
1569.6000, -50.888
1569.6200, -50.902
1569.6400, -50.923
1569.6600, -50.941
1569.6800, -50.964
1569.7000, -50.985
1569.7200, -51.001
1569.7400, -51.017
1569.7600, -51.037
1569.7800, -51.054
1569.8000, -51.076
1569.8200, -51.096
1569.8400, -51.114
1569.8600, -51.131
1569.8800, -51.150
1569.9000, -51.166
1569.9200, -51.188
1569.9400, -51.202
1569.9600, -51.223
1569.9800, -51.244
1570.0000, -51.257
1570.0200, -51.278
1570.0400, -51.299
1570.0600, -51.322
1570.0800, -51.334
1570.1000, -51.356
1570.1200, -51.374
1570.1400, -51.392
1570.1600, -51.417
1570.1800, -51.431
1570.2000, -51.452
1570.2200, -51.469
1570.2400, -51.483
1570.2600, -51.505
1570.2800, -51.520
1570.3000, -51.543
1570.3200, -51.561
1570.3400, -51.579
1570.3600, -51.596
1570.3800, -51.617
1570.4000, -51.634
1570.4200, -51.653
1570.4400, -51.668
1570.4600, -51.693
1570.4800, -51.711
1570.5000, -51.729
1570.5200, -51.743
1570.5400, -51.760
1570.5600, -51.783
1570.5800, -51.801
1570.6000, -51.816
1570.6200, -51.832
1570.6400, -51.853
1570.6600, -51.874
1570.6800, -51.889
1570.7000, -51.911
1570.7200, -51.934
1570.7400, -51.952
1570.7600, -51.968
1570.7800, -51.987
1570.8000, -52.002
1570.8200, -52.020
1570.8400, -52.039
1570.8600, -52.058
1570.8800, -52.077
1570.9000, -52.097
1570.9200, -52.114
1570.9400, -52.129
1570.9600, -52.152
1570.9800, -52.172
1571.0000, -52.184
1571.0200, -52.202
1571.0400, -52.223
1571.0600, -52.236
1571.0800, -52.258
1571.1000, -52.272
1571.1200, -52.292
1571.1400, -52.307
1571.1600, -52.326
1571.1800, -52.344
1571.2000, -52.358
1571.2200, -52.377
1571.2400, -52.393
1571.2600, -52.417
1571.2800, -52.432
1571.3000, -52.458
1571.3200, -52.479
1571.3400, -52.496
1571.3600, -52.508
1571.3800, -52.527
1571.4000, -52.545
1571.4200, -52.568
1571.4400, -52.575
1571.4600, -52.601
1571.4800, -52.619
1571.5000, -52.632
1571.5200, -52.648
1571.5400, -52.673
1571.5600, -52.696
1571.5800, -52.709
1571.6000, -52.725
1571.6200, -52.741
1571.6400, -52.753
1571.6600, -52.777
1571.6800, -52.797
1571.7000, -52.807
1571.7200, -52.825
1571.7400, -52.839
1571.7600, -52.863
1571.7800, -52.881
1571.8000, -52.895
1571.8200, -52.917
1571.8400, -52.934
1571.8600, -52.953
1571.8800, -52.967
1571.9000, -52.988
1571.9200, -53.004
1571.9400, -53.017
1571.9600, -53.038
1571.9800, -53.048
1572.0000, -53.068
1572.0200, -53.089
1572.0400, -53.114
1572.0600, -53.122
1572.0800, -53.140
1572.1000, -53.154
1572.1200, -53.168
1572.1400, -53.196
1572.1600, -53.209
1572.1800, -53.228
1572.2000, -53.242
1572.2200, -53.260
1572.2400, -53.278
1572.2600, -53.293
1572.2800, -53.310
1572.3000, -53.330
1572.3200, -53.346
1572.3400, -53.353
1572.3600, -53.378
1572.3800, -53.386
1572.4000, -53.412
1572.4200, -53.432
1572.4400, -53.443
1572.4600, -53.457
1572.4800, -53.475
1572.5000, -53.487
1572.5200, -53.511
1572.5400, -53.528
1572.5600, -53.547
1572.5800, -53.557
1572.6000, -53.574
1572.6200, -53.597
1572.6400, -53.612
1572.6600, -53.634
1572.6800, -53.636
1572.7000, -53.660
1572.7200, -53.670
1572.7400, -53.697
1572.7600, -53.705
1572.7800, -53.719
1572.8000, -53.735
1572.8200, -53.758
1572.8400, -53.760
1572.8600, -53.788
1572.8800, -53.800
1572.9000, -53.823
1572.9200, -53.845
1572.9400, -53.852
1572.9600, -53.865
1572.9800, -53.883
1573.0000, -53.901
1573.0200, -53.926
1573.0400, -53.938
1573.0600, -53.946
1573.0800, -53.976
1573.1000, -53.980
1573.1200, -54.007
1573.1400, -54.013
1573.1600, -54.034
1573.1800, -54.041
1573.2000, -54.055
1573.2200, -54.075
1573.2400, -54.094
1573.2600, -54.110
1573.2800, -54.128
1573.3000, -54.136
1573.3200, -54.159
1573.3400, -54.169
1573.3600, -54.189
1573.3800, -54.207
1573.4000, -54.211
1573.4200, -54.234
1573.4400, -54.248
1573.4600, -54.257
1573.4800, -54.284
1573.5000, -54.287
1573.5200, -54.309
1573.5400, -54.329
1573.5600, -54.346
1573.5800, -54.358
1573.6000, -54.376
1573.6200, -54.397
1573.6400, -54.408
1573.6600, -54.419
1573.6800, -54.437
1573.7000, -54.455
1573.7200, -54.464
1573.7400, -54.489
1573.7600, -54.494
1573.7800, -54.516
1573.8000, -54.532
1573.8200, -54.537
1573.8400, -54.554
1573.8600, -54.562
1573.8800, -54.588
1573.9000, -54.602
1573.9200, -54.619
1573.9400, -54.637
1573.9600, -54.649
1573.9800, -54.664
1574.0000, -54.681
1574.0200, -54.696
1574.0400, -54.706
1574.0600, -54.710
1574.0800, -54.736
1574.1000, -54.750
1574.1200, -54.771
1574.1400, -54.783
1574.1600, -54.794
1574.1800, -54.804
1574.2000, -54.824
1574.2200, -54.842
1574.2400, -54.857
1574.2600, -54.871
1574.2800, -54.880
1574.3000, -54.900
1574.3200, -54.909
1574.3400, -54.923
1574.3600, -54.932
1574.3800, -54.963
1574.4000, -54.961
1574.4200, -54.991
1574.4400, -54.994
1574.4600, -55.028
1574.4800, -55.032
1574.5000, -55.044
1574.5200, -55.054
1574.5400, -55.069
1574.5600, -55.089
1574.5800, -55.101
1574.6000, -55.111
1574.6200, -55.132
1574.6400, -55.153
1574.6600, -55.159
1574.6800, -55.173
1574.7000, -55.192
1574.7200, -55.203
1574.7400, -55.218
1574.7600, -55.238
1574.7800, -55.252
1574.8000, -55.265
1574.8200, -55.288
1574.8400, -55.291
1574.8600, -55.306
1574.8800, -55.318
1574.9000, -55.328
1574.9200, -55.341
1574.9400, -55.353
1574.9600, -55.380
1574.9800, -55.381
1575.0000, -55.406
1575.0200, -55.422
1575.0400, -55.427
1575.0600, -55.436
1575.0800, -55.455
1575.1000, -55.473
1575.1200, -55.486
1575.1400, -55.499
1575.1600, -55.513
1575.1800, -55.529
1575.2000, -55.544
1575.2200, -55.553
1575.2400, -55.561
1575.2600, -55.594
1575.2800, -55.596
1575.3000, -55.608
1575.3200, -55.626
1575.3400, -55.643
1575.3600, -55.650
1575.3800, -55.661
1575.4000, -55.683
1575.4200, -55.698
1575.4400, -55.704
1575.4600, -55.717
1575.4800, -55.726
1575.5000, -55.751
1575.5200, -55.756
1575.5400, -55.770
1575.5600, -55.773
1575.5800, -55.804
1575.6000, -55.809
1575.6200, -55.821
1575.6400, -55.825
1575.6600, -55.855
1575.6800, -55.867
1575.7000, -55.873
1575.7200, -55.890
1575.7400, -55.900
1575.7600, -55.917
1575.7800, -55.918
1575.8000, -55.949
1575.8200, -55.950
1575.8400, -55.966
1575.8600, -55.976
1575.8800, -55.999
1575.9000, -55.997
1575.9200, -56.018
1575.9400, -56.029
1575.9600, -56.055
1575.9800, -56.062
1576.0000, -56.072
1576.0200, -56.086
1576.0400, -56.091
1576.0600, -56.117
1576.0800, -56.119
1576.1000, -56.129
1576.1200, -56.146
1576.1400, -56.157
1576.1600, -56.177
1576.1800, -56.172
1576.2000, -56.198
1576.2200, -56.217
1576.2400, -56.217
1576.2600, -56.228
1576.2800, -56.246
1576.3000, -56.256
1576.3200, -56.261
1576.3400, -56.297
1576.3600, -56.286
1576.3800, -56.314
1576.4000, -56.313
1576.4200, -56.329
1576.4400, -56.349
1576.4600, -56.348
1576.4800, -56.361
1576.5000, -56.374
1576.5200, -56.387
1576.5400, -56.406
1576.5600, -56.412
1576.5800, -56.414
1576.6000, -56.437
1576.6200, -56.442
1576.6400, -56.459
1576.6600, -56.476
1576.6800, -56.486
1576.7000, -56.495
1576.7200, -56.504
1576.7400, -56.533
1576.7600, -56.529
1576.7800, -56.537
1576.8000, -56.553
1576.8200, -56.576
1576.8400, -56.576
1576.8600, -56.585
1576.8800, -56.597
1576.9000, -56.618
1576.9200, -56.622
1576.9400, -56.639
1576.9600, -56.626
1576.9800, -56.659
1577.0000, -56.675
1577.0200, -56.682
1577.0400, -56.689
1577.0600, -56.706
1577.0800, -56.715
1577.1000, -56.729
1577.1200, -56.734
1577.1400, -56.740
1577.1600, -56.753
1577.1800, -56.762
1577.2000, -56.779
1577.2200, -56.786
1577.2400, -56.806
1577.2600, -56.809
1577.2800, -56.817
1577.3000, -56.848
1577.3200, -56.843
1577.3400, -56.851
1577.3600, -56.881
1577.3800, -56.872
1577.4000, -56.900
1577.4200, -56.899
1577.4400, -56.934
1577.4600, -56.921
1577.4800, -56.946
1577.5000, -56.946
1577.5200, -56.969
1577.5400, -56.984
1577.5600, -56.982
1577.5800, -57.006
1577.6000, -56.995
1577.6200, -57.025
1577.6400, -57.027
1577.6600, -57.030
1577.6800, -57.050
1577.7000, -57.066
1577.7200, -57.070
1577.7400, -57.085
1577.7600, -57.083
1577.7800, -57.102
1577.8000, -57.103
1577.8200, -57.128
1577.8400, -57.148
1577.8600, -57.127
1577.8800, -57.171
1577.9000, -57.171
1577.9200, -57.185
1577.9400, -57.179
1577.9600, -57.205
1577.9800, -57.208
1578.0000, -57.208
1578.0200, -57.241
1578.0400, -57.229
1578.0600, -57.261
1578.0800, -57.267
1578.1000, -57.281
1578.1200, -57.277
1578.1400, -57.294
1578.1600, -57.302
1578.1800, -57.317
1578.2000, -57.344
1578.2200, -57.337
1578.2400, -57.331
1578.2600, -57.358
1578.2800, -57.377
1578.3000, -57.376
1578.3200, -57.388
1578.3400, -57.398
1578.3600, -57.410
1578.3800, -57.426
1578.4000, -57.430
1578.4200, -57.429
1578.4400, -57.459
1578.4600, -57.457
1578.4800, -57.476
1578.5000, -57.488
1578.5200, -57.495
1578.5400, -57.506
1578.5600, -57.500
1578.5800, -57.528
1578.6000, -57.532
1578.6200, -57.540
1578.6400, -57.547
1578.6600, -57.558
1578.6800, -57.572
1578.7000, -57.588
1578.7200, -57.582
1578.7400, -57.603
1578.7600, -57.599
1578.7800, -57.629
1578.8000, -57.636
1578.8200, -57.644
1578.8400, -57.634
1578.8600, -57.660
1578.8800, -57.669
1578.9000, -57.687
1578.9200, -57.687
1578.9400, -57.696
1578.9600, -57.710
1578.9800, -57.723
1579.0000, -57.731
1579.0200, -57.735
1579.0400, -57.739
1579.0600, -57.755
1579.0800, -57.770
1579.1000, -57.777
1579.1200, -57.789
1579.1400, -57.799
1579.1600, -57.797
1579.1800, -57.814
1579.2000, -57.826
1579.2200, -57.833
1579.2400, -57.840
1579.2600, -57.860
1579.2800, -57.856
1579.3000, -57.880
1579.3200, -57.883
1579.3400, -57.888
1579.3600, -57.897
1579.3800, -57.918
1579.4000, -57.915
1579.4200, -57.919
1579.4400, -57.946
1579.4600, -57.948
1579.4800, -57.959
1579.5000, -57.954
1579.5200, -57.992
1579.5400, -57.981
1579.5600, -57.991
1579.5800, -57.995
1579.6000, -58.005
1579.6200, -58.027
1579.6400, -58.024
1579.6600, -58.046
1579.6800, -58.045
1579.7000, -58.065
1579.7200, -58.068
1579.7400, -58.074
1579.7600, -58.073
1579.7800, -58.101
1579.8000, -58.090
1579.8200, -58.115
1579.8400, -58.121
1579.8600, -58.134
1579.8800, -58.144
1579.9000, -58.143
1579.9200, -58.127
1579.9400, -58.165
1579.9600, -58.166
1579.9800, -58.185
1580.0000, -58.182
1580.0200, -58.206
1580.0400, -58.203
1580.0600, -58.202
1580.0800, -58.229
1580.1000, -58.220
1580.1200, -58.238
1580.1400, -58.251
1580.1600, -58.253
1580.1800, -58.283
1580.2000, -58.277
1580.2200, -58.276
1580.2400, -58.267
1580.2600, -58.301
1580.2800, -58.312
1580.3000, -58.309
1580.3200, -58.311
1580.3400, -58.334
1580.3600, -58.329
1580.3800, -58.361
1580.4000, -58.338
1580.4200, -58.362
1580.4400, -58.367
1580.4600, -58.393
1580.4800, -58.389
1580.5000, -58.387
1580.5200, -58.406
1580.5400, -58.424
1580.5600, -58.433
1580.5800, -58.440
1580.6000, -58.411
1580.6200, -58.464
1580.6400, -58.437
1580.6600, -58.472
1580.6800, -58.459
1580.7000, -58.454
1580.7200, -58.499
1580.7400, -58.502
1580.7600, -58.501
1580.7800, -58.501
1580.8000, -58.512
1580.8200, -58.527
1580.8400, -58.539
1580.8600, -58.552
1580.8800, -58.565
1580.9000, -58.555
1580.9200, -58.557
1580.9400, -58.577
1580.9600, -58.601
1580.9800, -58.583
1581.0000, -58.608
1581.0200, -58.626
1581.0400, -58.619
1581.0600, -58.606
1581.0800, -58.635
1581.1000, -58.644
1581.1200, -58.661
1581.1400, -58.644
1581.1600, -58.686
1581.1800, -58.678
1581.2000, -58.680
1581.2200, -58.689
1581.2400, -58.700
1581.2600, -58.702
1581.2800, -58.707
1581.3000, -58.710
1581.3200, -58.719
1581.3400, -58.749
1581.3600, -58.739
1581.3800, -58.720
1581.4000, -58.772
1581.4200, -58.747
1581.4400, -58.771
1581.4600, -58.778
1581.4800, -58.768
1581.5000, -58.811
1581.5200, -58.788
1581.5400, -58.803
1581.5600, -58.799
1581.5800, -58.814
1581.6000, -58.828
1581.6200, -58.838
1581.6400, -58.857
1581.6600, -58.838
1581.6800, -58.875
1581.7000, -58.850
1581.7200, -58.867
1581.7400, -58.890
1581.7600, -58.910
1581.7800, -58.893
1581.8000, -58.900
1581.8200, -58.889
1581.8400, -58.920
1581.8600, -58.928
1581.8800, -58.938
1581.9000, -58.936
1581.9200, -58.941
1581.9400, -58.947
1581.9600, -58.967
1581.9800, -58.978
1582.0000, -58.964
1582.0200, -58.992
1582.0400, -58.982
1582.0600, -59.020
1582.0800, -58.991
1582.1000, -59.044
1582.1200, -59.021
1582.1400, -59.013
1582.1600, -59.040
1582.1800, -59.063
1582.2000, -59.050
1582.2200, -59.056
1582.2400, -59.067
1582.2600, -59.076
1582.2800, -59.064
1582.3000, -59.096
1582.3200, -59.093
1582.3400, -59.103
1582.3600, -59.085
1582.3800, -59.116
1582.4000, -59.133
1582.4200, -59.112
1582.4400, -59.133
1582.4600, -59.131
1582.4800, -59.110
1582.5000, -59.159
1582.5200, -59.149
1582.5400, -59.144
1582.5600, -59.165
1582.5800, -59.164
1582.6000, -59.173
1582.6200, -59.215
1582.6400, -59.186
1582.6600, -59.205
1582.6800, -59.216
1582.7000, -59.235
1582.7200, -59.226
1582.7400, -59.237
1582.7600, -59.243
1582.7800, -59.239
1582.8000, -59.254
1582.8200, -59.250
1582.8400, -59.288
1582.8600, -59.241
1582.8800, -59.301
1582.9000, -59.287
1582.9200, -59.310
1582.9400, -59.293
1582.9600, -59.323
1582.9800, -59.319
1583.0000, -59.282
1583.0200, -59.343
1583.0400, -59.349
1583.0600, -59.333
1583.0800, -59.346
1583.1000, -59.340
1583.1200, -59.370
1583.1400, -59.369
1583.1600, -59.361
1583.1800, -59.378
1583.2000, -59.373
1583.2200, -59.401
1583.2400, -59.409
1583.2600, -59.416
1583.2800, -59.412
1583.3000, -59.426
1583.3200, -59.414
1583.3400, -59.429
1583.3600, -59.449
1583.3800, -59.441
1583.4000, -59.446
1583.4200, -59.466
1583.4400, -59.485
1583.4600, -59.506
1583.4800, -59.477
1583.5000, -59.476
1583.5200, -59.529
1583.5400, -59.477
1583.5600, -59.490
1583.5800, -59.506
1583.6000, -59.533
1583.6200, -59.523
1583.6400, -59.536
1583.6600, -59.550
1583.6800, -59.561
1583.7000, -59.560
1583.7200, -59.540
1583.7400, -59.563
1583.7600, -59.574
1583.7800, -59.570
1583.8000, -59.570
1583.8200, -59.572
1583.8400, -59.594
1583.8600, -59.628
1583.8800, -59.594
1583.9000, -59.623
1583.9200, -59.609
1583.9400, -59.636
1583.9600, -59.639
1583.9800, -59.655
1584.0000, -59.618
1584.0200, -59.666
1584.0400, -59.658
1584.0600, -59.671
1584.0800, -59.647
1584.1000, -59.683
1584.1200, -59.684
1584.1400, -59.680
1584.1600, -59.686
1584.1800, -59.703
1584.2000, -59.686
1584.2200, -59.702
1584.2400, -59.722
1584.2600, -59.721
1584.2800, -59.728
1584.3000, -59.743
1584.3200, -59.714
1584.3400, -59.745
1584.3600, -59.758
1584.3800, -59.730
1584.4000, -59.788
1584.4200, -59.775
1584.4400, -59.755
1584.4600, -59.775
1584.4800, -59.785
1584.5000, -59.796
1584.5200, -59.764
1584.5400, -59.802
1584.5600, -59.809
1584.5800, -59.853
1584.6000, -59.832
1584.6200, -59.794
1584.6400, -59.857
1584.6600, -59.818
1584.6800, -59.859
1584.7000, -59.835
1584.7200, -59.871
1584.7400, -59.871
1584.7600, -59.827
1584.7800, -59.893
1584.8000, -59.900
1584.8200, -59.859
1584.8400, -59.881
1584.8600, -59.910
1584.8800, -59.865
1584.9000, -59.906
1584.9200, -59.920
1584.9400, -59.888
1584.9600, -59.930
1584.9800, -59.922
1585.0000, -59.919
1585.0200, -59.942
1585.0400, -59.923
1585.0600, -59.962
1585.0800, -59.930
1585.1000, -59.961
1585.1200, -59.971
1585.1400, -59.980
1585.1600, -59.959
1585.1800, -59.980
1585.2000, -59.994
1585.2200, -59.986
1585.2400, -59.995
1585.2600, -59.966
1585.2800, -60.024
1585.3000, -60.006
1585.3200, -60.032
1585.3400, -60.010
1585.3600, -60.033
1585.3800, -60.037
1585.4000, -60.036
1585.4200, -60.015
1585.4400, -60.051
1585.4600, -60.034
1585.4800, -60.058
1585.5000, -60.037
1585.5200, -60.072
1585.5400, -60.101
1585.5600, -60.074
1585.5800, -60.101
1585.6000, -60.063
1585.6200, -60.129
1585.6400, -60.078
1585.6600, -60.088
1585.6800, -60.129
1585.7000, -60.114
1585.7200, -60.142
1585.7400, -60.095
1585.7600, -60.142
1585.7800, -60.149
1585.8000, -60.118
1585.8200, -60.160
1585.8400, -60.129
1585.8600, -60.172
1585.8800, -60.148
1585.9000, -60.161
1585.9200, -60.182
1585.9400, -60.176
1585.9600, -60.169
1585.9800, -60.188
1586.0000, -60.183
1586.0200, -60.195
1586.0400, -60.215
1586.0600, -60.191
1586.0800, -60.207
1586.1000, -60.203
1586.1200, -60.222
1586.1400, -60.234
1586.1600, -60.224
1586.1800, -60.253
1586.2000, -60.241
1586.2200, -60.216
1586.2400, -60.255
1586.2600, -60.271
1586.2800, -60.271
1586.3000, -60.224
1586.3200, -60.275
1586.3400, -60.269
1586.3600, -60.276
1586.3800, -60.302
1586.4000, -60.267
1586.4200, -60.268
1586.4400, -60.303
1586.4600, -60.318
1586.4800, -60.294
1586.5000, -60.327
1586.5200, -60.324
1586.5400, -60.327
1586.5600, -60.335
1586.5800, -60.358
1586.6000, -60.339
1586.6200, -60.348
1586.6400, -60.349
1586.6600, -60.354
1586.6800, -60.350
1586.7000, -60.366
1586.7200, -60.401
1586.7400, -60.353
1586.7600, -60.418
1586.7800, -60.381
1586.8000, -60.408
1586.8200, -60.404
1586.8400, -60.405
1586.8600, -60.403
1586.8800, -60.417
1586.9000, -60.404
1586.9200, -60.452
1586.9400, -60.430
1586.9600, -60.417
1586.9800, -60.429
1587.0000, -60.450
1587.0200, -60.463
1587.0400, -60.455
1587.0600, -60.464
1587.0800, -60.463
1587.1000, -60.443
1587.1200, -60.500
1587.1400, -60.481
1587.1600, -60.462
1587.1800, -60.493
1587.2000, -60.527
1587.2200, -60.512
1587.2400, -60.515
1587.2600, -60.480
1587.2800, -60.530
1587.3000, -60.506
1587.3200, -60.527
1587.3400, -60.553
1587.3600, -60.525
1587.3800, -60.544
1587.4000, -60.558
1587.4200, -60.557
1587.4400, -60.549
1587.4600, -60.537
1587.4800, -60.568
1587.5000, -60.542
1587.5200, -60.584
1587.5400, -60.576
1587.5600, -60.575
1587.5800, -60.582
1587.6000, -60.635
1587.6200, -60.607
1587.6400, -60.611
1587.6600, -60.602
1587.6800, -60.646
1587.7000, -60.576
1587.7200, -60.646
1587.7400, -60.601
1587.7600, -60.632
1587.7800, -60.622
1587.8000, -60.629
1587.8200, -60.654
1587.8400, -60.665
1587.8600, -60.646
1587.8800, -60.685
1587.9000, -60.683
1587.9200, -60.688
1587.9400, -60.676
1587.9600, -60.695
1587.9800, -60.704
1588.0000, -60.704
1588.0200, -60.686
1588.0400, -60.669
1588.0600, -60.719
1588.0800, -60.692
1588.1000, -60.726
1588.1200, -60.760
1588.1400, -60.705
1588.1600, -60.733
1588.1800, -60.745
1588.2000, -60.704
1588.2200, -60.749
1588.2400, -60.748
1588.2600, -60.764
1588.2800, -60.735
1588.3000, -60.758
1588.3200, -60.751
1588.3400, -60.806
1588.3600, -60.771
1588.3800, -60.765
1588.4000, -60.790
1588.4200, -60.779
1588.4400, -60.798
1588.4600, -60.773
1588.4800, -60.794
1588.5000, -60.794
1588.5200, -60.780
1588.5400, -60.812
1588.5600, -60.823
1588.5800, -60.844
1588.6000, -60.807
1588.6200, -60.804
1588.6400, -60.857
1588.6600, -60.848
1588.6800, -60.820
1588.7000, -60.825
1588.7200, -60.866
1588.7400, -60.870
1588.7600, -60.855
1588.7800, -60.888
1588.8000, -60.884
1588.8200, -60.844
1588.8400, -60.866
1588.8600, -60.857
1588.8800, -60.934
1588.9000, -60.894
1588.9200, -60.920
1588.9400, -60.916
1588.9600, -60.875
1588.9800, -60.952
1589.0000, -60.900
1589.0200, -60.957
1589.0400, -60.927
1589.0600, -60.947
1589.0800, -60.930
1589.1000, -60.927
1589.1200, -60.978
1589.1400, -60.932
1589.1600, -60.988
1589.1800, -60.938
1589.2000, -60.937
1589.2200, -60.958
1589.2400, -60.987
1589.2600, -60.980
1589.2800, -60.974
1589.3000, -60.968
1589.3200, -61.006
1589.3400, -60.950
1589.3600, -61.009
1589.3800, -60.992
1589.4000, -61.006
1589.4200, -61.015
1589.4400, -60.992
1589.4600, -61.035
1589.4800, -61.025
1589.5000, -61.034
1589.5200, -61.030
1589.5400, -61.055
1589.5600, -61.009
1589.5800, -61.029
1589.6000, -61.069
1589.6200, -61.085
1589.6400, -61.016
1589.6600, -61.074
1589.6800, -61.058
1589.7000, -61.064
1589.7200, -61.058
1589.7400, -61.094
1589.7600, -61.108
1589.7800, -61.081
1589.8000, -61.096
1589.8200, -61.090
1589.8400, -61.087
1589.8600, -61.129
1589.8800, -61.058
1589.9000, -61.106
1589.9200, -61.120
1589.9400, -61.165
1589.9600, -61.138
1589.9800, -61.128
1590.0000, -61.123
1590.0200, -61.140
1590.0400, -61.121
1590.0600, -61.142
1590.0800, -61.123
1590.1000, -61.135
1590.1200, -61.142
1590.1400, -61.156
1590.1600, -61.185
1590.1800, -61.195
1590.2000, -61.182
1590.2200, -61.186
1590.2400, -61.170
1590.2600, -61.200
1590.2800, -61.207
1590.3000, -61.210
1590.3200, -61.266
1590.3400, -61.199
1590.3600, -61.189
1590.3800, -61.220
1590.4000, -61.204
1590.4200, -61.224
1590.4400, -61.248
1590.4600, -61.209
1590.4800, -61.237
1590.5000, -61.240
1590.5200, -61.272
1590.5400, -61.250
1590.5600, -61.280
1590.5800, -61.260
1590.6000, -61.234
1590.6200, -61.279
1590.6400, -61.290
1590.6600, -61.278
1590.6800, -61.307
1590.7000, -61.290
1590.7200, -61.302
1590.7400, -61.289
1590.7600, -61.291
1590.7800, -61.289
1590.8000, -61.311
1590.8200, -61.300
1590.8400, -61.332
1590.8600, -61.335
1590.8800, -61.279
1590.9000, -61.348
1590.9200, -61.332
1590.9400, -61.327
1590.9600, -61.345
1590.9800, -61.348
1591.0000, -61.357
1591.0200, -61.390
1591.0400, -61.359
1591.0600, -61.358
1591.0800, -61.397
1591.1000, -61.393
1591.1200, -61.393
1591.1400, -61.351
1591.1600, -61.408
1591.1800, -61.390
1591.2000, -61.436
1591.2200, -61.403
1591.2400, -61.377
1591.2600, -61.412
1591.2800, -61.428
1591.3000, -61.469
1591.3200, -61.427
1591.3400, -61.443
1591.3600, -61.428
1591.3800, -61.430
1591.4000, -61.423
1591.4200, -61.437
1591.4400, -61.471
1591.4600, -61.445
1591.4800, -61.476
1591.5000, -61.446
1591.5200, -61.477
1591.5400, -61.494
1591.5600, -61.479
1591.5800, -61.461
1591.6000, -61.497
1591.6200, -61.508
1591.6400, -61.495
1591.6600, -61.519
1591.6800, -61.507
1591.7000, -61.518
1591.7200, -61.526
1591.7400, -61.515
1591.7600, -61.528
1591.7800, -61.557
1591.8000, -61.543
1591.8200, -61.526
1591.8400, -61.552
1591.8600, -61.541
1591.8800, -61.552
1591.9000, -61.577
1591.9200, -61.542
1591.9400, -61.568
1591.9600, -61.567
1591.9800, -61.570
1592.0000, -61.555
1592.0200, -61.618
1592.0400, -61.588
1592.0600, -61.586
1592.0800, -61.574
1592.1000, -61.624
1592.1200, -61.594
1592.1400, -61.606
1592.1600, -61.608
1592.1800, -61.617
1592.2000, -61.613
1592.2200, -61.621
1592.2400, -61.664
1592.2600, -61.656
1592.2800, -61.626
1592.3000, -61.593
1592.3200, -61.667
1592.3400, -61.647
1592.3600, -61.664
1592.3800, -61.677
1592.4000, -61.629
1592.4200, -61.703
1592.4400, -61.651
1592.4600, -61.692
1592.4800, -61.675
1592.5000, -61.657
1592.5200, -61.709
1592.5400, -61.663
1592.5600, -61.700
1592.5800, -61.684
1592.6000, -61.723
1592.6200, -61.680
1592.6400, -61.736
1592.6600, -61.716
1592.6800, -61.755
1592.7000, -61.713
1592.7200, -61.759
1592.7400, -61.755
1592.7600, -61.722
1592.7800, -61.759
1592.8000, -61.768
1592.8200, -61.720
1592.8400, -61.768
1592.8600, -61.707
1592.8800, -61.773
1592.9000, -61.789
1592.9200, -61.775
1592.9400, -61.773
1592.9600, -61.830
1592.9800, -61.754
1593.0000, -61.781
1593.0200, -61.785
1593.0400, -61.830
1593.0600, -61.805
1593.0800, -61.787
1593.1000, -61.850
1593.1200, -61.798
1593.1400, -61.808
1593.1600, -61.829
1593.1800, -61.836
1593.2000, -61.822
1593.2200, -61.809
1593.2400, -61.810
1593.2600, -61.848
1593.2800, -61.840
1593.3000, -61.847
1593.3200, -61.849
1593.3400, -61.855
1593.3600, -61.844
1593.3800, -61.894
1593.4000, -61.870
1593.4200, -61.827
1593.4400, -61.880
1593.4600, -61.884
1593.4800, -61.890
1593.5000, -61.921
1593.5200, -61.878
1593.5400, -61.908
1593.5600, -61.890
1593.5800, -61.897
1593.6000, -61.869
1593.6200, -61.936
1593.6400, -61.893
1593.6600, -61.932
1593.6800, -61.908
1593.7000, -61.922
1593.7200, -61.931
1593.7400, -61.965
1593.7600, -61.863
1593.7800, -61.948
1593.8000, -61.990
1593.8200, -61.955
1593.8400, -61.928
1593.8600, -61.978
1593.8800, -61.959
1593.9000, -62.032
1593.9200, -61.928
1593.9400, -61.993
1593.9600, -61.974
1593.9800, -62.005
1594.0000, -62.003
1594.0200, -61.977
1594.0400, -62.015
1594.0600, -62.057
1594.0800, -62.007
1594.1000, -62.014
1594.1200, -62.002
1594.1400, -62.022
1594.1600, -61.967
1594.1800, -62.032
1594.2000, -62.027
1594.2200, -62.052
1594.2400, -62.053
1594.2600, -62.037
1594.2800, -62.018
1594.3000, -62.048
1594.3200, -62.051
1594.3400, -62.075
1594.3600, -62.118
1594.3800, -62.075
1594.4000, -62.068
1594.4200, -62.081
1594.4400, -62.074
1594.4600, -62.079
1594.4800, -62.070
1594.5000, -62.185
1594.5200, -62.065
1594.5400, -62.142
1594.5600, -62.076
1594.5800, -62.118
1594.6000, -62.115
1594.6200, -62.107
1594.6400, -62.108
1594.6600, -62.148
1594.6800, -62.103
1594.7000, -62.170
1594.7200, -62.182
1594.7400, -62.122
1594.7600, -62.136
1594.7800, -62.184
1594.8000, -62.178
1594.8200, -62.183
1594.8400, -62.188
1594.8600, -62.189
1594.8800, -62.168
1594.9000, -62.218
1594.9200, -62.209
1594.9400, -62.195
1594.9600, -62.188
1594.9800, -62.207
1595.0000, -62.210
1595.0200, -62.203
1595.0400, -62.233
1595.0600, -62.178
1595.0800, -62.227
1595.1000, -62.201
1595.1200, -62.244
1595.1400, -62.280
1595.1600, -62.196
1595.1800, -62.239
1595.2000, -62.260
1595.2200, -62.231
1595.2400, -62.261
1595.2600, -62.245
1595.2800, -62.258
1595.3000, -62.268
1595.3200, -62.263
1595.3400, -62.294
1595.3600, -62.257
1595.3800, -62.297
1595.4000, -62.262
1595.4200, -62.326
1595.4400, -62.278
1595.4600, -62.337
1595.4800, -62.290
1595.5000, -62.316
1595.5200, -62.278
1595.5400, -62.307
1595.5600, -62.310
1595.5800, -62.346
1595.6000, -62.314
1595.6200, -62.357
1595.6400, -62.347
1595.6600, -62.321
1595.6800, -62.342
1595.7000, -62.370
1595.7200, -62.359
1595.7400, -62.338
1595.7600, -62.366
1595.7800, -62.382
1595.8000, -62.334
1595.8200, -62.389
1595.8400, -62.370
1595.8600, -62.366
1595.8800, -62.416
1595.9000, -62.391
1595.9200, -62.429
1595.9400, -62.412
1595.9600, -62.378
1595.9800, -62.392
1596.0000, -62.409
1596.0200, -62.397
1596.0400, -62.387
1596.0600, -62.433
1596.0800, -62.435
1596.1000, -62.438
1596.1200, -62.464
1596.1400, -62.434
1596.1600, -62.462
1596.1800, -62.446
1596.2000, -62.483
1596.2200, -62.456
1596.2400, -62.463
1596.2600, -62.473
1596.2800, -62.453
1596.3000, -62.482
1596.3200, -62.519
1596.3400, -62.501
1596.3600, -62.467
1596.3800, -62.492
1596.4000, -62.441
1596.4200, -62.503
1596.4400, -62.545
1596.4600, -62.461
1596.4800, -62.502
1596.5000, -62.529
1596.5200, -62.476
1596.5400, -62.526
1596.5600, -62.520
1596.5800, -62.517
1596.6000, -62.555
1596.6200, -62.505
1596.6400, -62.601
1596.6600, -62.508
1596.6800, -62.596
1596.7000, -62.560
1596.7200, -62.568
1596.7400, -62.559
1596.7600, -62.564
1596.7800, -62.581
1596.8000, -62.561
1596.8200, -62.578
1596.8400, -62.566
1596.8600, -62.596
1596.8800, -62.645
1596.9000, -62.563
1596.9200, -62.561
1596.9400, -62.593
1596.9600, -62.594
1596.9800, -62.659
1597.0000, -62.615
1597.0200, -62.666
1597.0400, -62.576
1597.0600, -62.649
1597.0800, -62.612
1597.1000, -62.599
1597.1200, -62.659
1597.1400, -62.628
1597.1600, -62.664
1597.1800, -62.652
1597.2000, -62.657
1597.2200, -62.630
1597.2400, -62.664
1597.2600, -62.670
1597.2800, -62.665
1597.3000, -62.680
1597.3200, -62.670
1597.3400, -62.661
1597.3600, -62.713
1597.3800, -62.741
1597.4000, -62.687
1597.4200, -62.694
1597.4400, -62.705
1597.4600, -62.672
1597.4800, -62.742
1597.5000, -62.683
1597.5200, -62.697
1597.5400, -62.775
1597.5600, -62.699
1597.5800, -62.748
1597.6000, -62.777
1597.6200, -62.659
1597.6400, -62.788
1597.6600, -62.683
1597.6800, -62.765
1597.7000, -62.744
1597.7200, -62.728
1597.7400, -62.774
1597.7600, -62.744
1597.7800, -62.730
1597.8000, -62.809
1597.8200, -62.822
1597.8400, -62.799
1597.8600, -62.779
1597.8800, -62.776
1597.9000, -62.777
1597.9200, -62.778
1597.9400, -62.823
1597.9600, -62.820
1597.9800, -62.762
1598.0000, -62.881
1598.0200, -62.835
1598.0400, -62.807
1598.0600, -62.811
1598.0800, -62.862
1598.1000, -62.802
1598.1200, -62.851
1598.1400, -62.837
1598.1600, -62.801
1598.1800, -62.883
1598.2000, -62.847
1598.2200, -62.856
1598.2400, -62.851
1598.2600, -62.864
1598.2800, -62.821
1598.3000, -62.859
1598.3200, -62.940
1598.3400, -62.836
1598.3600, -62.946
1598.3800, -62.827
1598.4000, -62.934
1598.4200, -62.904
1598.4400, -62.910
1598.4600, -62.876
1598.4800, -62.993
1598.5000, -62.888
1598.5200, -62.888
1598.5400, -62.951
1598.5600, -62.872
1598.5800, -62.912
1598.6000, -62.973
1598.6200, -62.889
1598.6400, -62.976
1598.6600, -62.929
1598.6800, -62.993
1598.7000, -62.940
1598.7200, -62.964
1598.7400, -62.954
1598.7600, -62.987
1598.7800, -62.949
1598.8000, -62.946
1598.8200, -63.007
1598.8400, -63.025
1598.8600, -62.988
1598.8800, -62.984
1598.9000, -62.946
1598.9200, -63.026
1598.9400, -62.983
1598.9600, -63.000
1598.9800, -63.019
1599.0000, -63.017
1599.0200, -63.034
1599.0400, -63.033
1599.0600, -62.998
1599.0800, -63.061
1599.1000, -63.012
1599.1200, -63.053
1599.1400, -63.039
1599.1600, -63.048
1599.1800, -63.079
1599.2000, -63.047
1599.2200, -63.100
1599.2400, -63.100
1599.2600, -63.082
1599.2800, -63.061
1599.3000, -63.129
1599.3200, -63.022
1599.3400, -63.070
1599.3600, -63.180
1599.3800, -63.027
1599.4000, -63.162
1599.4200, -63.089
1599.4400, -63.066
1599.4600, -63.113
1599.4800, -63.133
1599.5000, -63.102
1599.5200, -63.163
1599.5400, -63.123
1599.5600, -63.211
1599.5800, -63.143
1599.6000, -63.155
1599.6200, -63.137
1599.6400, -63.156
1599.6600, -63.063
1599.6800, -63.164
1599.7000, -63.188
1599.7200, -63.181
1599.7400, -63.157
1599.7600, -63.243
1599.7800, -63.127
1599.8000, -63.174
1599.8200, -63.196
1599.8400, -63.185
1599.8600, -63.190
1599.8800, -63.229
1599.9000, -63.153
1599.9200, -63.241
1599.9400, -63.194
1599.9600, -63.151
1599.9800, -63.255
1600.0000, -63.226
