70BCSV 	
// AQ6370B OPTICAL SPECTRUM ANALYZER //                 
25
"CTRWL",1550.000000
"SPAN", 100.000000
"START WL",1500.000000
"STOP WL",1600.000000
"WLFREQ", 0
"REFL",-28.8
"LSCL", 5.0
"RESLN",0.100
"AVG",   1
"SMPLAUTO",      0
"SMPL",       5001
"SMPLINTVL",0.0200
"HIGH1"
"MEAS"
"LSUNT",0
"NMSKH","OFF"
"RESCOR",0
"RESPARM", 9050
"FREQPARM", 9050






"[TRACE DATA]"
1500.0000, -61.692
1500.0200, -61.663
1500.0400, -61.673
1500.0600, -61.674
1500.0800, -61.672
1500.1000, -61.623
1500.1200, -61.634
1500.1400, -61.641
1500.1600, -61.678
1500.1800, -61.592
1500.2000, -61.628
1500.2200, -61.611
1500.2400, -61.636
1500.2600, -61.609
1500.2800, -61.618
1500.3000, -61.587
1500.3200, -61.598
1500.3400, -61.588
1500.3600, -61.558
1500.3800, -61.585
1500.4000, -61.541
1500.4200, -61.552
1500.4400, -61.574
1500.4600, -61.520
1500.4800, -61.552
1500.5000, -61.526
1500.5200, -61.536
1500.5400, -61.516
1500.5600, -61.530
1500.5800, -61.517
1500.6000, -61.524
1500.6200, -61.500
1500.6400, -61.480
1500.6600, -61.512
1500.6800, -61.506
1500.7000, -61.467
1500.7200, -61.489
1500.7400, -61.459
1500.7600, -61.458
1500.7800, -61.481
1500.8000, -61.434
1500.8200, -61.416
1500.8400, -61.409
1500.8600, -61.431
1500.8800, -61.414
1500.9000, -61.434
1500.9200, -61.431
1500.9400, -61.418
1500.9600, -61.387
1500.9800, -61.406
1501.0000, -61.367
1501.0200, -61.444
1501.0400, -61.355
1501.0600, -61.371
1501.0800, -61.384
1501.1000, -61.403
1501.1200, -61.353
1501.1400, -61.355
1501.1600, -61.368
1501.1800, -61.390
1501.2000, -61.351
1501.2200, -61.360
1501.2400, -61.334
1501.2600, -61.377
1501.2800, -61.311
1501.3000, -61.280
1501.3200, -61.322
1501.3400, -61.287
1501.3600, -61.306
1501.3800, -61.255
1501.4000, -61.270
1501.4200, -61.272
1501.4400, -61.294
1501.4600, -61.241
1501.4800, -61.237
1501.5000, -61.247
1501.5200, -61.256
1501.5400, -61.232
1501.5600, -61.233
1501.5800, -61.209
1501.6000, -61.207
1501.6200, -61.252
1501.6400, -61.218
1501.6600, -61.195
1501.6800, -61.201
1501.7000, -61.186
1501.7200, -61.169
1501.7400, -61.169
1501.7600, -61.131
1501.7800, -61.205
1501.8000, -61.189
1501.8200, -61.151
1501.8400, -61.188
1501.8600, -61.143
1501.8800, -61.192
1501.9000, -61.160
1501.9200, -61.125
1501.9400, -61.126
1501.9600, -61.121
1501.9800, -61.131
1502.0000, -61.115
1502.0200, -61.104
1502.0400, -61.107
1502.0600, -61.089
1502.0800, -61.089
1502.1000, -61.063
1502.1200, -61.101
1502.1400, -61.110
1502.1600, -61.074
1502.1800, -61.054
1502.2000, -61.085
1502.2200, -61.038
1502.2400, -61.020
1502.2600, -61.032
1502.2800, -61.041
1502.3000, -60.966
1502.3200, -61.010
1502.3400, -60.989
1502.3600, -61.008
1502.3800, -61.009
1502.4000, -61.005
1502.4200, -60.963
1502.4400, -60.960
1502.4600, -60.945
1502.4800, -60.910
1502.5000, -60.959
1502.5200, -60.951
1502.5400, -60.911
1502.5600, -60.928
1502.5800, -60.914
1502.6000, -60.877
1502.6200, -60.915
1502.6400, -60.914
1502.6600, -60.869
1502.6800, -60.856
1502.7000, -60.905
1502.7200, -60.875
1502.7400, -60.862
1502.7600, -60.850
1502.7800, -60.867
1502.8000, -60.872
1502.8200, -60.841
1502.8400, -60.824
1502.8600, -60.843
1502.8800, -60.871
1502.9000, -60.790
1502.9200, -60.816
1502.9400, -60.787
1502.9600, -60.776
1502.9800, -60.783
1503.0000, -60.791
1503.0200, -60.818
1503.0400, -60.760
1503.0600, -60.735
1503.0800, -60.781
1503.1000, -60.770
1503.1200, -60.729
1503.1400, -60.767
1503.1600, -60.749
1503.1800, -60.765
1503.2000, -60.686
1503.2200, -60.748
1503.2400, -60.700
1503.2600, -60.663
1503.2800, -60.682
1503.3000, -60.723
1503.3200, -60.663
1503.3400, -60.659
1503.3600, -60.668
1503.3800, -60.658
1503.4000, -60.657
1503.4200, -60.636
1503.4400, -60.648
1503.4600, -60.634
1503.4800, -60.606
1503.5000, -60.616
1503.5200, -60.600
1503.5400, -60.556
1503.5600, -60.588
1503.5800, -60.597
1503.6000, -60.584
1503.6200, -60.567
1503.6400, -60.546
1503.6600, -60.549
1503.6800, -60.536
1503.7000, -60.528
1503.7200, -60.517
1503.7400, -60.517
1503.7600, -60.505
1503.7800, -60.518
1503.8000, -60.519
1503.8200, -60.504
1503.8400, -60.508
1503.8600, -60.500
1503.8800, -60.498
1503.9000, -60.481
1503.9200, -60.467
1503.9400, -60.427
1503.9600, -60.493
1503.9800, -60.450
1504.0000, -60.448
1504.0200, -60.456
1504.0400, -60.424
1504.0600, -60.404
1504.0800, -60.442
1504.1000, -60.417
1504.1200, -60.398
1504.1400, -60.382
1504.1600, -60.376
1504.1800, -60.389
1504.2000, -60.385
1504.2200, -60.378
1504.2400, -60.359
1504.2600, -60.324
1504.2800, -60.346
1504.3000, -60.308
1504.3200, -60.336
1504.3400, -60.312
1504.3600, -60.319
1504.3800, -60.272
1504.4000, -60.279
1504.4200, -60.292
1504.4400, -60.303
1504.4600, -60.277
1504.4800, -60.263
1504.5000, -60.264
1504.5200, -60.261
1504.5400, -60.254
1504.5600, -60.196
1504.5800, -60.220
1504.6000, -60.208
1504.6200, -60.202
1504.6400, -60.198
1504.6600, -60.162
1504.6800, -60.186
1504.7000, -60.198
1504.7200, -60.200
1504.7400, -60.178
1504.7600, -60.180
1504.7800, -60.133
1504.8000, -60.184
1504.8200, -60.151
1504.8400, -60.121
1504.8600, -60.108
1504.8800, -60.113
1504.9000, -60.095
1504.9200, -60.124
1504.9400, -60.091
1504.9600, -60.097
1504.9800, -60.068
1505.0000, -60.087
1505.0200, -60.090
1505.0400, -60.034
1505.0600, -60.062
1505.0800, -60.043
1505.1000, -60.062
1505.1200, -60.031
1505.1400, -59.969
1505.1600, -60.021
1505.1800, -60.004
1505.2000, -59.998
1505.2200, -59.987
1505.2400, -59.972
1505.2600, -59.971
1505.2800, -59.960
1505.3000, -59.948
1505.3200, -59.938
1505.3400, -59.947
1505.3600, -59.903
1505.3800, -59.923
1505.4000, -59.909
1505.4200, -59.895
1505.4400, -59.891
1505.4600, -59.912
1505.4800, -59.880
1505.5000, -59.852
1505.5200, -59.865
1505.5400, -59.860
1505.5600, -59.848
1505.5800, -59.839
1505.6000, -59.829
1505.6200, -59.834
1505.6400, -59.825
1505.6600, -59.782
1505.6800, -59.809
1505.7000, -59.784
1505.7200, -59.806
1505.7400, -59.783
1505.7600, -59.778
1505.7800, -59.761
1505.8000, -59.769
1505.8200, -59.760
1505.8400, -59.766
1505.8600, -59.741
1505.8800, -59.751
1505.9000, -59.708
1505.9200, -59.718
1505.9400, -59.728
1505.9600, -59.689
1505.9800, -59.711
1506.0000, -59.723
1506.0200, -59.678
1506.0400, -59.664
1506.0600, -59.676
1506.0800, -59.646
1506.1000, -59.658
1506.1200, -59.642
1506.1400, -59.637
1506.1600, -59.612
1506.1800, -59.613
1506.2000, -59.566
1506.2200, -59.616
1506.2400, -59.585
1506.2600, -59.581
1506.2800, -59.556
1506.3000, -59.557
1506.3200, -59.560
1506.3400, -59.520
1506.3600, -59.525
1506.3800, -59.554
1506.4000, -59.517
1506.4200, -59.519
1506.4400, -59.471
1506.4600, -59.484
1506.4800, -59.504
1506.5000, -59.469
1506.5200, -59.489
1506.5400, -59.472
1506.5600, -59.425
1506.5800, -59.449
1506.6000, -59.431
1506.6200, -59.453
1506.6400, -59.440
1506.6600, -59.410
1506.6800, -59.419
1506.7000, -59.414
1506.7200, -59.392
1506.7400, -59.382
1506.7600, -59.389
1506.7800, -59.391
1506.8000, -59.368
1506.8200, -59.354
1506.8400, -59.372
1506.8600, -59.348
1506.8800, -59.348
1506.9000, -59.298
1506.9200, -59.328
1506.9400, -59.332
1506.9600, -59.319
1506.9800, -59.294
1507.0000, -59.290
1507.0200, -59.288
1507.0400, -59.231
1507.0600, -59.290
1507.0800, -59.249
1507.1000, -59.246
1507.1200, -59.240
1507.1400, -59.225
1507.1600, -59.217
1507.1800, -59.221
1507.2000, -59.218
1507.2200, -59.195
1507.2400, -59.206
1507.2600, -59.171
1507.2800, -59.192
1507.3000, -59.165
1507.3200, -59.152
1507.3400, -59.142
1507.3600, -59.133
1507.3800, -59.129
1507.4000, -59.119
1507.4200, -59.113
1507.4400, -59.086
1507.4600, -59.105
1507.4800, -59.090
1507.5000, -59.047
1507.5200, -59.073
1507.5400, -59.060
1507.5600, -59.039
1507.5800, -59.073
1507.6000, -59.031
1507.6200, -59.030
1507.6400, -59.024
1507.6600, -59.037
1507.6800, -58.990
1507.7000, -58.986
1507.7200, -59.004
1507.7400, -58.977
1507.7600, -58.959
1507.7800, -58.968
1507.8000, -58.954
1507.8200, -58.955
1507.8400, -58.931
1507.8600, -58.946
1507.8800, -58.924
1507.9000, -58.919
1507.9200, -58.912
1507.9400, -58.867
1507.9600, -58.900
1507.9800, -58.899
1508.0000, -58.857
1508.0200, -58.862
1508.0400, -58.875
1508.0600, -58.841
1508.0800, -58.818
1508.1000, -58.814
1508.1200, -58.811
1508.1400, -58.807
1508.1600, -58.803
1508.1800, -58.787
1508.2000, -58.780
1508.2200, -58.791
1508.2400, -58.750
1508.2600, -58.761
1508.2800, -58.791
1508.3000, -58.764
1508.3200, -58.719
1508.3400, -58.748
1508.3600, -58.703
1508.3800, -58.720
1508.4000, -58.689
1508.4200, -58.688
1508.4400, -58.689
1508.4600, -58.664
1508.4800, -58.638
1508.5000, -58.651
1508.5200, -58.650
1508.5400, -58.653
1508.5600, -58.638
1508.5800, -58.619
1508.6000, -58.634
1508.6200, -58.615
1508.6400, -58.602
1508.6600, -58.582
1508.6800, -58.576
1508.7000, -58.582
1508.7200, -58.574
1508.7400, -58.572
1508.7600, -58.552
1508.7800, -58.540
1508.8000, -58.532
1508.8200, -58.530
1508.8400, -58.530
1508.8600, -58.525
1508.8800, -58.503
1508.9000, -58.496
1508.9200, -58.476
1508.9400, -58.463
1508.9600, -58.464
1508.9800, -58.459
1509.0000, -58.456
1509.0200, -58.423
1509.0400, -58.429
1509.0600, -58.413
1509.0800, -58.420
1509.1000, -58.420
1509.1200, -58.386
1509.1400, -58.390
1509.1600, -58.375
1509.1800, -58.354
1509.2000, -58.325
1509.2200, -58.342
1509.2400, -58.342
1509.2600, -58.319
1509.2800, -58.316
1509.3000, -58.321
1509.3200, -58.291
1509.3400, -58.271
1509.3600, -58.280
1509.3800, -58.286
1509.4000, -58.256
1509.4200, -58.247
1509.4400, -58.236
1509.4600, -58.209
1509.4800, -58.225
1509.5000, -58.227
1509.5200, -58.194
1509.5400, -58.213
1509.5600, -58.187
1509.5800, -58.187
1509.6000, -58.170
1509.6200, -58.167
1509.6400, -58.152
1509.6600, -58.132
1509.6800, -58.131
1509.7000, -58.129
1509.7200, -58.140
1509.7400, -58.112
1509.7600, -58.097
1509.7800, -58.100
1509.8000, -58.090
1509.8200, -58.080
1509.8400, -58.059
1509.8600, -58.048
1509.8800, -58.061
1509.9000, -58.005
1509.9200, -58.048
1509.9400, -58.008
1509.9600, -58.000
1509.9800, -57.998
1510.0000, -57.986
1510.0200, -57.984
1510.0400, -57.973
1510.0600, -57.947
1510.0800, -57.956
1510.1000, -57.942
1510.1200, -57.925
1510.1400, -57.935
1510.1600, -57.914
1510.1800, -57.892
1510.2000, -57.891
1510.2200, -57.870
1510.2400, -57.867
1510.2600, -57.866
1510.2800, -57.842
1510.3000, -57.829
1510.3200, -57.829
1510.3400, -57.809
1510.3600, -57.800
1510.3800, -57.796
1510.4000, -57.765
1510.4200, -57.768
1510.4400, -57.761
1510.4600, -57.753
1510.4800, -57.755
1510.5000, -57.728
1510.5200, -57.718
1510.5400, -57.720
1510.5600, -57.697
1510.5800, -57.696
1510.6000, -57.677
1510.6200, -57.659
1510.6400, -57.676
1510.6600, -57.631
1510.6800, -57.647
1510.7000, -57.632
1510.7200, -57.636
1510.7400, -57.602
1510.7600, -57.588
1510.7800, -57.585
1510.8000, -57.561
1510.8200, -57.573
1510.8400, -57.548
1510.8600, -57.527
1510.8800, -57.521
1510.9000, -57.515
1510.9200, -57.496
1510.9400, -57.499
1510.9600, -57.483
1510.9800, -57.471
1511.0000, -57.470
1511.0200, -57.433
1511.0400, -57.440
1511.0600, -57.428
1511.0800, -57.419
1511.1000, -57.386
1511.1200, -57.380
1511.1400, -57.394
1511.1600, -57.359
1511.1800, -57.352
1511.2000, -57.341
1511.2200, -57.354
1511.2400, -57.322
1511.2600, -57.312
1511.2800, -57.304
1511.3000, -57.290
1511.3200, -57.277
1511.3400, -57.263
1511.3600, -57.239
1511.3800, -57.256
1511.4000, -57.238
1511.4200, -57.215
1511.4400, -57.220
1511.4600, -57.207
1511.4800, -57.189
1511.5000, -57.175
1511.5200, -57.173
1511.5400, -57.163
1511.5600, -57.159
1511.5800, -57.126
1511.6000, -57.125
1511.6200, -57.129
1511.6400, -57.104
1511.6600, -57.104
1511.6800, -57.094
1511.7000, -57.074
1511.7200, -57.074
1511.7400, -57.060
1511.7600, -57.022
1511.7800, -57.035
1511.8000, -57.016
1511.8200, -57.007
1511.8400, -57.004
1511.8600, -56.969
1511.8800, -56.962
1511.9000, -56.958
1511.9200, -56.943
1511.9400, -56.936
1511.9600, -56.926
1511.9800, -56.899
1512.0000, -56.904
1512.0200, -56.869
1512.0400, -56.862
1512.0600, -56.843
1512.0800, -56.847
1512.1000, -56.830
1512.1200, -56.815
1512.1400, -56.810
1512.1600, -56.811
1512.1800, -56.791
1512.2000, -56.793
1512.2200, -56.763
1512.2400, -56.755
1512.2600, -56.746
1512.2800, -56.722
1512.3000, -56.694
1512.3200, -56.713
1512.3400, -56.706
1512.3600, -56.687
1512.3800, -56.679
1512.4000, -56.671
1512.4200, -56.658
1512.4400, -56.655
1512.4600, -56.640
1512.4800, -56.629
1512.5000, -56.600
1512.5200, -56.606
1512.5400, -56.604
1512.5600, -56.577
1512.5800, -56.565
1512.6000, -56.553
1512.6200, -56.544
1512.6400, -56.530
1512.6600, -56.524
1512.6800, -56.517
1512.7000, -56.496
1512.7200, -56.486
1512.7400, -56.467
1512.7600, -56.478
1512.7800, -56.458
1512.8000, -56.428
1512.8200, -56.410
1512.8400, -56.399
1512.8600, -56.404
1512.8800, -56.405
1512.9000, -56.382
1512.9200, -56.359
1512.9400, -56.363
1512.9600, -56.336
1512.9800, -56.329
1513.0000, -56.303
1513.0200, -56.302
1513.0400, -56.287
1513.0600, -56.276
1513.0800, -56.253
1513.1000, -56.266
1513.1200, -56.245
1513.1400, -56.244
1513.1600, -56.215
1513.1800, -56.218
1513.2000, -56.204
1513.2200, -56.173
1513.2400, -56.171
1513.2600, -56.159
1513.2800, -56.145
1513.3000, -56.136
1513.3200, -56.128
1513.3400, -56.103
1513.3600, -56.106
1513.3800, -56.096
1513.4000, -56.073
1513.4200, -56.079
1513.4400, -56.053
1513.4600, -56.035
1513.4800, -56.035
1513.5000, -56.018
1513.5200, -56.004
1513.5400, -55.997
1513.5600, -55.980
1513.5800, -55.963
1513.6000, -55.953
1513.6200, -55.949
1513.6400, -55.932
1513.6600, -55.923
1513.6800, -55.912
1513.7000, -55.884
1513.7200, -55.885
1513.7400, -55.874
1513.7600, -55.850
1513.7800, -55.832
1513.8000, -55.827
1513.8200, -55.824
1513.8400, -55.812
1513.8600, -55.784
1513.8800, -55.768
1513.9000, -55.760
1513.9200, -55.747
1513.9400, -55.734
1513.9600, -55.709
1513.9800, -55.702
1514.0000, -55.699
1514.0200, -55.665
1514.0400, -55.667
1514.0600, -55.654
1514.0800, -55.659
1514.1000, -55.629
1514.1200, -55.618
1514.1400, -55.614
1514.1600, -55.586
1514.1800, -55.570
1514.2000, -55.554
1514.2200, -55.542
1514.2400, -55.541
1514.2600, -55.540
1514.2800, -55.513
1514.3000, -55.504
1514.3200, -55.488
1514.3400, -55.471
1514.3600, -55.476
1514.3800, -55.457
1514.4000, -55.432
1514.4200, -55.422
1514.4400, -55.414
1514.4600, -55.405
1514.4800, -55.383
1514.5000, -55.376
1514.5200, -55.352
1514.5400, -55.349
1514.5600, -55.336
1514.5800, -55.337
1514.6000, -55.321
1514.6200, -55.312
1514.6400, -55.278
1514.6600, -55.272
1514.6800, -55.250
1514.7000, -55.245
1514.7200, -55.212
1514.7400, -55.213
1514.7600, -55.196
1514.7800, -55.188
1514.8000, -55.182
1514.8200, -55.157
1514.8400, -55.145
1514.8600, -55.138
1514.8800, -55.125
1514.9000, -55.097
1514.9200, -55.081
1514.9400, -55.077
1514.9600, -55.061
1514.9800, -55.030
1515.0000, -55.036
1515.0200, -55.019
1515.0400, -54.999
1515.0600, -55.001
1515.0800, -54.981
1515.1000, -54.960
1515.1200, -54.944
1515.1400, -54.907
1515.1600, -54.914
1515.1800, -54.889
1515.2000, -54.891
1515.2200, -54.873
1515.2400, -54.860
1515.2600, -54.851
1515.2800, -54.832
1515.3000, -54.817
1515.3200, -54.809
1515.3400, -54.788
1515.3600, -54.773
1515.3800, -54.766
1515.4000, -54.750
1515.4200, -54.726
1515.4400, -54.726
1515.4600, -54.701
1515.4800, -54.686
1515.5000, -54.670
1515.5200, -54.655
1515.5400, -54.647
1515.5600, -54.641
1515.5800, -54.610
1515.6000, -54.579
1515.6200, -54.590
1515.6400, -54.574
1515.6600, -54.540
1515.6800, -54.536
1515.7000, -54.525
1515.7200, -54.514
1515.7400, -54.503
1515.7600, -54.475
1515.7800, -54.464
1515.8000, -54.452
1515.8200, -54.436
1515.8400, -54.424
1515.8600, -54.401
1515.8800, -54.380
1515.9000, -54.375
1515.9200, -54.348
1515.9400, -54.345
1515.9600, -54.322
1515.9800, -54.316
1516.0000, -54.282
1516.0200, -54.276
1516.0400, -54.268
1516.0600, -54.233
1516.0800, -54.223
1516.1000, -54.191
1516.1200, -54.198
1516.1400, -54.185
1516.1600, -54.167
1516.1800, -54.154
1516.2000, -54.139
1516.2200, -54.121
1516.2400, -54.091
1516.2600, -54.095
1516.2800, -54.087
1516.3000, -54.065
1516.3200, -54.035
1516.3400, -54.038
1516.3600, -54.015
1516.3800, -54.002
1516.4000, -53.980
1516.4200, -53.957
1516.4400, -53.940
1516.4600, -53.933
1516.4800, -53.906
1516.5000, -53.895
1516.5200, -53.878
1516.5400, -53.856
1516.5600, -53.851
1516.5800, -53.833
1516.6000, -53.801
1516.6200, -53.784
1516.6400, -53.786
1516.6600, -53.768
1516.6800, -53.741
1516.7000, -53.716
1516.7200, -53.698
1516.7400, -53.687
1516.7600, -53.673
1516.7800, -53.650
1516.8000, -53.631
1516.8200, -53.605
1516.8400, -53.615
1516.8600, -53.583
1516.8800, -53.554
1516.9000, -53.548
1516.9200, -53.534
1516.9400, -53.501
1516.9600, -53.490
1516.9800, -53.471
1517.0000, -53.453
1517.0200, -53.438
1517.0400, -53.420
1517.0600, -53.401
1517.0800, -53.385
1517.1000, -53.371
1517.1200, -53.328
1517.1400, -53.330
1517.1600, -53.316
1517.1800, -53.289
1517.2000, -53.275
1517.2200, -53.261
1517.2400, -53.236
1517.2600, -53.215
1517.2800, -53.207
1517.3000, -53.193
1517.3200, -53.175
1517.3400, -53.157
1517.3600, -53.133
1517.3800, -53.119
1517.4000, -53.078
1517.4200, -53.076
1517.4400, -53.058
1517.4600, -53.039
1517.4800, -53.006
1517.5000, -53.000
1517.5200, -52.980
1517.5400, -52.960
1517.5600, -52.922
1517.5800, -52.922
1517.6000, -52.907
1517.6200, -52.893
1517.6400, -52.860
1517.6600, -52.827
1517.6800, -52.822
1517.7000, -52.803
1517.7200, -52.772
1517.7400, -52.751
1517.7600, -52.730
1517.7800, -52.713
1517.8000, -52.689
1517.8200, -52.668
1517.8400, -52.653
1517.8600, -52.640
1517.8800, -52.608
1517.9000, -52.588
1517.9200, -52.573
1517.9400, -52.556
1517.9600, -52.529
1517.9800, -52.482
1518.0000, -52.473
1518.0200, -52.471
1518.0400, -52.453
1518.0600, -52.422
1518.0800, -52.412
1518.1000, -52.390
1518.1200, -52.366
1518.1400, -52.344
1518.1600, -52.330
1518.1800, -52.297
1518.2000, -52.282
1518.2200, -52.260
1518.2400, -52.240
1518.2600, -52.225
1518.2800, -52.204
1518.3000, -52.176
1518.3200, -52.161
1518.3400, -52.135
1518.3600, -52.121
1518.3800, -52.094
1518.4000, -52.076
1518.4200, -52.048
1518.4400, -52.007
1518.4600, -52.010
1518.4800, -51.980
1518.5000, -51.934
1518.5200, -51.926
1518.5400, -51.903
1518.5600, -51.890
1518.5800, -51.861
1518.6000, -51.832
1518.6200, -51.825
1518.6400, -51.800
1518.6600, -51.768
1518.6800, -51.730
1518.7000, -51.714
1518.7200, -51.692
1518.7400, -51.669
1518.7600, -51.639
1518.7800, -51.627
1518.8000, -51.610
1518.8200, -51.584
1518.8400, -51.544
1518.8600, -51.530
1518.8800, -51.513
1518.9000, -51.472
1518.9200, -51.430
1518.9400, -51.431
1518.9600, -51.418
1518.9800, -51.395
1519.0000, -51.347
1519.0200, -51.337
1519.0400, -51.324
1519.0600, -51.297
1519.0800, -51.285
1519.1000, -51.246
1519.1200, -51.218
1519.1400, -51.195
1519.1600, -51.168
1519.1800, -51.149
1519.2000, -51.121
1519.2200, -51.104
1519.2400, -51.070
1519.2600, -51.039
1519.2800, -51.019
1519.3000, -50.989
1519.3200, -50.968
1519.3400, -50.941
1519.3600, -50.908
1519.3800, -50.871
1519.4000, -50.864
1519.4200, -50.817
1519.4400, -50.781
1519.4600, -50.770
1519.4800, -50.748
1519.5000, -50.731
1519.5200, -50.699
1519.5400, -50.643
1519.5600, -50.640
1519.5800, -50.616
1519.6000, -50.571
1519.6200, -50.545
1519.6400, -50.530
1519.6600, -50.498
1519.6800, -50.465
1519.7000, -50.421
1519.7200, -50.395
1519.7400, -50.388
1519.7600, -50.364
1519.7800, -50.320
1519.8000, -50.301
1519.8200, -50.274
1519.8400, -50.240
1519.8600, -50.203
1519.8800, -50.188
1519.9000, -50.164
1519.9200, -50.134
1519.9400, -50.090
1519.9600, -50.068
1519.9800, -50.045
1520.0000, -50.015
1520.0200, -49.985
1520.0400, -49.958
1520.0600, -49.931
1520.0800, -49.891
1520.1000, -49.857
1520.1200, -49.834
1520.1400, -49.803
1520.1600, -49.762
1520.1800, -49.738
1520.2000, -49.704
1520.2200, -49.676
1520.2400, -49.655
1520.2600, -49.619
1520.2800, -49.591
1520.3000, -49.556
1520.3200, -49.523
1520.3400, -49.501
1520.3600, -49.442
1520.3800, -49.413
1520.4000, -49.387
1520.4200, -49.339
1520.4400, -49.337
1520.4600, -49.305
1520.4800, -49.252
1520.5000, -49.231
1520.5200, -49.214
1520.5400, -49.157
1520.5600, -49.120
1520.5800, -49.100
1520.6000, -49.049
1520.6200, -49.026
1520.6400, -48.975
1520.6600, -48.948
1520.6800, -48.932
1520.7000, -48.901
1520.7200, -48.847
1520.7400, -48.831
1520.7600, -48.801
1520.7800, -48.743
1520.8000, -48.715
1520.8200, -48.684
1520.8400, -48.658
1520.8600, -48.626
1520.8800, -48.587
1520.9000, -48.556
1520.9200, -48.521
1520.9400, -48.488
1520.9600, -48.454
1520.9800, -48.413
1521.0000, -48.369
1521.0200, -48.331
1521.0400, -48.296
1521.0600, -48.280
1521.0800, -48.227
1521.1000, -48.199
1521.1200, -48.155
1521.1400, -48.132
1521.1600, -48.085
1521.1800, -48.053
1521.2000, -48.014
1521.2200, -47.979
1521.2400, -47.931
1521.2600, -47.860
1521.2800, -47.877
1521.3000, -47.822
1521.3200, -47.765
1521.3400, -47.737
1521.3600, -47.695
1521.3800, -47.681
1521.4000, -47.649
1521.4200, -47.596
1521.4400, -47.555
1521.4600, -47.530
1521.4800, -47.477
1521.5000, -47.438
1521.5200, -47.393
1521.5400, -47.350
1521.5600, -47.329
1521.5800, -47.269
1521.6000, -47.233
1521.6200, -47.204
1521.6400, -47.173
1521.6600, -47.119
1521.6800, -47.094
1521.7000, -47.046
1521.7200, -47.003
1521.7400, -46.971
1521.7600, -46.931
1521.7800, -46.891
1521.8000, -46.858
1521.8200, -46.809
1521.8400, -46.777
1521.8600, -46.742
1521.8800, -46.701
1521.9000, -46.670
1521.9200, -46.605
1521.9400, -46.575
1521.9600, -46.526
1521.9800, -46.488
1522.0000, -46.461
1522.0200, -46.422
1522.0400, -46.365
1522.0600, -46.339
1522.0800, -46.296
1522.1000, -46.235
1522.1200, -46.220
1522.1400, -46.177
1522.1600, -46.136
1522.1800, -46.099
1522.2000, -46.051
1522.2200, -46.021
1522.2400, -45.960
1522.2600, -45.917
1522.2800, -45.884
1522.3000, -45.824
1522.3200, -45.808
1522.3400, -45.769
1522.3600, -45.699
1522.3800, -45.674
1522.4000, -45.633
1522.4200, -45.584
1522.4400, -45.532
1522.4600, -45.490
1522.4800, -45.446
1522.5000, -45.418
1522.5200, -45.361
1522.5400, -45.330
1522.5600, -45.297
1522.5800, -45.254
1522.6000, -45.188
1522.6200, -45.166
1522.6400, -45.110
1522.6600, -45.069
1522.6800, -45.034
1522.7000, -44.998
1522.7200, -44.957
1522.7400, -44.916
1522.7600, -44.860
1522.7800, -44.829
1522.8000, -44.788
1522.8200, -44.748
1522.8400, -44.703
1522.8600, -44.649
1522.8800, -44.605
1522.9000, -44.567
1522.9200, -44.532
1522.9400, -44.493
1522.9600, -44.447
1522.9800, -44.407
1523.0000, -44.363
1523.0200, -44.328
1523.0400, -44.290
1523.0600, -44.240
1523.0800, -44.196
1523.1000, -44.155
1523.1200, -44.102
1523.1400, -44.054
1523.1600, -44.029
1523.1800, -43.981
1523.2000, -43.934
1523.2200, -43.895
1523.2400, -43.852
1523.2600, -43.813
1523.2800, -43.768
1523.3000, -43.717
1523.3200, -43.684
1523.3400, -43.640
1523.3600, -43.585
1523.3800, -43.542
1523.4000, -43.495
1523.4200, -43.459
1523.4400, -43.418
1523.4600, -43.367
1523.4800, -43.329
1523.5000, -43.291
1523.5200, -43.245
1523.5400, -43.201
1523.5600, -43.161
1523.5800, -43.116
1523.6000, -43.072
1523.6200, -43.028
1523.6400, -42.987
1523.6600, -42.945
1523.6800, -42.910
1523.7000, -42.861
1523.7200, -42.823
1523.7400, -42.779
1523.7600, -42.737
1523.7800, -42.694
1523.8000, -42.652
1523.8200, -42.610
1523.8400, -42.568
1523.8600, -42.527
1523.8800, -42.482
1523.9000, -42.438
1523.9200, -42.400
1523.9400, -42.357
1523.9600, -42.318
1523.9800, -42.275
1524.0000, -42.234
1524.0200, -42.195
1524.0400, -42.153
1524.0600, -42.106
1524.0800, -42.065
1524.1000, -42.022
1524.1200, -41.978
1524.1400, -41.932
1524.1600, -41.889
1524.1800, -41.850
1524.2000, -41.811
1524.2200, -41.767
1524.2400, -41.722
1524.2600, -41.683
1524.2800, -41.642
1524.3000, -41.598
1524.3200, -41.559
1524.3400, -41.517
1524.3600, -41.476
1524.3800, -41.433
1524.4000, -41.392
1524.4200, -41.349
1524.4400, -41.311
1524.4600, -41.266
1524.4800, -41.227
1524.5000, -41.187
1524.5200, -41.142
1524.5400, -41.104
1524.5600, -41.062
1524.5800, -41.027
1524.6000, -40.988
1524.6200, -40.949
1524.6400, -40.909
1524.6600, -40.863
1524.6800, -40.823
1524.7000, -40.782
1524.7200, -40.741
1524.7400, -40.701
1524.7600, -40.663
1524.7800, -40.625
1524.8000, -40.582
1524.8200, -40.543
1524.8400, -40.505
1524.8600, -40.462
1524.8800, -40.424
1524.9000, -40.381
1524.9200, -40.340
1524.9400, -40.301
1524.9600, -40.261
1524.9800, -40.224
1525.0000, -40.179
1525.0200, -40.137
1525.0400, -40.098
1525.0600, -40.056
1525.0800, -40.010
1525.1000, -39.968
1525.1200, -39.930
1525.1400, -39.892
1525.1600, -39.851
1525.1800, -39.809
1525.2000, -39.767
1525.2200, -39.724
1525.2400, -39.687
1525.2600, -39.647
1525.2800, -39.607
1525.3000, -39.570
1525.3200, -39.529
1525.3400, -39.486
1525.3600, -39.448
1525.3800, -39.410
1525.4000, -39.369
1525.4200, -39.331
1525.4400, -39.292
1525.4600, -39.249
1525.4800, -39.209
1525.5000, -39.166
1525.5200, -39.126
1525.5400, -39.084
1525.5600, -39.044
1525.5800, -39.002
1525.6000, -38.960
1525.6200, -38.926
1525.6400, -38.887
1525.6600, -38.847
1525.6800, -38.806
1525.7000, -38.760
1525.7200, -38.717
1525.7400, -38.676
1525.7600, -38.638
1525.7800, -38.596
1525.8000, -38.553
1525.8200, -38.512
1525.8400, -38.472
1525.8600, -38.433
1525.8800, -38.391
1525.9000, -38.354
1525.9200, -38.311
1525.9400, -38.270
1525.9600, -38.238
1525.9800, -38.200
1526.0000, -38.163
1526.0200, -38.122
1526.0400, -38.084
1526.0600, -38.048
1526.0800, -38.009
1526.1000, -37.969
1526.1200, -37.932
1526.1400, -37.888
1526.1600, -37.843
1526.1800, -37.803
1526.2000, -37.763
1526.2200, -37.724
1526.2400, -37.684
1526.2600, -37.639
1526.2800, -37.597
1526.3000, -37.566
1526.3200, -37.531
1526.3400, -37.486
1526.3600, -37.455
1526.3800, -37.421
1526.4000, -37.382
1526.4200, -37.342
1526.4400, -37.307
1526.4600, -37.266
1526.4800, -37.231
1526.5000, -37.188
1526.5200, -37.148
1526.5400, -37.114
1526.5600, -37.070
1526.5800, -37.030
1526.6000, -36.990
1526.6200, -36.948
1526.6400, -36.911
1526.6600, -36.865
1526.6800, -36.838
1526.7000, -36.794
1526.7200, -36.759
1526.7400, -36.723
1526.7600, -36.689
1526.7800, -36.645
1526.8000, -36.606
1526.8200, -36.572
1526.8400, -36.535
1526.8600, -36.482
1526.8800, -36.462
1526.9000, -36.419
1526.9200, -36.374
1526.9400, -36.334
1526.9600, -36.289
1526.9800, -36.238
1527.0000, -36.211
1527.0200, -36.171
1527.0400, -36.117
1527.0600, -36.086
1527.0800, -36.052
1527.1000, -36.004
1527.1200, -35.964
1527.1400, -35.920
1527.1600, -35.896
1527.1800, -35.850
1527.2000, -35.816
1527.2200, -35.770
1527.2400, -35.745
1527.2600, -35.699
1527.2800, -35.656
1527.3000, -35.618
1527.3200, -35.573
1527.3400, -35.533
1527.3600, -35.492
1527.3800, -35.449
1527.4000, -35.419
1527.4200, -35.375
1527.4400, -35.330
1527.4600, -35.283
1527.4800, -35.246
1527.5000, -35.197
1527.5200, -35.149
1527.5400, -35.090
1527.5600, -35.051
1527.5800, -34.998
1527.6000, -34.958
1527.6200, -34.921
1527.6400, -34.872
1527.6600, -34.817
1527.6800, -34.786
1527.7000, -34.736
1527.7200, -34.687
1527.7400, -34.650
1527.7600, -34.610
1527.7800, -34.578
1527.8000, -34.495
1527.8200, -34.481
1527.8400, -34.429
1527.8600, -34.380
1527.8800, -34.338
1527.9000, -34.265
1527.9200, -34.247
1527.9400, -34.212
1527.9600, -34.152
1527.9800, -34.108
1528.0000, -34.067
1528.0200, -34.002
1528.0400, -33.952
1528.0600, -33.895
1528.0800, -33.853
1528.1000, -33.833
1528.1200, -33.780
1528.1400, -33.728
1528.1600, -33.682
1528.1800, -33.657
1528.2000, -33.599
1528.2200, -33.556
1528.2400, -33.523
1528.2600, -33.474
1528.2800, -33.423
1528.3000, -33.379
1528.3200, -33.365
1528.3400, -33.332
1528.3600, -33.282
1528.3800, -33.246
1528.4000, -33.198
1528.4200, -33.156
1528.4400, -33.116
1528.4600, -33.072
1528.4800, -33.029
1528.5000, -32.999
1528.5200, -32.945
1528.5400, -32.910
1528.5600, -32.856
1528.5800, -32.823
1528.6000, -32.784
1528.6200, -32.754
1528.6400, -32.736
1528.6600, -32.681
1528.6800, -32.642
1528.7000, -32.597
1528.7200, -32.562
1528.7400, -32.519
1528.7600, -32.467
1528.7800, -32.393
1528.8000, -32.354
1528.8200, -32.295
1528.8400, -32.226
1528.8600, -32.207
1528.8800, -32.150
1528.9000, -32.069
1528.9200, -32.044
1528.9400, -31.966
1528.9600, -31.911
1528.9800, -31.844
1529.0000, -31.806
1529.0200, -31.781
1529.0400, -31.704
1529.0600, -31.644
1529.0800, -31.583
1529.1000, -31.585
1529.1200, -31.543
1529.1400, -31.493
1529.1600, -31.501
1529.1800, -31.395
1529.2000, -31.344
1529.2200, -31.257
1529.2400, -31.248
1529.2600, -31.181
1529.2800, -31.187
1529.3000, -31.139
1529.3200, -31.145
1529.3400, -31.046
1529.3600, -30.974
1529.3800, -30.999
1529.4000, -31.011
1529.4200, -30.817
1529.4400, -30.920
1529.4600, -30.831
1529.4800, -30.730
1529.5000, -30.726
1529.5200, -30.666
1529.5400, -30.708
1529.5600, -30.633
1529.5800, -30.540
1529.6000, -30.563
1529.6200, -30.489
1529.6400, -30.329
1529.6600, -30.430
1529.6800, -30.287
1529.7000, -30.160
1529.7200, -30.219
1529.7400, -30.223
1529.7600, -30.282
1529.7800, -30.229
1529.8000, -30.055
1529.8200, -30.200
1529.8400, -30.021
1529.8600, -29.945
1529.8800, -29.927
1529.9000, -29.937
1529.9200, -29.968
1529.9400, -29.728
1529.9600, -29.774
1529.9800, -29.762
1530.0000, -29.679
1530.0200, -29.626
1530.0400, -29.593
1530.0600, -29.568
1530.0800, -29.605
1530.1000, -29.493
1530.1200, -29.603
1530.1400, -29.498
1530.1600, -29.396
1530.1800, -29.625
1530.2000, -29.467
1530.2200, -29.480
1530.2400, -29.318
1530.2600, -29.371
1530.2800, -29.525
1530.3000, -29.390
1530.3200, -29.312
1530.3400, -29.307
1530.3600, -29.363
1530.3800, -29.245
1530.4000, -29.194
1530.4200, -29.072
1530.4400, -29.086
1530.4600, -28.984
1530.4800, -28.992
1530.5000, -28.856
1530.5200, -28.779
1530.5400, -28.774
1530.5600, -28.811
1530.5800, -28.495
1530.6000, -28.540
1530.6200, -28.588
1530.6400, -28.614
1530.6600, -28.453
1530.6800, -28.426
1530.7000, -28.205
1530.7200, -28.408
1530.7400, -28.401
1530.7600, -28.336
1530.7800, -28.228
1530.8000, -28.287
1530.8200, -28.380
1530.8400, -28.355
1530.8600, -28.279
1530.8800, -28.193
1530.9000, -28.270
1530.9200, -28.302
1530.9400, -28.140
1530.9600, -28.144
1530.9800, -28.214
1531.0000, -28.327
1531.0200, -27.900
1531.0400, -28.101
1531.0600, -28.217
1531.0800, -27.989
1531.1000, -28.220
1531.1200, -28.159
1531.1400, -27.949
1531.1600, -28.083
1531.1800, -28.084
1531.2000, -28.050
1531.2200, -28.024
1531.2400, -28.019
1531.2600, -27.396
1531.2800, -27.465
1531.3000, -27.381
1531.3200, -27.209
1531.3400, -27.184
1531.3600, -27.588
1531.3800, -26.745
1531.4000, -25.588
1531.4200, -26.901
1531.4400, -25.572
1531.4600, -26.608
1531.4800, -26.245
1531.5000, -26.948
1531.5200, -26.417
1531.5400, -27.057
1531.5600, -26.879
1531.5800, -27.677
1531.6000, -27.357
1531.6200, -26.922
1531.6400, -26.845
1531.6600, -27.783
1531.6800, -27.356
1531.7000, -27.628
1531.7200, -27.320
1531.7400, -26.364
1531.7600, -27.294
1531.7800, -27.723
1531.8000, -27.844
1531.8200, -27.184
1531.8400, -25.843
1531.8600, -26.416
1531.8800, -27.108
1531.9000, -27.747
1531.9200, -27.500
1531.9400, -26.140
1531.9600, -26.262
1531.9800, -27.441
1532.0000, -27.124
1532.0200, -27.552
1532.0400, -26.043
1532.0600, -26.334
1532.0800, -27.274
1532.1000, -26.036
1532.1200, -24.390
1532.1400, -27.449
1532.1600, -27.049
1532.1800, -27.499
1532.2000, -28.061
1532.2200, -27.544
1532.2400, -27.934
1532.2600, -27.886
1532.2800, -27.852
1532.3000, -26.881
1532.3200, -25.692
1532.3400, -26.761
1532.3600, -26.228
1532.3800, -27.495
1532.4000, -27.480
1532.4200, -27.411
1532.4400, -27.567
1532.4600, -25.380
1532.4800, -26.910
1532.5000, -25.339
1532.5200, -26.533
1532.5400, -27.339
1532.5600, -25.139
1532.5800, -26.758
1532.6000, -24.590
1532.6200, -25.993
1532.6400, -26.596
1532.6600, -27.161
1532.6800, -26.797
1532.7000, -26.728
1532.7200, -27.123
1532.7400, -27.188
1532.7600, -25.537
1532.7800, -26.463
1532.8000, -25.735
1532.8200, -26.420
1532.8400, -26.902
1532.8600, -27.515
1532.8800, -27.635
1532.9000, -27.131
1532.9200, -27.779
1532.9400, -27.971
1532.9600, -28.204
1532.9800, -27.239
1533.0000, -27.736
1533.0200, -28.166
1533.0400, -28.177
1533.0600, -28.584
1533.0800, -28.107
1533.1000, -27.975
1533.1200, -28.147
1533.1400, -27.523
1533.1600, -28.265
1533.1800, -28.708
1533.2000, -28.802
1533.2200, -28.658
1533.2400, -27.436
1533.2600, -28.620
1533.2800, -28.812
1533.3000, -28.798
1533.3200, -28.751
1533.3400, -28.785
1533.3600, -28.848
1533.3800, -28.740
1533.4000, -28.429
1533.4200, -28.869
1533.4400, -28.879
1533.4600, -29.006
1533.4800, -29.078
1533.5000, -29.168
1533.5200, -29.003
1533.5400, -29.270
1533.5600, -29.300
1533.5800, -29.494
1533.6000, -29.479
1533.6200, -29.436
1533.6400, -29.638
1533.6600, -29.824
1533.6800, -29.750
1533.7000, -29.871
1533.7200, -29.911
1533.7400, -29.998
1533.7600, -30.104
1533.7800, -30.206
1533.8000, -30.325
1533.8200, -30.342
1533.8400, -30.469
1533.8600, -30.513
1533.8800, -30.504
1533.9000, -30.659
1533.9200, -30.803
1533.9400, -30.915
1533.9600, -30.982
1533.9800, -31.056
1534.0000, -30.997
1534.0200, -31.088
1534.0400, -31.204
1534.0600, -31.209
1534.0800, -31.363
1534.1000, -31.308
1534.1200, -31.495
1534.1400, -31.427
1534.1600, -31.445
1534.1800, -31.613
1534.2000, -31.582
1534.2200, -31.724
1534.2400, -31.713
1534.2600, -31.828
1534.2800, -31.785
1534.3000, -31.891
1534.3200, -31.976
1534.3400, -32.028
1534.3600, -32.176
1534.3800, -32.151
1534.4000, -32.312
1534.4200, -32.373
1534.4400, -32.374
1534.4600, -32.475
1534.4800, -32.535
1534.5000, -32.590
1534.5200, -32.642
1534.5400, -32.712
1534.5600, -32.828
1534.5800, -32.862
1534.6000, -32.982
1534.6200, -33.005
1534.6400, -33.062
1534.6600, -33.140
1534.6800, -33.231
1534.7000, -33.215
1534.7200, -33.244
1534.7400, -33.348
1534.7600, -33.352
1534.7800, -33.472
1534.8000, -33.533
1534.8200, -33.585
1534.8400, -33.667
1534.8600, -33.684
1534.8800, -33.786
1534.9000, -33.874
1534.9200, -33.923
1534.9400, -34.001
1534.9600, -33.933
1534.9800, -34.025
1535.0000, -34.076
1535.0200, -34.166
1535.0400, -34.255
1535.0600, -34.265
1535.0800, -34.332
1535.1000, -34.397
1535.1200, -34.438
1535.1400, -34.487
1535.1600, -34.554
1535.1800, -34.573
1535.2000, -34.638
1535.2200, -34.695
1535.2400, -34.732
1535.2600, -34.766
1535.2800, -34.823
1535.3000, -34.895
1535.3200, -34.962
1535.3400, -35.006
1535.3600, -35.071
1535.3800, -35.137
1535.4000, -35.173
1535.4200, -35.235
1535.4400, -35.282
1535.4600, -35.332
1535.4800, -35.404
1535.5000, -35.471
1535.5200, -35.516
1535.5400, -35.575
1535.5600, -35.631
1535.5800, -35.685
1535.6000, -35.741
1535.6200, -35.796
1535.6400, -35.852
1535.6600, -35.914
1535.6800, -35.963
1535.7000, -36.019
1535.7200, -36.090
1535.7400, -36.162
1535.7600, -36.225
1535.7800, -36.282
1535.8000, -36.344
1535.8200, -36.398
1535.8400, -36.445
1535.8600, -36.504
1535.8800, -36.552
1535.9000, -36.598
1535.9200, -36.649
1535.9400, -36.700
1535.9600, -36.742
1535.9800, -36.806
1536.0000, -36.851
1536.0200, -36.889
1536.0400, -36.942
1536.0600, -36.986
1536.0800, -37.026
1536.1000, -37.075
1536.1200, -37.132
1536.1400, -37.177
1536.1600, -37.219
1536.1800, -37.252
1536.2000, -37.295
1536.2200, -37.337
1536.2400, -37.393
1536.2600, -37.426
1536.2800, -37.454
1536.3000, -37.499
1536.3200, -37.537
1536.3400, -37.578
1536.3600, -37.610
1536.3800, -37.652
1536.4000, -37.693
1536.4200, -37.734
1536.4400, -37.773
1536.4600, -37.815
1536.4800, -37.859
1536.5000, -37.888
1536.5200, -37.933
1536.5400, -37.980
1536.5600, -38.026
1536.5800, -38.063
1536.6000, -38.090
1536.6200, -38.119
1536.6400, -38.147
1536.6600, -38.191
1536.6800, -38.240
1536.7000, -38.272
1536.7200, -38.311
1536.7400, -38.337
1536.7600, -38.380
1536.7800, -38.419
1536.8000, -38.450
1536.8200, -38.480
1536.8400, -38.514
1536.8600, -38.554
1536.8800, -38.594
1536.9000, -38.630
1536.9200, -38.657
1536.9400, -38.689
1536.9600, -38.721
1536.9800, -38.764
1537.0000, -38.785
1537.0200, -38.829
1537.0400, -38.866
1537.0600, -38.884
1537.0800, -38.926
1537.1000, -38.944
1537.1200, -38.973
1537.1400, -39.011
1537.1600, -39.030
1537.1800, -39.052
1537.2000, -39.075
1537.2200, -39.113
1537.2400, -39.135
1537.2600, -39.162
1537.2800, -39.175
1537.3000, -39.198
1537.3200, -39.234
1537.3400, -39.263
1537.3600, -39.282
1537.3800, -39.306
1537.4000, -39.343
1537.4200, -39.360
1537.4400, -39.387
1537.4600, -39.413
1537.4800, -39.431
1537.5000, -39.454
1537.5200, -39.470
1537.5400, -39.488
1537.5600, -39.520
1537.5800, -39.561
1537.6000, -39.573
1537.6200, -39.610
1537.6400, -39.634
1537.6600, -39.659
1537.6800, -39.680
1537.7000, -39.704
1537.7200, -39.719
1537.7400, -39.743
1537.7600, -39.759
1537.7800, -39.779
1537.8000, -39.795
1537.8200, -39.828
1537.8400, -39.844
1537.8600, -39.867
1537.8800, -39.888
1537.9000, -39.921
1537.9200, -39.942
1537.9400, -39.961
1537.9600, -39.976
1537.9800, -39.979
1538.0000, -40.010
1538.0200, -40.021
1538.0400, -40.035
1538.0600, -40.058
1538.0800, -40.076
1538.1000, -40.085
1538.1200, -40.103
1538.1400, -40.133
1538.1600, -40.146
1538.1800, -40.165
1538.2000, -40.170
1538.2200, -40.190
1538.2400, -40.211
1538.2600, -40.234
1538.2800, -40.232
1538.3000, -40.253
1538.3200, -40.266
1538.3400, -40.281
1538.3600, -40.295
1538.3800, -40.307
1538.4000, -40.317
1538.4200, -40.327
1538.4400, -40.334
1538.4600, -40.348
1538.4800, -40.364
1538.5000, -40.391
1538.5200, -40.401
1538.5400, -40.413
1538.5600, -40.433
1538.5800, -40.442
1538.6000, -40.449
1538.6200, -40.463
1538.6400, -40.478
1538.6600, -40.492
1538.6800, -40.508
1538.7000, -40.515
1538.7200, -40.528
1538.7400, -40.538
1538.7600, -40.540
1538.7800, -40.552
1538.8000, -40.567
1538.8200, -40.584
1538.8400, -40.591
1538.8600, -40.598
1538.8800, -40.600
1538.9000, -40.596
1538.9200, -40.612
1538.9400, -40.614
1538.9600, -40.619
1538.9800, -40.623
1539.0000, -40.633
1539.0200, -40.634
1539.0400, -40.649
1539.0600, -40.662
1539.0800, -40.658
1539.1000, -40.669
1539.1200, -40.669
1539.1400, -40.686
1539.1600, -40.694
1539.1800, -40.696
1539.2000, -40.695
1539.2200, -40.697
1539.2400, -40.708
1539.2600, -40.705
1539.2800, -40.719
1539.3000, -40.723
1539.3200, -40.733
1539.3400, -40.729
1539.3600, -40.726
1539.3800, -40.744
1539.4000, -40.755
1539.4200, -40.761
1539.4400, -40.766
1539.4600, -40.770
1539.4800, -40.774
1539.5000, -40.778
1539.5200, -40.787
1539.5400, -40.787
1539.5600, -40.795
1539.5800, -40.808
1539.6000, -40.804
1539.6200, -40.821
1539.6400, -40.823
1539.6600, -40.828
1539.6800, -40.827
1539.7000, -40.828
1539.7200, -40.827
1539.7400, -40.844
1539.7600, -40.851
1539.7800, -40.854
1539.8000, -40.848
1539.8200, -40.844
1539.8400, -40.851
1539.8600, -40.850
1539.8800, -40.857
1539.9000, -40.855
1539.9200, -40.857
1539.9400, -40.859
1539.9600, -40.868
1539.9800, -40.871
1540.0000, -40.855
1540.0200, -40.864
1540.0400, -40.867
1540.0600, -40.877
1540.0800, -40.867
1540.1000, -40.877
1540.1200, -40.875
1540.1400, -40.882
1540.1600, -40.884
1540.1800, -40.880
1540.2000, -40.889
1540.2200, -40.881
1540.2400, -40.879
1540.2600, -40.877
1540.2800, -40.869
1540.3000, -40.867
1540.3200, -40.884
1540.3400, -40.884
1540.3600, -40.878
1540.3800, -40.881
1540.4000, -40.875
1540.4200, -40.880
1540.4400, -40.875
1540.4600, -40.866
1540.4800, -40.868
1540.5000, -40.865
1540.5200, -40.863
1540.5400, -40.871
1540.5600, -40.864
1540.5800, -40.863
1540.6000, -40.865
1540.6200, -40.866
1540.6400, -40.862
1540.6600, -40.867
1540.6800, -40.876
1540.7000, -40.872
1540.7200, -40.856
1540.7400, -40.852
1540.7600, -40.850
1540.7800, -40.849
1540.8000, -40.853
1540.8200, -40.846
1540.8400, -40.834
1540.8600, -40.834
1540.8800, -40.838
1540.9000, -40.832
1540.9200, -40.823
1540.9400, -40.818
1540.9600, -40.816
1540.9800, -40.825
1541.0000, -40.825
1541.0200, -40.821
1541.0400, -40.821
1541.0600, -40.805
1541.0800, -40.811
1541.1000, -40.813
1541.1200, -40.806
1541.1400, -40.789
1541.1600, -40.793
1541.1800, -40.796
1541.2000, -40.789
1541.2200, -40.792
1541.2400, -40.796
1541.2600, -40.785
1541.2800, -40.784
1541.3000, -40.787
1541.3200, -40.781
1541.3400, -40.784
1541.3600, -40.777
1541.3800, -40.774
1541.4000, -40.766
1541.4200, -40.760
1541.4400, -40.763
1541.4600, -40.762
1541.4800, -40.754
1541.5000, -40.753
1541.5200, -40.752
1541.5400, -40.753
1541.5600, -40.761
1541.5800, -40.760
1541.6000, -40.758
1541.6200, -40.746
1541.6400, -40.729
1541.6600, -40.725
1541.6800, -40.725
1541.7000, -40.720
1541.7200, -40.711
1541.7400, -40.712
1541.7600, -40.710
1541.7800, -40.712
1541.8000, -40.703
1541.8200, -40.690
1541.8400, -40.688
1541.8600, -40.685
1541.8800, -40.687
1541.9000, -40.687
1541.9200, -40.684
1541.9400, -40.679
1541.9600, -40.674
1541.9800, -40.664
1542.0000, -40.666
1542.0200, -40.664
1542.0400, -40.655
1542.0600, -40.642
1542.0800, -40.641
1542.1000, -40.631
1542.1200, -40.636
1542.1400, -40.642
1542.1600, -40.640
1542.1800, -40.632
1542.2000, -40.627
1542.2200, -40.625
1542.2400, -40.621
1542.2600, -40.618
1542.2800, -40.604
1542.3000, -40.608
1542.3200, -40.615
1542.3400, -40.602
1542.3600, -40.597
1542.3800, -40.594
1542.4000, -40.584
1542.4200, -40.588
1542.4400, -40.590
1542.4600, -40.575
1542.4800, -40.587
1542.5000, -40.580
1542.5200, -40.571
1542.5400, -40.564
1542.5600, -40.558
1542.5800, -40.555
1542.6000, -40.549
1542.6200, -40.549
1542.6400, -40.530
1542.6600, -40.530
1542.6800, -40.530
1542.7000, -40.533
1542.7200, -40.530
1542.7400, -40.510
1542.7600, -40.512
1542.7800, -40.515
1542.8000, -40.508
1542.8200, -40.501
1542.8400, -40.503
1542.8600, -40.506
1542.8800, -40.496
1542.9000, -40.483
1542.9200, -40.483
1542.9400, -40.473
1542.9600, -40.461
1542.9800, -40.457
1543.0000, -40.450
1543.0200, -40.446
1543.0400, -40.446
1543.0600, -40.450
1543.0800, -40.445
1543.1000, -40.435
1543.1200, -40.430
1543.1400, -40.429
1543.1600, -40.428
1543.1800, -40.415
1543.2000, -40.409
1543.2200, -40.413
1543.2400, -40.410
1543.2600, -40.402
1543.2800, -40.411
1543.3000, -40.402
1543.3200, -40.398
1543.3400, -40.397
1543.3600, -40.397
1543.3800, -40.394
1543.4000, -40.392
1543.4200, -40.387
1543.4400, -40.388
1543.4600, -40.376
1543.4800, -40.375
1543.5000, -40.372
1543.5200, -40.370
1543.5400, -40.365
1543.5600, -40.351
1543.5800, -40.354
1543.6000, -40.353
1543.6200, -40.348
1543.6400, -40.341
1543.6600, -40.335
1543.6800, -40.337
1543.7000, -40.340
1543.7200, -40.342
1543.7400, -40.327
1543.7600, -40.324
1543.7800, -40.320
1543.8000, -40.307
1543.8200, -40.308
1543.8400, -40.307
1543.8600, -40.308
1543.8800, -40.299
1543.9000, -40.308
1543.9200, -40.308
1543.9400, -40.314
1543.9600, -40.296
1543.9800, -40.313
1544.0000, -40.315
1544.0200, -40.311
1544.0400, -40.303
1544.0600, -40.309
1544.0800, -40.307
1544.1000, -40.305
1544.1200, -40.301
1544.1400, -40.295
1544.1600, -40.294
1544.1800, -40.286
1544.2000, -40.287
1544.2200, -40.290
1544.2400, -40.298
1544.2600, -40.293
1544.2800, -40.295
1544.3000, -40.294
1544.3200, -40.293
1544.3400, -40.291
1544.3600, -40.287
1544.3800, -40.282
1544.4000, -40.275
1544.4200, -40.274
1544.4400, -40.273
1544.4600, -40.254
1544.4800, -40.259
1544.5000, -40.262
1544.5200, -40.258
1544.5400, -40.258
1544.5600, -40.243
1544.5800, -40.254
1544.6000, -40.251
1544.6200, -40.245
1544.6400, -40.237
1544.6600, -40.241
1544.6800, -40.243
1544.7000, -40.232
1544.7200, -40.235
1544.7400, -40.241
1544.7600, -40.244
1544.7800, -40.227
1544.8000, -40.233
1544.8200, -40.229
1544.8400, -40.235
1544.8600, -40.240
1544.8800, -40.238
1544.9000, -40.236
1544.9200, -40.228
1544.9400, -40.230
1544.9600, -40.223
1544.9800, -40.233
1545.0000, -40.226
1545.0200, -40.221
1545.0400, -40.222
1545.0600, -40.218
1545.0800, -40.221
1545.1000, -40.225
1545.1200, -40.218
1545.1400, -40.225
1545.1600, -40.223
1545.1800, -40.225
1545.2000, -40.225
1545.2200, -40.227
1545.2400, -40.227
1545.2600, -40.229
1545.2800, -40.216
1545.3000, -40.224
1545.3200, -40.224
1545.3400, -40.229
1545.3600, -40.211
1545.3800, -40.212
1545.4000, -40.213
1545.4200, -40.223
1545.4400, -40.224
1545.4600, -40.212
1545.4800, -40.209
1545.5000, -40.207
1545.5200, -40.207
1545.5400, -40.201
1545.5600, -40.199
1545.5800, -40.196
1545.6000, -40.186
1545.6200, -40.190
1545.6400, -40.205
1545.6600, -40.204
1545.6800, -40.204
1545.7000, -40.195
1545.7200, -40.207
1545.7400, -40.197
1545.7600, -40.209
1545.7800, -40.212
1545.8000, -40.211
1545.8200, -40.206
1545.8400, -40.208
1545.8600, -40.197
1545.8800, -40.208
1545.9000, -40.212
1545.9200, -40.210
1545.9400, -40.210
1545.9600, -40.203
1545.9800, -40.201
1546.0000, -40.207
1546.0200, -40.214
1546.0400, -40.207
1546.0600, -40.205
1546.0800, -40.199
1546.1000, -40.208
1546.1200, -40.209
1546.1400, -40.209
1546.1600, -40.205
1546.1800, -40.192
1546.2000, -40.196
1546.2200, -40.198
1546.2400, -40.199
1546.2600, -40.195
1546.2800, -40.187
1546.3000, -40.194
1546.3200, -40.200
1546.3400, -40.188
1546.3600, -40.185
1546.3800, -40.174
1546.4000, -40.198
1546.4200, -40.195
1546.4400, -40.188
1546.4600, -40.201
1546.4800, -40.198
1546.5000, -40.196
1546.5200, -40.200
1546.5400, -40.199
1546.5600, -40.201
1546.5800, -40.205
1546.6000, -40.198
1546.6200, -40.200
1546.6400, -40.191
1546.6600, -40.209
1546.6800, -40.210
1546.7000, -40.217
1546.7200, -40.211
1546.7400, -40.212
1546.7600, -40.202
1546.7800, -40.207
1546.8000, -40.210
1546.8200, -40.202
1546.8400, -40.201
1546.8600, -40.200
1546.8800, -40.200
1546.9000, -40.198
1546.9200, -40.202
1546.9400, -40.197
1546.9600, -40.201
1546.9800, -40.207
1547.0000, -40.208
1547.0200, -40.203
1547.0400, -40.203
1547.0600, -40.201
1547.0800, -40.200
1547.1000, -40.197
1547.1200, -40.202
1547.1400, -40.198
1547.1600, -40.213
1547.1800, -40.201
1547.2000, -40.209
1547.2200, -40.218
1547.2400, -40.210
1547.2600, -40.217
1547.2800, -40.203
1547.3000, -40.221
1547.3200, -40.214
1547.3400, -40.233
1547.3600, -40.228
1547.3800, -40.227
1547.4000, -40.223
1547.4200, -40.217
1547.4400, -40.223
1547.4600, -40.223
1547.4800, -40.222
1547.5000, -40.210
1547.5200, -40.219
1547.5400, -40.218
1547.5600, -40.210
1547.5800, -40.214
1547.6000, -40.209
1547.6200, -40.222
1547.6400, -40.221
1547.6600, -40.225
1547.6800, -40.225
1547.7000, -40.238
1547.7200, -40.237
1547.7400, -40.241
1547.7600, -40.239
1547.7800, -40.236
1547.8000, -40.238
1547.8200, -40.247
1547.8400, -40.244
1547.8600, -40.249
1547.8800, -40.247
1547.9000, -40.247
1547.9200, -40.251
1547.9400, -40.251
1547.9600, -40.252
1547.9800, -40.247
1548.0000, -40.243
1548.0200, -40.252
1548.0400, -40.252
1548.0600, -40.259
1548.0800, -40.253
1548.1000, -40.253
1548.1200, -40.261
1548.1400, -40.251
1548.1600, -40.253
1548.1800, -40.243
1548.2000, -40.246
1548.2200, -40.252
1548.2400, -40.256
1548.2600, -40.259
1548.2800, -40.261
1548.3000, -40.262
1548.3200, -40.256
1548.3400, -40.261
1548.3600, -40.273
1548.3800, -40.269
1548.4000, -40.263
1548.4200, -40.272
1548.4400, -40.274
1548.4600, -40.280
1548.4800, -40.286
1548.5000, -40.290
1548.5200, -40.291
1548.5400, -40.284
1548.5600, -40.282
1548.5800, -40.291
1548.6000, -40.299
1548.6200, -40.298
1548.6400, -40.299
1548.6600, -40.298
1548.6800, -40.301
1548.7000, -40.304
1548.7200, -40.313
1548.7400, -40.306
1548.7600, -40.318
1548.7800, -40.314
1548.8000, -40.323
1548.8200, -40.327
1548.8400, -40.330
1548.8600, -40.330
1548.8800, -40.328
1548.9000, -40.327
1548.9200, -40.334
1548.9400, -40.330
1548.9600, -40.328
1548.9800, -40.330
1549.0000, -40.325
1549.0200, -40.337
1549.0400, -40.338
1549.0600, -40.340
1549.0800, -40.332
1549.1000, -40.337
1549.1200, -40.337
1549.1400, -40.342
1549.1600, -40.340
1549.1800, -40.344
1549.2000, -40.346
1549.2200, -40.339
1549.2400, -40.350
1549.2600, -40.363
1549.2800, -40.356
1549.3000, -40.353
1549.3200, -40.346
1549.3400, -40.353
1549.3600, -40.348
1549.3800, -40.355
1549.4000, -40.350
1549.4200, -40.360
1549.4400, -40.364
1549.4600, -40.365
1549.4800, -40.372
1549.5000, -40.379
1549.5200, -40.381
1549.5400, -40.377
1549.5600, -40.380
1549.5800, -40.387
1549.6000, -40.384
1549.6200, -40.397
1549.6400, -40.395
1549.6600, -40.399
1549.6800, -40.403
1549.7000, -40.403
1549.7200, -40.407
1549.7400, -40.409
1549.7600, -40.413
1549.7800, -40.401
1549.8000, -40.407
1549.8200, -40.421
1549.8400, -40.426
1549.8600, -40.431
1549.8800, -40.432
1549.9000, -40.434
1549.9200, -40.437
1549.9400, -40.434
1549.9600, -40.430
1549.9800, -40.423
1550.0000, -40.425
1550.0200, -40.443
1550.0400, -40.450
1550.0600, -40.433
1550.0800, -40.440
1550.1000, -40.444
1550.1200, -40.449
1550.1400, -40.448
1550.1600, -40.450
1550.1800, -40.446
1550.2000, -40.446
1550.2200, -40.447
1550.2400, -40.455
1550.2600, -40.464
1550.2800, -40.465
1550.3000, -40.464
1550.3200, -40.481
1550.3400, -40.482
1550.3600, -40.490
1550.3800, -40.489
1550.4000, -40.496
1550.4200, -40.500
1550.4400, -40.499
1550.4600, -40.499
1550.4800, -40.504
1550.5000, -40.506
1550.5200, -40.511
1550.5400, -40.514
1550.5600, -40.513
1550.5800, -40.509
1550.6000, -40.514
1550.6200, -40.527
1550.6400, -40.536
1550.6600, -40.543
1550.6800, -40.541
1550.7000, -40.548
1550.7200, -40.545
1550.7400, -40.538
1550.7600, -40.546
1550.7800, -40.555
1550.8000, -40.553
1550.8200, -40.568
1550.8400, -40.572
1550.8600, -40.578
1550.8800, -40.573
1550.9000, -40.580
1550.9200, -40.592
1550.9400, -40.586
1550.9600, -40.575
1550.9800, -40.580
1551.0000, -40.580
1551.0200, -40.591
1551.0400, -40.594
1551.0600, -40.599
1551.0800, -40.594
1551.1000, -40.596
1551.1200, -40.596
1551.1400, -40.599
1551.1600, -40.604
1551.1800, -40.612
1551.2000, -40.616
1551.2200, -40.618
1551.2400, -40.625
1551.2600, -40.628
1551.2800, -40.630
1551.3000, -40.640
1551.3200, -40.636
1551.3400, -40.638
1551.3600, -40.644
1551.3800, -40.647
1551.4000, -40.650
1551.4200, -40.654
1551.4400, -40.645
1551.4600, -40.648
1551.4800, -40.654
1551.5000, -40.655
1551.5200, -40.656
1551.5400, -40.657
1551.5600, -40.660
1551.5800, -40.655
1551.6000, -40.656
1551.6200, -40.665
1551.6400, -40.661
1551.6600, -40.670
1551.6800, -40.679
1551.7000, -40.678
1551.7200, -40.685
1551.7400, -40.691
1551.7600, -40.692
1551.7800, -40.693
1551.8000, -40.694
1551.8200, -40.703
1551.8400, -40.705
1551.8600, -40.704
1551.8800, -40.709
1551.9000, -40.710
1551.9200, -40.712
1551.9400, -40.714
1551.9600, -40.722
1551.9800, -40.717
1552.0000, -40.724
1552.0200, -40.722
1552.0400, -40.724
1552.0600, -40.732
1552.0800, -40.735
1552.1000, -40.745
1552.1200, -40.752
1552.1400, -40.756
1552.1600, -40.757
1552.1800, -40.759
1552.2000, -40.772
1552.2200, -40.778
1552.2400, -40.779
1552.2600, -40.777
1552.2800, -40.782
1552.3000, -40.783
1552.3200, -40.789
1552.3400, -40.785
1552.3600, -40.788
1552.3800, -40.791
1552.4000, -40.796
1552.4200, -40.798
1552.4400, -40.801
1552.4600, -40.803
1552.4800, -40.797
1552.5000, -40.799
1552.5200, -40.809
1552.5400, -40.804
1552.5600, -40.809
1552.5800, -40.813
1552.6000, -40.818
1552.6200, -40.825
1552.6400, -40.828
1552.6600, -40.831
1552.6800, -40.833
1552.7000, -40.839
1552.7200, -40.848
1552.7400, -40.849
1552.7600, -40.845
1552.7800, -40.845
1552.8000, -40.852
1552.8200, -40.857
1552.8400, -40.863
1552.8600, -40.868
1552.8800, -40.868
1552.9000, -40.871
1552.9200, -40.870
1552.9400, -40.869
1552.9600, -40.873
1552.9800, -40.879
1553.0000, -40.882
1553.0200, -40.883
1553.0400, -40.883
1553.0600, -40.880
1553.0800, -40.888
1553.1000, -40.894
1553.1200, -40.890
1553.1400, -40.894
1553.1600, -40.899
1553.1800, -40.905
1553.2000, -40.906
1553.2200, -40.912
1553.2400, -40.913
1553.2600, -40.915
1553.2800, -40.920
1553.3000, -40.928
1553.3200, -40.938
1553.3400, -40.943
1553.3600, -40.937
1553.3800, -40.930
1553.4000, -40.930
1553.4200, -40.928
1553.4400, -40.925
1553.4600, -40.935
1553.4800, -40.936
1553.5000, -40.937
1553.5200, -40.942
1553.5400, -40.938
1553.5600, -40.942
1553.5800, -40.940
1553.6000, -40.946
1553.6200, -40.952
1553.6400, -40.954
1553.6600, -40.960
1553.6800, -40.955
1553.7000, -40.966
1553.7200, -40.958
1553.7400, -40.966
1553.7600, -40.973
1553.7800, -40.973
1553.8000, -40.965
1553.8200, -40.974
1553.8400, -40.979
1553.8600, -40.984
1553.8800, -40.988
1553.9000, -40.988
1553.9200, -40.994
1553.9400, -40.994
1553.9600, -40.995
1553.9800, -40.996
1554.0000, -41.003
1554.0200, -41.002
1554.0400, -41.011
1554.0600, -41.016
1554.0800, -41.021
1554.1000, -41.027
1554.1200, -41.033
1554.1400, -41.039
1554.1600, -41.033
1554.1800, -41.038
1554.2000, -41.043
1554.2200, -41.049
1554.2400, -41.049
1554.2600, -41.049
1554.2800, -41.044
1554.3000, -41.055
1554.3200, -41.048
1554.3400, -41.043
1554.3600, -41.055
1554.3800, -41.042
1554.4000, -41.046
1554.4200, -41.055
1554.4400, -41.049
1554.4600, -41.055
1554.4800, -41.052
1554.5000, -41.056
1554.5200, -41.057
1554.5400, -41.057
1554.5600, -41.059
1554.5800, -41.054
1554.6000, -41.065
1554.6200, -41.068
1554.6400, -41.070
1554.6600, -41.070
1554.6800, -41.074
1554.7000, -41.068
1554.7200, -41.077
1554.7400, -41.083
1554.7600, -41.085
1554.7800, -41.087
1554.8000, -41.094
1554.8200, -41.098
1554.8400, -41.095
1554.8600, -41.094
1554.8800, -41.108
1554.9000, -41.111
1554.9200, -41.113
1554.9400, -41.111
1554.9600, -41.113
1554.9800, -41.112
1555.0000, -41.116
1555.0200, -41.120
1555.0400, -41.116
1555.0600, -41.114
1555.0800, -41.122
1555.1000, -41.124
1555.1200, -41.126
1555.1400, -41.128
1555.1600, -41.126
1555.1800, -41.135
1555.2000, -41.140
1555.2200, -41.137
1555.2400, -41.132
1555.2600, -41.145
1555.2800, -41.142
1555.3000, -41.155
1555.3200, -41.157
1555.3400, -41.152
1555.3600, -41.155
1555.3800, -41.149
1555.4000, -41.155
1555.4200, -41.157
1555.4400, -41.154
1555.4600, -41.160
1555.4800, -41.154
1555.5000, -41.158
1555.5200, -41.163
1555.5400, -41.172
1555.5600, -41.168
1555.5800, -41.176
1555.6000, -41.172
1555.6200, -41.176
1555.6400, -41.182
1555.6600, -41.183
1555.6800, -41.192
1555.7000, -41.196
1555.7200, -41.193
1555.7400, -41.194
1555.7600, -41.191
1555.7800, -41.197
1555.8000, -41.199
1555.8200, -41.197
1555.8400, -41.203
1555.8600, -41.205
1555.8800, -41.210
1555.9000, -41.214
1555.9200, -41.213
1555.9400, -41.221
1555.9600, -41.224
1555.9800, -41.225
1556.0000, -41.230
1556.0200, -41.234
1556.0400, -41.240
1556.0600, -41.249
1556.0800, -41.252
1556.1000, -41.252
1556.1200, -41.249
1556.1400, -41.261
1556.1600, -41.256
1556.1800, -41.259
1556.2000, -41.268
1556.2200, -41.264
1556.2400, -41.272
1556.2600, -41.271
1556.2800, -41.264
1556.3000, -41.269
1556.3200, -41.270
1556.3400, -41.273
1556.3600, -41.277
1556.3800, -41.280
1556.4000, -41.277
1556.4200, -41.285
1556.4400, -41.294
1556.4600, -41.293
1556.4800, -41.291
1556.5000, -41.296
1556.5200, -41.302
1556.5400, -41.297
1556.5600, -41.304
1556.5800, -41.310
1556.6000, -41.309
1556.6200, -41.312
1556.6400, -41.316
1556.6600, -41.322
1556.6800, -41.328
1556.7000, -41.331
1556.7200, -41.333
1556.7400, -41.332
1556.7600, -41.337
1556.7800, -41.342
1556.8000, -41.349
1556.8200, -41.353
1556.8400, -41.354
1556.8600, -41.358
1556.8800, -41.368
1556.9000, -41.374
1556.9200, -41.376
1556.9400, -41.383
1556.9600, -41.376
1556.9800, -41.372
1557.0000, -41.382
1557.0200, -41.376
1557.0400, -41.386
1557.0600, -41.381
1557.0800, -41.382
1557.1000, -41.389
1557.1200, -41.381
1557.1400, -41.392
1557.1600, -41.395
1557.1800, -41.396
1557.2000, -41.401
1557.2200, -41.409
1557.2400, -41.416
1557.2600, -41.412
1557.2800, -41.416
1557.3000, -41.420
1557.3200, -41.433
1557.3400, -41.430
1557.3600, -41.438
1557.3800, -41.438
1557.4000, -41.443
1557.4200, -41.455
1557.4400, -41.453
1557.4600, -41.456
1557.4800, -41.471
1557.5000, -41.484
1557.5200, -41.487
1557.5400, -41.492
1557.5600, -41.493
1557.5800, -41.501
1557.6000, -41.503
1557.6200, -41.509
1557.6400, -41.509
1557.6600, -41.518
1557.6800, -41.525
1557.7000, -41.529
1557.7200, -41.538
1557.7400, -41.542
1557.7600, -41.550
1557.7800, -41.561
1557.8000, -41.566
1557.8200, -41.569
1557.8400, -41.572
1557.8600, -41.565
1557.8800, -41.564
1557.9000, -41.563
1557.9200, -41.574
1557.9400, -41.564
1557.9600, -41.574
1557.9800, -41.583
1558.0000, -41.586
1558.0200, -41.592
1558.0400, -41.600
1558.0600, -41.605
1558.0800, -41.603
1558.1000, -41.612
1558.1200, -41.624
1558.1400, -41.629
1558.1600, -41.639
1558.1800, -41.640
1558.2000, -41.643
1558.2200, -41.642
1558.2400, -41.649
1558.2600, -41.653
1558.2800, -41.660
1558.3000, -41.667
1558.3200, -41.667
1558.3400, -41.675
1558.3600, -41.691
1558.3800, -41.697
1558.4000, -41.699
1558.4200, -41.707
1558.4400, -41.708
1558.4600, -41.718
1558.4800, -41.721
1558.5000, -41.727
1558.5200, -41.727
1558.5400, -41.731
1558.5600, -41.745
1558.5800, -41.752
1558.6000, -41.757
1558.6200, -41.760
1558.6400, -41.769
1558.6600, -41.785
1558.6800, -41.791
1558.7000, -41.800
1558.7200, -41.805
1558.7400, -41.809
1558.7600, -41.814
1558.7800, -41.815
1558.8000, -41.819
1558.8200, -41.825
1558.8400, -41.832
1558.8600, -41.843
1558.8800, -41.848
1558.9000, -41.847
1558.9200, -41.863
1558.9400, -41.869
1558.9600, -41.879
1558.9800, -41.881
1559.0000, -41.902
1559.0200, -41.907
1559.0400, -41.907
1559.0600, -41.921
1559.0800, -41.926
1559.1000, -41.930
1559.1200, -41.938
1559.1400, -41.947
1559.1600, -41.956
1559.1800, -41.968
1559.2000, -41.969
1559.2200, -41.981
1559.2400, -41.985
1559.2600, -42.007
1559.2800, -42.014
1559.3000, -42.017
1559.3200, -42.022
1559.3400, -42.034
1559.3600, -42.044
1559.3800, -42.051
1559.4000, -42.053
1559.4200, -42.061
1559.4400, -42.067
1559.4600, -42.077
1559.4800, -42.093
1559.5000, -42.100
1559.5200, -42.115
1559.5400, -42.131
1559.5600, -42.137
1559.5800, -42.141
1559.6000, -42.153
1559.6200, -42.161
1559.6400, -42.170
1559.6600, -42.174
1559.6800, -42.177
1559.7000, -42.191
1559.7200, -42.204
1559.7400, -42.207
1559.7600, -42.215
1559.7800, -42.221
1559.8000, -42.233
1559.8200, -42.239
1559.8400, -42.254
1559.8600, -42.252
1559.8800, -42.263
1559.9000, -42.273
1559.9200, -42.282
1559.9400, -42.291
1559.9600, -42.302
1559.9800, -42.313
1560.0000, -42.321
1560.0200, -42.332
1560.0400, -42.344
1560.0600, -42.353
1560.0800, -42.362
1560.1000, -42.374
1560.1200, -42.372
1560.1400, -42.385
1560.1600, -42.408
1560.1800, -42.419
1560.2000, -42.428
1560.2200, -42.441
1560.2400, -42.454
1560.2600, -42.466
1560.2800, -42.476
1560.3000, -42.492
1560.3200, -42.503
1560.3400, -42.513
1560.3600, -42.521
1560.3800, -42.538
1560.4000, -42.542
1560.4200, -42.556
1560.4400, -42.564
1560.4600, -42.563
1560.4800, -42.582
1560.5000, -42.606
1560.5200, -42.610
1560.5400, -42.625
1560.5600, -42.636
1560.5800, -42.641
1560.6000, -42.662
1560.6200, -42.669
1560.6400, -42.687
1560.6600, -42.702
1560.6800, -42.715
1560.7000, -42.728
1560.7200, -42.736
1560.7400, -42.746
1560.7600, -42.756
1560.7800, -42.761
1560.8000, -42.776
1560.8200, -42.787
1560.8400, -42.801
1560.8600, -42.804
1560.8800, -42.817
1560.9000, -42.832
1560.9200, -42.843
1560.9400, -42.855
1560.9600, -42.867
1560.9800, -42.881
1561.0000, -42.881
1561.0200, -42.894
1561.0400, -42.917
1561.0600, -42.933
1561.0800, -42.946
1561.1000, -42.958
1561.1200, -42.968
1561.1400, -42.980
1561.1600, -42.993
1561.1800, -43.008
1561.2000, -43.016
1561.2200, -43.031
1561.2400, -43.045
1561.2600, -43.061
1561.2800, -43.071
1561.3000, -43.086
1561.3200, -43.106
1561.3400, -43.122
1561.3600, -43.138
1561.3800, -43.152
1561.4000, -43.154
1561.4200, -43.170
1561.4400, -43.189
1561.4600, -43.200
1561.4800, -43.217
1561.5000, -43.230
1561.5200, -43.246
1561.5400, -43.261
1561.5600, -43.278
1561.5800, -43.294
1561.6000, -43.299
1561.6200, -43.315
1561.6400, -43.332
1561.6600, -43.350
1561.6800, -43.363
1561.7000, -43.376
1561.7200, -43.390
1561.7400, -43.409
1561.7600, -43.422
1561.7800, -43.439
1561.8000, -43.453
1561.8200, -43.465
1561.8400, -43.475
1561.8600, -43.491
1561.8800, -43.499
1561.9000, -43.510
1561.9200, -43.534
1561.9400, -43.556
1561.9600, -43.567
1561.9800, -43.582
1562.0000, -43.597
1562.0200, -43.605
1562.0400, -43.629
1562.0600, -43.642
1562.0800, -43.660
1562.1000, -43.678
1562.1200, -43.695
1562.1400, -43.707
1562.1600, -43.726
1562.1800, -43.739
1562.2000, -43.757
1562.2200, -43.782
1562.2400, -43.799
1562.2600, -43.809
1562.2800, -43.824
1562.3000, -43.837
1562.3200, -43.852
1562.3400, -43.863
1562.3600, -43.883
1562.3800, -43.898
1562.4000, -43.912
1562.4200, -43.929
1562.4400, -43.949
1562.4600, -43.965
1562.4800, -43.977
1562.5000, -43.995
1562.5200, -44.015
1562.5400, -44.026
1562.5600, -44.041
1562.5800, -44.057
1562.6000, -44.072
1562.6200, -44.092
1562.6400, -44.106
1562.6600, -44.124
1562.6800, -44.141
1562.7000, -44.152
1562.7200, -44.170
1562.7400, -44.183
1562.7600, -44.201
1562.7800, -44.209
1562.8000, -44.233
1562.8200, -44.256
1562.8400, -44.274
1562.8600, -44.291
1562.8800, -44.309
1562.9000, -44.325
1562.9200, -44.344
1562.9400, -44.360
1562.9600, -44.378
1562.9800, -44.394
1563.0000, -44.413
1563.0200, -44.431
1563.0400, -44.450
1563.0600, -44.465
1563.0800, -44.487
1563.1000, -44.512
1563.1200, -44.531
1563.1400, -44.546
1563.1600, -44.555
1563.1800, -44.573
1563.2000, -44.587
1563.2200, -44.606
1563.2400, -44.621
1563.2600, -44.638
1563.2800, -44.649
1563.3000, -44.671
1563.3200, -44.691
1563.3400, -44.711
1563.3600, -44.719
1563.3800, -44.744
1563.4000, -44.761
1563.4200, -44.783
1563.4400, -44.793
1563.4600, -44.815
1563.4800, -44.832
1563.5000, -44.847
1563.5200, -44.864
1563.5400, -44.882
1563.5600, -44.904
1563.5800, -44.916
1563.6000, -44.935
1563.6200, -44.949
1563.6400, -44.973
1563.6600, -44.996
1563.6800, -45.015
1563.7000, -45.032
1563.7200, -45.052
1563.7400, -45.072
1563.7600, -45.090
1563.7800, -45.108
1563.8000, -45.127
1563.8200, -45.141
1563.8400, -45.162
1563.8600, -45.181
1563.8800, -45.202
1563.9000, -45.219
1563.9200, -45.241
1563.9400, -45.257
1563.9600, -45.277
1563.9800, -45.302
1564.0000, -45.323
1564.0200, -45.339
1564.0400, -45.350
1564.0600, -45.365
1564.0800, -45.385
1564.1000, -45.398
1564.1200, -45.418
1564.1400, -45.431
1564.1600, -45.449
1564.1800, -45.466
1564.2000, -45.486
1564.2200, -45.511
1564.2400, -45.528
1564.2600, -45.548
1564.2800, -45.564
1564.3000, -45.587
1564.3200, -45.599
1564.3400, -45.619
1564.3600, -45.639
1564.3800, -45.658
1564.4000, -45.679
1564.4200, -45.695
1564.4400, -45.720
1564.4600, -45.734
1564.4800, -45.757
1564.5000, -45.772
1564.5200, -45.790
1564.5400, -45.807
1564.5600, -45.830
1564.5800, -45.859
1564.6000, -45.880
1564.6200, -45.900
1564.6400, -45.920
1564.6600, -45.936
1564.6800, -45.956
1564.7000, -45.975
1564.7200, -45.992
1564.7400, -46.015
1564.7600, -46.036
1564.7800, -46.054
1564.8000, -46.074
1564.8200, -46.091
1564.8400, -46.111
1564.8600, -46.138
1564.8800, -46.157
1564.9000, -46.175
1564.9200, -46.193
1564.9400, -46.207
1564.9600, -46.231
1564.9800, -46.248
1565.0000, -46.269
1565.0200, -46.286
1565.0400, -46.303
1565.0600, -46.325
1565.0800, -46.349
1565.1000, -46.366
1565.1200, -46.384
1565.1400, -46.401
1565.1600, -46.427
1565.1800, -46.448
1565.2000, -46.459
1565.2200, -46.480
1565.2400, -46.501
1565.2600, -46.519
1565.2800, -46.539
1565.3000, -46.563
1565.3200, -46.583
1565.3400, -46.599
1565.3600, -46.621
1565.3800, -46.635
1565.4000, -46.655
1565.4200, -46.672
1565.4400, -46.697
1565.4600, -46.726
1565.4800, -46.744
1565.5000, -46.767
1565.5200, -46.789
1565.5400, -46.806
1565.5600, -46.826
1565.5800, -46.849
1565.6000, -46.867
1565.6200, -46.883
1565.6400, -46.906
1565.6600, -46.923
1565.6800, -46.941
1565.7000, -46.962
1565.7200, -46.987
1565.7400, -47.010
1565.7600, -47.029
1565.7800, -47.045
1565.8000, -47.066
1565.8200, -47.081
1565.8400, -47.100
1565.8600, -47.117
1565.8800, -47.140
1565.9000, -47.165
1565.9200, -47.181
1565.9400, -47.200
1565.9600, -47.221
1565.9800, -47.239
1566.0000, -47.260
1566.0200, -47.279
1566.0400, -47.302
1566.0600, -47.320
1566.0800, -47.336
1566.1000, -47.364
1566.1200, -47.379
1566.1400, -47.392
1566.1600, -47.415
1566.1800, -47.434
1566.2000, -47.455
1566.2200, -47.483
1566.2400, -47.501
1566.2600, -47.517
1566.2800, -47.530
1566.3000, -47.557
1566.3200, -47.581
1566.3400, -47.602
1566.3600, -47.620
1566.3800, -47.640
1566.4000, -47.660
1566.4200, -47.678
1566.4400, -47.705
1566.4600, -47.720
1566.4800, -47.737
1566.5000, -47.757
1566.5200, -47.786
1566.5400, -47.801
1566.5600, -47.822
1566.5800, -47.843
1566.6000, -47.861
1566.6200, -47.883
1566.6400, -47.903
1566.6600, -47.926
1566.6800, -47.941
1566.7000, -47.962
1566.7200, -47.981
1566.7400, -48.001
1566.7600, -48.022
1566.7800, -48.039
1566.8000, -48.051
1566.8200, -48.078
1566.8400, -48.100
1566.8600, -48.120
1566.8800, -48.138
1566.9000, -48.152
1566.9200, -48.177
1566.9400, -48.192
1566.9600, -48.212
1566.9800, -48.239
1567.0000, -48.255
1567.0200, -48.272
1567.0400, -48.298
1567.0600, -48.319
1567.0800, -48.335
1567.1000, -48.355
1567.1200, -48.371
1567.1400, -48.393
1567.1600, -48.417
1567.1800, -48.445
1567.2000, -48.459
1567.2200, -48.481
1567.2400, -48.504
1567.2600, -48.523
1567.2800, -48.544
1567.3000, -48.560
1567.3200, -48.582
1567.3400, -48.602
1567.3600, -48.623
1567.3800, -48.640
1567.4000, -48.659
1567.4200, -48.681
1567.4400, -48.704
1567.4600, -48.719
1567.4800, -48.740
1567.5000, -48.765
1567.5200, -48.783
1567.5400, -48.807
1567.5600, -48.819
1567.5800, -48.842
1567.6000, -48.869
1567.6200, -48.887
1567.6400, -48.905
1567.6600, -48.923
1567.6800, -48.941
1567.7000, -48.967
1567.7200, -48.983
1567.7400, -48.995
1567.7600, -49.022
1567.7800, -49.033
1567.8000, -49.064
1567.8200, -49.072
1567.8400, -49.099
1567.8600, -49.115
1567.8800, -49.141
1567.9000, -49.154
1567.9200, -49.179
1567.9400, -49.197
1567.9600, -49.218
1567.9800, -49.234
1568.0000, -49.247
1568.0200, -49.268
1568.0400, -49.294
1568.0600, -49.311
1568.0800, -49.336
1568.1000, -49.355
1568.1200, -49.374
1568.1400, -49.394
1568.1600, -49.413
1568.1800, -49.435
1568.2000, -49.455
1568.2200, -49.473
1568.2400, -49.495
1568.2600, -49.514
1568.2800, -49.533
1568.3000, -49.556
1568.3200, -49.574
1568.3400, -49.595
1568.3600, -49.617
1568.3800, -49.639
1568.4000, -49.654
1568.4200, -49.682
1568.4400, -49.713
1568.4600, -49.717
1568.4800, -49.731
1568.5000, -49.756
1568.5200, -49.774
1568.5400, -49.790
1568.5600, -49.807
1568.5800, -49.829
1568.6000, -49.846
1568.6200, -49.865
1568.6400, -49.886
1568.6600, -49.906
1568.6800, -49.925
1568.7000, -49.946
1568.7200, -49.969
1568.7400, -49.989
1568.7600, -50.004
1568.7800, -50.023
1568.8000, -50.045
1568.8200, -50.067
1568.8400, -50.087
1568.8600, -50.100
1568.8800, -50.119
1568.9000, -50.142
1568.9200, -50.164
1568.9400, -50.183
1568.9600, -50.200
1568.9800, -50.222
1569.0000, -50.239
1569.0200, -50.261
1569.0400, -50.278
1569.0600, -50.302
1569.0800, -50.320
1569.1000, -50.336
1569.1200, -50.363
1569.1400, -50.381
1569.1600, -50.399
1569.1800, -50.419
1569.2000, -50.441
1569.2200, -50.457
1569.2400, -50.484
1569.2600, -50.500
1569.2800, -50.523
1569.3000, -50.536
1569.3200, -50.553
1569.3400, -50.571
1569.3600, -50.591
1569.3800, -50.613
1569.4000, -50.625
1569.4200, -50.646
1569.4400, -50.669
1569.4600, -50.688
1569.4800, -50.702
1569.5000, -50.721
1569.5200, -50.736
1569.5400, -50.750
1569.5600, -50.774
1569.5800, -50.796
1569.6000, -50.812
1569.6200, -50.837
1569.6400, -50.853
1569.6600, -50.871
1569.6800, -50.892
1569.7000, -50.911
1569.7200, -50.933
1569.7400, -50.944
1569.7600, -50.968
1569.7800, -50.986
1569.8000, -51.003
1569.8200, -51.029
1569.8400, -51.052
1569.8600, -51.067
1569.8800, -51.086
1569.9000, -51.108
1569.9200, -51.122
1569.9400, -51.144
1569.9600, -51.159
1569.9800, -51.176
1570.0000, -51.199
1570.0200, -51.215
1570.0400, -51.230
1570.0600, -51.258
1570.0800, -51.274
1570.1000, -51.291
1570.1200, -51.316
1570.1400, -51.333
1570.1600, -51.351
1570.1800, -51.369
1570.2000, -51.382
1570.2200, -51.410
1570.2400, -51.423
1570.2600, -51.446
1570.2800, -51.463
1570.3000, -51.476
1570.3200, -51.501
1570.3400, -51.510
1570.3600, -51.533
1570.3800, -51.557
1570.4000, -51.565
1570.4200, -51.587
1570.4400, -51.605
1570.4600, -51.619
1570.4800, -51.644
1570.5000, -51.670
1570.5200, -51.681
1570.5400, -51.697
1570.5600, -51.712
1570.5800, -51.733
1570.6000, -51.749
1570.6200, -51.767
1570.6400, -51.790
1570.6600, -51.807
1570.6800, -51.823
1570.7000, -51.848
1570.7200, -51.863
1570.7400, -51.892
1570.7600, -51.907
1570.7800, -51.930
1570.8000, -51.946
1570.8200, -51.965
1570.8400, -51.977
1570.8600, -52.006
1570.8800, -52.020
1570.9000, -52.029
1570.9200, -52.056
1570.9400, -52.073
1570.9600, -52.088
1570.9800, -52.113
1571.0000, -52.129
1571.0200, -52.147
1571.0400, -52.164
1571.0600, -52.180
1571.0800, -52.197
1571.1000, -52.208
1571.1200, -52.229
1571.1400, -52.252
1571.1600, -52.263
1571.1800, -52.281
1571.2000, -52.309
1571.2200, -52.324
1571.2400, -52.337
1571.2600, -52.354
1571.2800, -52.370
1571.3000, -52.396
1571.3200, -52.413
1571.3400, -52.429
1571.3600, -52.450
1571.3800, -52.473
1571.4000, -52.479
1571.4200, -52.498
1571.4400, -52.523
1571.4600, -52.537
1571.4800, -52.554
1571.5000, -52.573
1571.5200, -52.593
1571.5400, -52.615
1571.5600, -52.630
1571.5800, -52.651
1571.6000, -52.670
1571.6200, -52.679
1571.6400, -52.695
1571.6600, -52.719
1571.6800, -52.727
1571.7000, -52.752
1571.7200, -52.775
1571.7400, -52.788
1571.7600, -52.805
1571.7800, -52.821
1571.8000, -52.836
1571.8200, -52.854
1571.8400, -52.880
1571.8600, -52.898
1571.8800, -52.914
1571.9000, -52.929
1571.9200, -52.943
1571.9400, -52.960
1571.9600, -52.980
1571.9800, -52.987
1572.0000, -53.016
1572.0200, -53.034
1572.0400, -53.048
1572.0600, -53.065
1572.0800, -53.081
1572.1000, -53.099
1572.1200, -53.123
1572.1400, -53.132
1572.1600, -53.157
1572.1800, -53.167
1572.2000, -53.185
1572.2200, -53.198
1572.2400, -53.222
1572.2600, -53.233
1572.2800, -53.251
1572.3000, -53.270
1572.3200, -53.289
1572.3400, -53.304
1572.3600, -53.314
1572.3800, -53.344
1572.4000, -53.352
1572.4200, -53.366
1572.4400, -53.389
1572.4600, -53.408
1572.4800, -53.425
1572.5000, -53.439
1572.5200, -53.457
1572.5400, -53.476
1572.5600, -53.490
1572.5800, -53.498
1572.6000, -53.529
1572.6200, -53.548
1572.6400, -53.551
1572.6600, -53.573
1572.6800, -53.586
1572.7000, -53.601
1572.7200, -53.624
1572.7400, -53.636
1572.7600, -53.659
1572.7800, -53.663
1572.8000, -53.689
1572.8200, -53.699
1572.8400, -53.714
1572.8600, -53.731
1572.8800, -53.752
1572.9000, -53.762
1572.9200, -53.787
1572.9400, -53.804
1572.9600, -53.807
1572.9800, -53.824
1573.0000, -53.853
1573.0200, -53.860
1573.0400, -53.884
1573.0600, -53.892
1573.0800, -53.914
1573.1000, -53.935
1573.1200, -53.947
1573.1400, -53.958
1573.1600, -53.978
1573.1800, -53.994
1573.2000, -54.015
1573.2200, -54.018
1573.2400, -54.038
1573.2600, -54.053
1573.2800, -54.067
1573.3000, -54.081
1573.3200, -54.099
1573.3400, -54.122
1573.3600, -54.138
1573.3800, -54.156
1573.4000, -54.164
1573.4200, -54.178
1573.4400, -54.197
1573.4600, -54.210
1573.4800, -54.227
1573.5000, -54.255
1573.5200, -54.245
1573.5400, -54.279
1573.5600, -54.301
1573.5800, -54.315
1573.6000, -54.325
1573.6200, -54.350
1573.6400, -54.358
1573.6600, -54.384
1573.6800, -54.387
1573.7000, -54.409
1573.7200, -54.412
1573.7400, -54.434
1573.7600, -54.441
1573.7800, -54.457
1573.8000, -54.482
1573.8200, -54.494
1573.8400, -54.495
1573.8600, -54.521
1573.8800, -54.535
1573.9000, -54.549
1573.9200, -54.561
1573.9400, -54.581
1573.9600, -54.591
1573.9800, -54.608
1574.0000, -54.619
1574.0200, -54.637
1574.0400, -54.652
1574.0600, -54.672
1574.0800, -54.682
1574.1000, -54.703
1574.1200, -54.717
1574.1400, -54.734
1574.1600, -54.751
1574.1800, -54.759
1574.2000, -54.773
1574.2200, -54.789
1574.2400, -54.815
1574.2600, -54.826
1574.2800, -54.830
1574.3000, -54.850
1574.3200, -54.871
1574.3400, -54.878
1574.3600, -54.892
1574.3800, -54.906
1574.4000, -54.924
1574.4200, -54.944
1574.4400, -54.951
1574.4600, -54.974
1574.4800, -54.997
1574.5000, -55.000
1574.5200, -55.013
1574.5400, -55.023
1574.5600, -55.040
1574.5800, -55.054
1574.6000, -55.069
1574.6200, -55.089
1574.6400, -55.099
1574.6600, -55.117
1574.6800, -55.128
1574.7000, -55.138
1574.7200, -55.154
1574.7400, -55.173
1574.7600, -55.181
1574.7800, -55.196
1574.8000, -55.221
1574.8200, -55.228
1574.8400, -55.245
1574.8600, -55.250
1574.8800, -55.268
1574.9000, -55.283
1574.9200, -55.306
1574.9400, -55.308
1574.9600, -55.326
1574.9800, -55.335
1575.0000, -55.352
1575.0200, -55.362
1575.0400, -55.381
1575.0600, -55.401
1575.0800, -55.422
1575.1000, -55.418
1575.1200, -55.429
1575.1400, -55.456
1575.1600, -55.473
1575.1800, -55.492
1575.2000, -55.489
1575.2200, -55.512
1575.2400, -55.522
1575.2600, -55.539
1575.2800, -55.553
1575.3000, -55.577
1575.3200, -55.585
1575.3400, -55.596
1575.3600, -55.616
1575.3800, -55.621
1575.4000, -55.635
1575.4200, -55.652
1575.4400, -55.657
1575.4600, -55.664
1575.4800, -55.710
1575.5000, -55.700
1575.5200, -55.703
1575.5400, -55.730
1575.5600, -55.731
1575.5800, -55.750
1575.6000, -55.760
1575.6200, -55.775
1575.6400, -55.792
1575.6600, -55.804
1575.6800, -55.827
1575.7000, -55.833
1575.7200, -55.847
1575.7400, -55.846
1575.7600, -55.869
1575.7800, -55.890
1575.8000, -55.902
1575.8200, -55.903
1575.8400, -55.919
1575.8600, -55.926
1575.8800, -55.951
1575.9000, -55.979
1575.9200, -55.965
1575.9400, -55.991
1575.9600, -56.012
1575.9800, -56.005
1576.0000, -56.033
1576.0200, -56.043
1576.0400, -56.069
1576.0600, -56.059
1576.0800, -56.079
1576.1000, -56.093
1576.1200, -56.104
1576.1400, -56.121
1576.1600, -56.127
1576.1800, -56.143
1576.2000, -56.165
1576.2200, -56.166
1576.2400, -56.184
1576.2600, -56.184
1576.2800, -56.211
1576.3000, -56.209
1576.3200, -56.235
1576.3400, -56.245
1576.3600, -56.232
1576.3800, -56.264
1576.4000, -56.280
1576.4200, -56.279
1576.4400, -56.298
1576.4600, -56.319
1576.4800, -56.308
1576.5000, -56.343
1576.5200, -56.352
1576.5400, -56.353
1576.5600, -56.375
1576.5800, -56.388
1576.6000, -56.375
1576.6200, -56.402
1576.6400, -56.421
1576.6600, -56.422
1576.6800, -56.443
1576.7000, -56.450
1576.7200, -56.477
1576.7400, -56.470
1576.7600, -56.509
1576.7800, -56.482
1576.8000, -56.517
1576.8200, -56.528
1576.8400, -56.535
1576.8600, -56.550
1576.8800, -56.557
1576.9000, -56.570
1576.9200, -56.584
1576.9400, -56.584
1576.9600, -56.613
1576.9800, -56.619
1577.0000, -56.631
1577.0200, -56.643
1577.0400, -56.657
1577.0600, -56.671
1577.0800, -56.682
1577.1000, -56.694
1577.1200, -56.696
1577.1400, -56.723
1577.1600, -56.722
1577.1800, -56.742
1577.2000, -56.731
1577.2200, -56.756
1577.2400, -56.752
1577.2600, -56.755
1577.2800, -56.790
1577.3000, -56.805
1577.3200, -56.802
1577.3400, -56.821
1577.3600, -56.823
1577.3800, -56.847
1577.4000, -56.853
1577.4200, -56.878
1577.4400, -56.874
1577.4600, -56.881
1577.4800, -56.910
1577.5000, -56.908
1577.5200, -56.916
1577.5400, -56.948
1577.5600, -56.940
1577.5800, -56.944
1577.6000, -56.974
1577.6200, -56.973
1577.6400, -56.980
1577.6600, -57.008
1577.6800, -57.005
1577.7000, -57.026
1577.7200, -57.044
1577.7400, -57.038
1577.7600, -57.056
1577.7800, -57.064
1577.8000, -57.083
1577.8200, -57.078
1577.8400, -57.114
1577.8600, -57.108
1577.8800, -57.125
1577.9000, -57.116
1577.9200, -57.148
1577.9400, -57.163
1577.9600, -57.147
1577.9800, -57.169
1578.0000, -57.202
1578.0200, -57.188
1578.0400, -57.202
1578.0600, -57.207
1578.0800, -57.224
1578.1000, -57.227
1578.1200, -57.256
1578.1400, -57.257
1578.1600, -57.266
1578.1800, -57.279
1578.2000, -57.283
1578.2200, -57.300
1578.2400, -57.312
1578.2600, -57.312
1578.2800, -57.329
1578.3000, -57.337
1578.3200, -57.349
1578.3400, -57.365
1578.3600, -57.374
1578.3800, -57.385
1578.4000, -57.384
1578.4200, -57.392
1578.4400, -57.425
1578.4600, -57.426
1578.4800, -57.431
1578.5000, -57.430
1578.5200, -57.454
1578.5400, -57.463
1578.5600, -57.468
1578.5800, -57.479
1578.6000, -57.487
1578.6200, -57.513
1578.6400, -57.515
1578.6600, -57.522
1578.6800, -57.533
1578.7000, -57.544
1578.7200, -57.555
1578.7400, -57.565
1578.7600, -57.575
1578.7800, -57.585
1578.8000, -57.586
1578.8200, -57.614
1578.8400, -57.608
1578.8600, -57.642
1578.8800, -57.626
1578.9000, -57.636
1578.9200, -57.658
1578.9400, -57.668
1578.9600, -57.680
1578.9800, -57.677
1579.0000, -57.701
1579.0200, -57.717
1579.0400, -57.689
1579.0600, -57.716
1579.0800, -57.723
1579.1000, -57.736
1579.1200, -57.757
1579.1400, -57.745
1579.1600, -57.773
1579.1800, -57.781
1579.2000, -57.802
1579.2200, -57.785
1579.2400, -57.795
1579.2600, -57.805
1579.2800, -57.827
1579.3000, -57.839
1579.3200, -57.853
1579.3400, -57.847
1579.3600, -57.874
1579.3800, -57.879
1579.4000, -57.887
1579.4200, -57.895
1579.4400, -57.913
1579.4600, -57.903
1579.4800, -57.923
1579.5000, -57.932
1579.5200, -57.943
1579.5400, -57.962
1579.5600, -57.961
1579.5800, -57.947
1579.6000, -57.975
1579.6200, -57.986
1579.6400, -58.016
1579.6600, -57.990
1579.6800, -58.025
1579.7000, -58.028
1579.7200, -58.027
1579.7400, -58.030
1579.7600, -58.051
1579.7800, -58.057
1579.8000, -58.061
1579.8200, -58.071
1579.8400, -58.090
1579.8600, -58.084
1579.8800, -58.114
1579.9000, -58.084
1579.9200, -58.157
1579.9400, -58.106
1579.9600, -58.129
1579.9800, -58.151
1580.0000, -58.144
1580.0200, -58.168
1580.0400, -58.179
1580.0600, -58.191
1580.0800, -58.179
1580.1000, -58.191
1580.1200, -58.202
1580.1400, -58.210
1580.1600, -58.227
1580.1800, -58.230
1580.2000, -58.231
1580.2200, -58.266
1580.2400, -58.258
1580.2600, -58.282
1580.2800, -58.255
1580.3000, -58.300
1580.3200, -58.285
1580.3400, -58.291
1580.3600, -58.300
1580.3800, -58.329
1580.4000, -58.334
1580.4200, -58.341
1580.4400, -58.329
1580.4600, -58.348
1580.4800, -58.365
1580.5000, -58.349
1580.5200, -58.377
1580.5400, -58.402
1580.5600, -58.366
1580.5800, -58.424
1580.6000, -58.391
1580.6200, -58.416
1580.6400, -58.424
1580.6600, -58.430
1580.6800, -58.434
1580.7000, -58.444
1580.7200, -58.457
1580.7400, -58.462
1580.7600, -58.485
1580.7800, -58.470
1580.8000, -58.486
1580.8200, -58.508
1580.8400, -58.498
1580.8600, -58.518
1580.8800, -58.516
1580.9000, -58.509
1580.9200, -58.546
1580.9400, -58.547
1580.9600, -58.560
1580.9800, -58.553
1581.0000, -58.549
1581.0200, -58.582
1581.0400, -58.584
1581.0600, -58.593
1581.0800, -58.603
1581.1000, -58.603
1581.1200, -58.631
1581.1400, -58.625
1581.1600, -58.643
1581.1800, -58.644
1581.2000, -58.618
1581.2200, -58.658
1581.2400, -58.670
1581.2600, -58.670
1581.2800, -58.669
1581.3000, -58.685
1581.3200, -58.690
1581.3400, -58.701
1581.3600, -58.698
1581.3800, -58.701
1581.4000, -58.761
1581.4200, -58.722
1581.4400, -58.739
1581.4600, -58.750
1581.4800, -58.749
1581.5000, -58.742
1581.5200, -58.755
1581.5400, -58.789
1581.5600, -58.785
1581.5800, -58.796
1581.6000, -58.815
1581.6200, -58.796
1581.6400, -58.820
1581.6600, -58.811
1581.6800, -58.823
1581.7000, -58.834
1581.7200, -58.822
1581.7400, -58.864
1581.7600, -58.845
1581.7800, -58.851
1581.8000, -58.890
1581.8200, -58.857
1581.8400, -58.891
1581.8600, -58.905
1581.8800, -58.894
1581.9000, -58.911
1581.9200, -58.916
1581.9400, -58.922
1581.9600, -58.944
1581.9800, -58.922
1582.0000, -58.967
1582.0200, -58.962
1582.0400, -58.932
1582.0600, -58.988
1582.0800, -58.976
1582.1000, -58.981
1582.1200, -58.971
1582.1400, -59.025
1582.1600, -58.997
1582.1800, -59.001
1582.2000, -59.048
1582.2200, -59.025
1582.2400, -59.024
1582.2600, -59.057
1582.2800, -59.026
1582.3000, -59.076
1582.3200, -59.068
1582.3400, -59.085
1582.3600, -59.048
1582.3800, -59.126
1582.4000, -59.061
1582.4200, -59.103
1582.4400, -59.100
1582.4600, -59.087
1582.4800, -59.106
1582.5000, -59.124
1582.5200, -59.126
1582.5400, -59.136
1582.5600, -59.177
1582.5800, -59.126
1582.6000, -59.173
1582.6200, -59.158
1582.6400, -59.143
1582.6600, -59.170
1582.6800, -59.190
1582.7000, -59.200
1582.7200, -59.192
1582.7400, -59.220
1582.7600, -59.194
1582.7800, -59.216
1582.8000, -59.232
1582.8200, -59.241
1582.8400, -59.245
1582.8600, -59.224
1582.8800, -59.270
1582.9000, -59.256
1582.9200, -59.255
1582.9400, -59.288
1582.9600, -59.274
1582.9800, -59.285
1583.0000, -59.292
1583.0200, -59.307
1583.0400, -59.299
1583.0600, -59.321
1583.0800, -59.333
1583.1000, -59.314
1583.1200, -59.342
1583.1400, -59.373
1583.1600, -59.345
1583.1800, -59.363
1583.2000, -59.357
1583.2200, -59.354
1583.2400, -59.379
1583.2600, -59.374
1583.2800, -59.383
1583.3000, -59.402
1583.3200, -59.397
1583.3400, -59.393
1583.3600, -59.419
1583.3800, -59.413
1583.4000, -59.449
1583.4200, -59.415
1583.4400, -59.472
1583.4600, -59.451
1583.4800, -59.442
1583.5000, -59.442
1583.5200, -59.473
1583.5400, -59.469
1583.5600, -59.481
1583.5800, -59.490
1583.6000, -59.484
1583.6200, -59.488
1583.6400, -59.497
1583.6600, -59.522
1583.6800, -59.530
1583.7000, -59.521
1583.7200, -59.532
1583.7400, -59.540
1583.7600, -59.573
1583.7800, -59.517
1583.8000, -59.578
1583.8200, -59.554
1583.8400, -59.592
1583.8600, -59.544
1583.8800, -59.569
1583.9000, -59.581
1583.9200, -59.595
1583.9400, -59.610
1583.9600, -59.606
1583.9800, -59.611
1584.0000, -59.651
1584.0200, -59.606
1584.0400, -59.648
1584.0600, -59.613
1584.0800, -59.665
1584.1000, -59.641
1584.1200, -59.656
1584.1400, -59.616
1584.1600, -59.655
1584.1800, -59.682
1584.2000, -59.666
1584.2200, -59.687
1584.2400, -59.708
1584.2600, -59.675
1584.2800, -59.695
1584.3000, -59.707
1584.3200, -59.694
1584.3400, -59.721
1584.3600, -59.712
1584.3800, -59.735
1584.4000, -59.725
1584.4200, -59.725
1584.4400, -59.744
1584.4600, -59.755
1584.4800, -59.755
1584.5000, -59.781
1584.5200, -59.745
1584.5400, -59.750
1584.5600, -59.785
1584.5800, -59.786
1584.6000, -59.828
1584.6200, -59.782
1584.6400, -59.810
1584.6600, -59.840
1584.6800, -59.794
1584.7000, -59.818
1584.7200, -59.829
1584.7400, -59.837
1584.7600, -59.817
1584.7800, -59.853
1584.8000, -59.822
1584.8200, -59.880
1584.8400, -59.854
1584.8600, -59.885
1584.8800, -59.858
1584.9000, -59.864
1584.9200, -59.871
1584.9400, -59.882
1584.9600, -59.882
1584.9800, -59.913
1585.0000, -59.907
1585.0200, -59.928
1585.0400, -59.898
1585.0600, -59.932
1585.0800, -59.906
1585.1000, -59.918
1585.1200, -59.957
1585.1400, -59.904
1585.1600, -59.966
1585.1800, -59.952
1585.2000, -59.941
1585.2200, -59.968
1585.2400, -59.949
1585.2600, -59.958
1585.2800, -59.986
1585.3000, -59.981
1585.3200, -60.002
1585.3400, -59.987
1585.3600, -59.995
1585.3800, -59.999
1585.4000, -60.002
1585.4200, -60.005
1585.4400, -60.060
1585.4600, -60.018
1585.4800, -60.027
1585.5000, -60.030
1585.5200, -60.021
1585.5400, -60.050
1585.5600, -60.031
1585.5800, -60.070
1585.6000, -60.035
1585.6200, -60.087
1585.6400, -60.074
1585.6600, -60.061
1585.6800, -60.102
1585.7000, -60.106
1585.7200, -60.080
1585.7400, -60.122
1585.7600, -60.105
1585.7800, -60.094
1585.8000, -60.124
1585.8200, -60.134
1585.8400, -60.125
1585.8600, -60.129
1585.8800, -60.133
1585.9000, -60.127
1585.9200, -60.122
1585.9400, -60.155
1585.9600, -60.123
1585.9800, -60.143
1586.0000, -60.180
1586.0200, -60.162
1586.0400, -60.171
1586.0600, -60.157
1586.0800, -60.182
1586.1000, -60.182
1586.1200, -60.202
1586.1400, -60.197
1586.1600, -60.215
1586.1800, -60.202
1586.2000, -60.228
1586.2200, -60.205
1586.2400, -60.222
1586.2600, -60.216
1586.2800, -60.259
1586.3000, -60.231
1586.3200, -60.222
1586.3400, -60.276
1586.3600, -60.242
1586.3800, -60.290
1586.4000, -60.285
1586.4200, -60.259
1586.4400, -60.283
1586.4600, -60.257
1586.4800, -60.287
1586.5000, -60.290
1586.5200, -60.315
1586.5400, -60.339
1586.5600, -60.330
1586.5800, -60.295
1586.6000, -60.330
1586.6200, -60.302
1586.6400, -60.329
1586.6600, -60.325
1586.6800, -60.370
1586.7000, -60.316
1586.7200, -60.337
1586.7400, -60.388
1586.7600, -60.337
1586.7800, -60.387
1586.8000, -60.354
1586.8200, -60.381
1586.8400, -60.383
1586.8600, -60.422
1586.8800, -60.362
1586.9000, -60.395
1586.9200, -60.424
1586.9400, -60.421
1586.9600, -60.416
1586.9800, -60.416
1587.0000, -60.428
1587.0200, -60.427
1587.0400, -60.442
1587.0600, -60.428
1587.0800, -60.442
1587.1000, -60.429
1587.1200, -60.434
1587.1400, -60.472
1587.1600, -60.456
1587.1800, -60.482
1587.2000, -60.471
1587.2200, -60.473
1587.2400, -60.483
1587.2600, -60.487
1587.2800, -60.483
1587.3000, -60.528
1587.3200, -60.531
1587.3400, -60.477
1587.3600, -60.544
1587.3800, -60.520
1587.4000, -60.513
1587.4200, -60.497
1587.4400, -60.575
1587.4600, -60.531
1587.4800, -60.531
1587.5000, -60.519
1587.5200, -60.587
1587.5400, -60.539
1587.5600, -60.591
1587.5800, -60.575
1587.6000, -60.572
1587.6200, -60.567
1587.6400, -60.545
1587.6600, -60.633
1587.6800, -60.568
1587.7000, -60.573
1587.7200, -60.612
1587.7400, -60.592
1587.7600, -60.599
1587.7800, -60.637
1587.8000, -60.618
1587.8200, -60.614
1587.8400, -60.635
1587.8600, -60.634
1587.8800, -60.642
1587.9000, -60.640
1587.9200, -60.683
1587.9400, -60.623
1587.9600, -60.639
1587.9800, -60.668
1588.0000, -60.684
1588.0200, -60.708
1588.0400, -60.659
1588.0600, -60.717
1588.0800, -60.680
1588.1000, -60.704
1588.1200, -60.709
1588.1400, -60.697
1588.1600, -60.697
1588.1800, -60.723
1588.2000, -60.724
1588.2200, -60.698
1588.2400, -60.734
1588.2600, -60.733
1588.2800, -60.734
1588.3000, -60.733
1588.3200, -60.732
1588.3400, -60.738
1588.3600, -60.756
1588.3800, -60.752
1588.4000, -60.764
1588.4200, -60.738
1588.4400, -60.756
1588.4600, -60.807
1588.4800, -60.777
1588.5000, -60.785
1588.5200, -60.791
1588.5400, -60.796
1588.5600, -60.783
1588.5800, -60.769
1588.6000, -60.822
1588.6200, -60.799
1588.6400, -60.810
1588.6600, -60.826
1588.6800, -60.811
1588.7000, -60.834
1588.7200, -60.801
1588.7400, -60.846
1588.7600, -60.853
1588.7800, -60.836
1588.8000, -60.870
1588.8200, -60.880
1588.8400, -60.864
1588.8600, -60.852
1588.8800, -60.885
1588.9000, -60.845
1588.9200, -60.886
1588.9400, -60.903
1588.9600, -60.871
1588.9800, -60.906
1589.0000, -60.891
1589.0200, -60.914
1589.0400, -60.912
1589.0600, -60.898
1589.0800, -60.972
1589.1000, -60.869
1589.1200, -60.907
1589.1400, -60.906
1589.1600, -60.944
1589.1800, -60.951
1589.2000, -60.911
1589.2200, -60.932
1589.2400, -60.966
1589.2600, -60.921
1589.2800, -60.955
1589.3000, -60.977
1589.3200, -60.915
1589.3400, -60.982
1589.3600, -60.957
1589.3800, -60.987
1589.4000, -60.984
1589.4200, -60.952
1589.4400, -60.992
1589.4600, -60.981
1589.4800, -61.015
1589.5000, -60.994
1589.5200, -61.001
1589.5400, -61.012
1589.5600, -61.014
1589.5800, -61.037
1589.6000, -61.052
1589.6200, -61.061
1589.6400, -61.014
1589.6600, -61.079
1589.6800, -61.034
1589.7000, -61.057
1589.7200, -61.044
1589.7400, -61.062
1589.7600, -61.044
1589.7800, -61.076
1589.8000, -61.073
1589.8200, -61.081
1589.8400, -61.066
1589.8600, -61.115
1589.8800, -61.081
1589.9000, -61.077
1589.9200, -61.093
1589.9400, -61.088
1589.9600, -61.089
1589.9800, -61.089
1590.0000, -61.113
1590.0200, -61.116
1590.0400, -61.137
1590.0600, -61.116
1590.0800, -61.142
1590.1000, -61.111
1590.1200, -61.156
1590.1400, -61.142
1590.1600, -61.137
1590.1800, -61.163
1590.2000, -61.191
1590.2200, -61.150
1590.2400, -61.168
1590.2600, -61.145
1590.2800, -61.166
1590.3000, -61.219
1590.3200, -61.129
1590.3400, -61.222
1590.3600, -61.167
1590.3800, -61.210
1590.4000, -61.223
1590.4200, -61.214
1590.4400, -61.230
1590.4600, -61.191
1590.4800, -61.174
1590.5000, -61.250
1590.5200, -61.212
1590.5400, -61.207
1590.5600, -61.244
1590.5800, -61.257
1590.6000, -61.246
1590.6200, -61.273
1590.6400, -61.249
1590.6600, -61.263
1590.6800, -61.238
1590.7000, -61.293
1590.7200, -61.276
1590.7400, -61.278
1590.7600, -61.274
1590.7800, -61.321
1590.8000, -61.287
1590.8200, -61.278
1590.8400, -61.287
1590.8600, -61.267
1590.8800, -61.315
1590.9000, -61.293
1590.9200, -61.318
1590.9400, -61.345
1590.9600, -61.326
1590.9800, -61.321
1591.0000, -61.341
1591.0200, -61.328
1591.0400, -61.306
1591.0600, -61.366
1591.0800, -61.364
1591.1000, -61.375
1591.1200, -61.352
1591.1400, -61.362
1591.1600, -61.380
1591.1800, -61.386
1591.2000, -61.357
1591.2200, -61.398
1591.2400, -61.400
1591.2600, -61.403
1591.2800, -61.405
1591.3000, -61.394
1591.3200, -61.400
1591.3400, -61.416
1591.3600, -61.420
1591.3800, -61.397
1591.4000, -61.435
1591.4200, -61.408
1591.4400, -61.460
1591.4600, -61.439
1591.4800, -61.425
1591.5000, -61.452
1591.5200, -61.455
1591.5400, -61.441
1591.5600, -61.476
1591.5800, -61.462
1591.6000, -61.466
1591.6200, -61.475
1591.6400, -61.467
1591.6600, -61.498
1591.6800, -61.460
1591.7000, -61.515
1591.7200, -61.500
1591.7400, -61.458
1591.7600, -61.489
1591.7800, -61.532
1591.8000, -61.502
1591.8200, -61.540
1591.8400, -61.531
1591.8600, -61.537
1591.8800, -61.522
1591.9000, -61.542
1591.9200, -61.541
1591.9400, -61.576
1591.9600, -61.496
1591.9800, -61.560
1592.0000, -61.533
1592.0200, -61.554
1592.0400, -61.576
1592.0600, -61.568
1592.0800, -61.599
1592.1000, -61.601
1592.1200, -61.559
1592.1400, -61.579
1592.1600, -61.587
1592.1800, -61.582
1592.2000, -61.592
1592.2200, -61.592
1592.2400, -61.637
1592.2600, -61.612
1592.2800, -61.639
1592.3000, -61.605
1592.3200, -61.645
1592.3400, -61.599
1592.3600, -61.648
1592.3800, -61.635
1592.4000, -61.641
1592.4200, -61.655
1592.4400, -61.673
1592.4600, -61.642
1592.4800, -61.646
1592.5000, -61.675
1592.5200, -61.680
1592.5400, -61.648
1592.5600, -61.645
1592.5800, -61.668
1592.6000, -61.709
1592.6200, -61.648
1592.6400, -61.720
1592.6600, -61.690
1592.6800, -61.684
1592.7000, -61.731
1592.7200, -61.710
1592.7400, -61.692
1592.7600, -61.708
1592.7800, -61.739
1592.8000, -61.681
1592.8200, -61.715
1592.8400, -61.711
1592.8600, -61.746
1592.8800, -61.728
1592.9000, -61.762
1592.9200, -61.741
1592.9400, -61.717
1592.9600, -61.776
1592.9800, -61.725
1593.0000, -61.783
1593.0200, -61.758
1593.0400, -61.815
1593.0600, -61.789
1593.0800, -61.773
1593.1000, -61.782
1593.1200, -61.819
1593.1400, -61.801
1593.1600, -61.777
1593.1800, -61.808
1593.2000, -61.827
1593.2200, -61.822
1593.2400, -61.858
1593.2600, -61.782
1593.2800, -61.812
1593.3000, -61.784
1593.3200, -61.805
1593.3400, -61.830
1593.3600, -61.821
1593.3800, -61.839
1593.4000, -61.866
1593.4200, -61.849
1593.4400, -61.862
1593.4600, -61.833
1593.4800, -61.863
1593.5000, -61.862
1593.5200, -61.878
1593.5400, -61.861
1593.5600, -61.892
1593.5800, -61.850
1593.6000, -61.890
1593.6200, -61.921
1593.6400, -61.915
1593.6600, -61.862
1593.6800, -61.891
1593.7000, -61.910
1593.7200, -61.899
1593.7400, -61.920
1593.7600, -61.954
1593.7800, -61.905
1593.8000, -61.901
1593.8200, -61.962
1593.8400, -61.929
1593.8600, -61.935
1593.8800, -61.946
1593.9000, -61.966
1593.9200, -61.965
1593.9400, -61.992
1593.9600, -61.950
1593.9800, -61.937
1594.0000, -61.973
1594.0200, -61.981
1594.0400, -61.989
1594.0600, -61.981
1594.0800, -61.989
1594.1000, -61.965
1594.1200, -62.050
1594.1400, -61.956
1594.1600, -61.984
1594.1800, -62.009
1594.2000, -62.012
1594.2200, -62.019
1594.2400, -62.068
1594.2600, -61.996
1594.2800, -62.090
1594.3000, -61.963
1594.3200, -62.041
1594.3400, -62.083
1594.3600, -62.012
1594.3800, -62.096
1594.4000, -62.049
1594.4200, -62.073
1594.4400, -62.087
1594.4600, -62.068
1594.4800, -62.033
1594.5000, -62.058
1594.5200, -62.097
1594.5400, -62.099
1594.5600, -62.047
1594.5800, -62.100
1594.6000, -62.093
1594.6200, -62.156
1594.6400, -62.108
1594.6600, -62.114
1594.6800, -62.064
1594.7000, -62.113
1594.7200, -62.196
1594.7400, -62.085
1594.7600, -62.140
1594.7800, -62.110
1594.8000, -62.133
1594.8200, -62.119
1594.8400, -62.138
1594.8600, -62.132
1594.8800, -62.186
1594.9000, -62.156
1594.9200, -62.193
1594.9400, -62.169
1594.9600, -62.181
1594.9800, -62.160
1595.0000, -62.176
1595.0200, -62.196
1595.0400, -62.171
1595.0600, -62.238
1595.0800, -62.220
1595.1000, -62.158
1595.1200, -62.177
1595.1400, -62.204
1595.1600, -62.220
1595.1800, -62.185
1595.2000, -62.231
1595.2200, -62.243
1595.2400, -62.209
1595.2600, -62.191
1595.2800, -62.243
1595.3000, -62.257
1595.3200, -62.235
1595.3400, -62.255
1595.3600, -62.249
1595.3800, -62.287
1595.4000, -62.288
1595.4200, -62.272
1595.4400, -62.270
1595.4600, -62.273
1595.4800, -62.292
1595.5000, -62.271
1595.5200, -62.323
1595.5400, -62.292
1595.5600, -62.247
1595.5800, -62.412
1595.6000, -62.279
1595.6200, -62.289
1595.6400, -62.326
1595.6600, -62.353
1595.6800, -62.301
1595.7000, -62.292
1595.7200, -62.347
1595.7400, -62.336
1595.7600, -62.335
1595.7800, -62.350
1595.8000, -62.346
1595.8200, -62.369
1595.8400, -62.324
1595.8600, -62.349
1595.8800, -62.402
1595.9000, -62.391
1595.9200, -62.338
1595.9400, -62.336
1595.9600, -62.365
1595.9800, -62.360
1596.0000, -62.402
1596.0200, -62.369
1596.0400, -62.466
1596.0600, -62.418
1596.0800, -62.374
1596.1000, -62.404
1596.1200, -62.454
1596.1400, -62.383
1596.1600, -62.430
1596.1800, -62.400
1596.2000, -62.421
1596.2200, -62.457
1596.2400, -62.450
1596.2600, -62.471
1596.2800, -62.427
1596.3000, -62.440
1596.3200, -62.501
1596.3400, -62.396
1596.3600, -62.456
1596.3800, -62.484
1596.4000, -62.465
1596.4200, -62.557
1596.4400, -62.431
1596.4600, -62.471
1596.4800, -62.514
1596.5000, -62.478
1596.5200, -62.450
1596.5400, -62.484
1596.5600, -62.534
1596.5800, -62.444
1596.6000, -62.533
1596.6200, -62.538
1596.6400, -62.454
1596.6600, -62.581
1596.6800, -62.458
1596.7000, -62.561
1596.7200, -62.528
1596.7400, -62.513
1596.7600, -62.553
1596.7800, -62.552
1596.8000, -62.605
1596.8200, -62.508
1596.8400, -62.519
1596.8600, -62.604
1596.8800, -62.569
1596.9000, -62.581
1596.9200, -62.562
1596.9400, -62.593
1596.9600, -62.612
1596.9800, -62.570
1597.0000, -62.604
1597.0200, -62.529
1597.0400, -62.607
1597.0600, -62.569
1597.0800, -62.616
1597.1000, -62.617
1597.1200, -62.598
1597.1400, -62.616
1597.1600, -62.611
1597.1800, -62.614
1597.2000, -62.665
1597.2200, -62.687
1597.2400, -62.648
1597.2600, -62.629
1597.2800, -62.680
1597.3000, -62.624
1597.3200, -62.576
1597.3400, -62.671
1597.3600, -62.634
1597.3800, -62.683
1597.4000, -62.710
1597.4200, -62.717
1597.4400, -62.696
1597.4600, -62.681
1597.4800, -62.667
1597.5000, -62.624
1597.5200, -62.677
1597.5400, -62.724
1597.5600, -62.680
1597.5800, -62.737
1597.6000, -62.696
1597.6200, -62.631
1597.6400, -62.724
1597.6600, -62.771
1597.6800, -62.681
1597.7000, -62.718
1597.7200, -62.762
1597.7400, -62.746
1597.7600, -62.741
1597.7800, -62.732
1597.8000, -62.793
1597.8200, -62.698
1597.8400, -62.813
1597.8600, -62.757
1597.8800, -62.791
1597.9000, -62.783
1597.9200, -62.784
1597.9400, -62.763
1597.9600, -62.797
1597.9800, -62.742
1598.0000, -62.810
1598.0200, -62.765
1598.0400, -62.783
1598.0600, -62.802
1598.0800, -62.832
1598.1000, -62.750
1598.1200, -62.872
1598.1400, -62.813
1598.1600, -62.826
1598.1800, -62.851
1598.2000, -62.825
1598.2200, -62.827
1598.2400, -62.829
1598.2600, -62.878
1598.2800, -62.869
1598.3000, -62.842
1598.3200, -62.840
1598.3400, -62.886
1598.3600, -62.875
1598.3800, -62.874
1598.4000, -62.877
1598.4200, -62.860
1598.4400, -62.857
1598.4600, -62.896
1598.4800, -62.905
1598.5000, -62.843
1598.5200, -62.952
1598.5400, -62.903
1598.5600, -62.853
1598.5800, -62.889
1598.6000, -62.976
1598.6200, -62.875
1598.6400, -62.968
1598.6600, -62.948
1598.6800, -62.908
1598.7000, -62.868
1598.7200, -62.977
1598.7400, -62.922
1598.7600, -62.952
1598.7800, -62.965
1598.8000, -62.948
1598.8200, -62.948
1598.8400, -63.005
1598.8600, -62.962
1598.8800, -62.944
1598.9000, -62.994
1598.9200, -62.962
1598.9400, -62.998
1598.9600, -62.953
1598.9800, -63.002
1599.0000, -63.014
1599.0200, -63.011
1599.0400, -62.975
1599.0600, -63.005
1599.0800, -63.056
1599.1000, -62.974
1599.1200, -63.001
1599.1400, -63.030
1599.1600, -63.029
1599.1800, -63.029
1599.2000, -63.028
1599.2200, -63.041
1599.2400, -63.067
1599.2600, -63.034
1599.2800, -63.050
1599.3000, -63.098
1599.3200, -63.057
1599.3400, -63.075
1599.3600, -63.076
1599.3800, -63.061
1599.4000, -63.107
1599.4200, -63.106
1599.4400, -63.109
1599.4600, -63.107
1599.4800, -63.088
1599.5000, -63.094
1599.5200, -63.109
1599.5400, -63.108
1599.5600, -63.169
1599.5800, -63.035
1599.6000, -63.111
1599.6200, -63.122
1599.6400, -63.184
1599.6600, -63.187
1599.6800, -63.051
1599.7000, -63.107
1599.7200, -63.176
1599.7400, -63.153
1599.7600, -63.158
1599.7800, -63.147
1599.8000, -63.185
1599.8200, -63.207
1599.8400, -63.109
1599.8600, -63.250
1599.8800, -63.095
1599.9000, -63.243
1599.9200, -63.109
1599.9400, -63.197
1599.9600, -63.238
1599.9800, -63.330
1600.0000, -63.090
