70BCSV 	
// AQ6370B OPTICAL SPECTRUM ANALYZER //                 
25
"CTRWL",1550.000000
"SPAN", 100.000000
"START WL",1500.000000
"STOP WL",1600.000000
"WLFREQ", 0
"REFL",-28.8
"LSCL", 5.0
"RESLN",0.100
"AVG",   1
"SMPLAUTO",      0
"SMPL",       5001
"SMPLINTVL",0.0200
"HIGH1"
"MEAS"
"LSUNT",0
"NMSKH","OFF"
"RESCOR",0
"RESPARM", 9050
"FREQPARM", 9050






"[TRACE DATA]"
1500.0000, -61.708
1500.0200, -61.707
1500.0400, -61.681
1500.0600, -61.707
1500.0800, -61.626
1500.1000, -61.694
1500.1200, -61.691
1500.1400, -61.649
1500.1600, -61.643
1500.1800, -61.640
1500.2000, -61.664
1500.2200, -61.617
1500.2400, -61.605
1500.2600, -61.651
1500.2800, -61.597
1500.3000, -61.599
1500.3200, -61.629
1500.3400, -61.614
1500.3600, -61.658
1500.3800, -61.581
1500.4000, -61.557
1500.4200, -61.567
1500.4400, -61.561
1500.4600, -61.571
1500.4800, -61.602
1500.5000, -61.542
1500.5200, -61.555
1500.5400, -61.544
1500.5600, -61.551
1500.5800, -61.530
1500.6000, -61.557
1500.6200, -61.520
1500.6400, -61.516
1500.6600, -61.552
1500.6800, -61.491
1500.7000, -61.494
1500.7200, -61.477
1500.7400, -61.518
1500.7600, -61.498
1500.7800, -61.468
1500.8000, -61.489
1500.8200, -61.485
1500.8400, -61.451
1500.8600, -61.459
1500.8800, -61.468
1500.9000, -61.432
1500.9200, -61.469
1500.9400, -61.454
1500.9600, -61.398
1500.9800, -61.486
1501.0000, -61.440
1501.0200, -61.386
1501.0400, -61.382
1501.0600, -61.412
1501.0800, -61.455
1501.1000, -61.365
1501.1200, -61.380
1501.1400, -61.389
1501.1600, -61.390
1501.1800, -61.356
1501.2000, -61.372
1501.2200, -61.362
1501.2400, -61.337
1501.2600, -61.403
1501.2800, -61.331
1501.3000, -61.333
1501.3200, -61.362
1501.3400, -61.311
1501.3600, -61.331
1501.3800, -61.299
1501.4000, -61.314
1501.4200, -61.300
1501.4400, -61.270
1501.4600, -61.295
1501.4800, -61.277
1501.5000, -61.253
1501.5200, -61.259
1501.5400, -61.261
1501.5600, -61.268
1501.5800, -61.287
1501.6000, -61.247
1501.6200, -61.200
1501.6400, -61.239
1501.6600, -61.232
1501.6800, -61.250
1501.7000, -61.215
1501.7200, -61.222
1501.7400, -61.244
1501.7600, -61.211
1501.7800, -61.168
1501.8000, -61.222
1501.8200, -61.220
1501.8400, -61.174
1501.8600, -61.198
1501.8800, -61.186
1501.9000, -61.199
1501.9200, -61.158
1501.9400, -61.182
1501.9600, -61.154
1501.9800, -61.157
1502.0000, -61.116
1502.0200, -61.177
1502.0400, -61.139
1502.0600, -61.110
1502.0800, -61.110
1502.1000, -61.114
1502.1200, -61.106
1502.1400, -61.083
1502.1600, -61.089
1502.1800, -61.083
1502.2000, -61.096
1502.2200, -61.086
1502.2400, -61.039
1502.2600, -61.063
1502.2800, -61.055
1502.3000, -61.024
1502.3200, -61.015
1502.3400, -61.025
1502.3600, -61.001
1502.3800, -61.028
1502.4000, -61.017
1502.4200, -60.990
1502.4400, -60.978
1502.4600, -61.001
1502.4800, -60.965
1502.5000, -60.969
1502.5200, -60.968
1502.5400, -60.998
1502.5600, -60.941
1502.5800, -60.945
1502.6000, -60.949
1502.6200, -60.887
1502.6400, -60.964
1502.6600, -60.910
1502.6800, -60.956
1502.7000, -60.924
1502.7200, -60.855
1502.7400, -60.925
1502.7600, -60.929
1502.7800, -60.922
1502.8000, -60.864
1502.8200, -60.880
1502.8400, -60.864
1502.8600, -60.839
1502.8800, -60.890
1502.9000, -60.856
1502.9200, -60.818
1502.9400, -60.847
1502.9600, -60.830
1502.9800, -60.790
1503.0000, -60.823
1503.0200, -60.837
1503.0400, -60.798
1503.0600, -60.831
1503.0800, -60.764
1503.1000, -60.746
1503.1200, -60.747
1503.1400, -60.785
1503.1600, -60.752
1503.1800, -60.746
1503.2000, -60.743
1503.2200, -60.744
1503.2400, -60.748
1503.2600, -60.721
1503.2800, -60.700
1503.3000, -60.722
1503.3200, -60.691
1503.3400, -60.694
1503.3600, -60.717
1503.3800, -60.684
1503.4000, -60.661
1503.4200, -60.655
1503.4400, -60.693
1503.4600, -60.671
1503.4800, -60.659
1503.5000, -60.600
1503.5200, -60.632
1503.5400, -60.659
1503.5600, -60.582
1503.5800, -60.620
1503.6000, -60.605
1503.6200, -60.589
1503.6400, -60.605
1503.6600, -60.597
1503.6800, -60.594
1503.7000, -60.573
1503.7200, -60.582
1503.7400, -60.569
1503.7600, -60.555
1503.7800, -60.556
1503.8000, -60.540
1503.8200, -60.539
1503.8400, -60.522
1503.8600, -60.536
1503.8800, -60.526
1503.9000, -60.517
1503.9200, -60.505
1503.9400, -60.500
1503.9600, -60.491
1503.9800, -60.458
1504.0000, -60.485
1504.0200, -60.491
1504.0400, -60.451
1504.0600, -60.487
1504.0800, -60.450
1504.1000, -60.453
1504.1200, -60.391
1504.1400, -60.435
1504.1600, -60.431
1504.1800, -60.419
1504.2000, -60.405
1504.2200, -60.401
1504.2400, -60.381
1504.2600, -60.378
1504.2800, -60.380
1504.3000, -60.345
1504.3200, -60.350
1504.3400, -60.343
1504.3600, -60.330
1504.3800, -60.360
1504.4000, -60.325
1504.4200, -60.311
1504.4400, -60.340
1504.4600, -60.291
1504.4800, -60.302
1504.5000, -60.261
1504.5200, -60.279
1504.5400, -60.261
1504.5600, -60.245
1504.5800, -60.268
1504.6000, -60.241
1504.6200, -60.227
1504.6400, -60.229
1504.6600, -60.249
1504.6800, -60.219
1504.7000, -60.215
1504.7200, -60.224
1504.7400, -60.227
1504.7600, -60.206
1504.7800, -60.198
1504.8000, -60.174
1504.8200, -60.190
1504.8400, -60.173
1504.8600, -60.167
1504.8800, -60.131
1504.9000, -60.148
1504.9200, -60.131
1504.9400, -60.123
1504.9600, -60.126
1504.9800, -60.114
1505.0000, -60.106
1505.0200, -60.072
1505.0400, -60.101
1505.0600, -60.104
1505.0800, -60.063
1505.1000, -60.073
1505.1200, -60.024
1505.1400, -60.057
1505.1600, -60.053
1505.1800, -60.022
1505.2000, -60.051
1505.2200, -60.004
1505.2400, -59.993
1505.2600, -60.004
1505.2800, -60.008
1505.3000, -59.998
1505.3200, -59.977
1505.3400, -59.958
1505.3600, -59.972
1505.3800, -59.956
1505.4000, -59.950
1505.4200, -59.961
1505.4400, -59.934
1505.4600, -59.925
1505.4800, -59.888
1505.5000, -59.917
1505.5200, -59.889
1505.5400, -59.875
1505.5600, -59.889
1505.5800, -59.872
1505.6000, -59.869
1505.6200, -59.901
1505.6400, -59.866
1505.6600, -59.861
1505.6800, -59.866
1505.7000, -59.805
1505.7200, -59.811
1505.7400, -59.807
1505.7600, -59.802
1505.7800, -59.826
1505.8000, -59.806
1505.8200, -59.781
1505.8400, -59.792
1505.8600, -59.767
1505.8800, -59.774
1505.9000, -59.744
1505.9200, -59.750
1505.9400, -59.763
1505.9600, -59.712
1505.9800, -59.712
1506.0000, -59.723
1506.0200, -59.717
1506.0400, -59.695
1506.0600, -59.690
1506.0800, -59.674
1506.1000, -59.691
1506.1200, -59.663
1506.1400, -59.660
1506.1600, -59.676
1506.1800, -59.658
1506.2000, -59.582
1506.2200, -59.638
1506.2400, -59.613
1506.2600, -59.586
1506.2800, -59.597
1506.3000, -59.598
1506.3200, -59.589
1506.3400, -59.578
1506.3600, -59.555
1506.3800, -59.573
1506.4000, -59.584
1506.4200, -59.554
1506.4400, -59.512
1506.4600, -59.515
1506.4800, -59.532
1506.5000, -59.523
1506.5200, -59.526
1506.5400, -59.488
1506.5600, -59.480
1506.5800, -59.476
1506.6000, -59.484
1506.6200, -59.477
1506.6400, -59.462
1506.6600, -59.444
1506.6800, -59.457
1506.7000, -59.430
1506.7200, -59.437
1506.7400, -59.411
1506.7600, -59.433
1506.7800, -59.408
1506.8000, -59.403
1506.8200, -59.393
1506.8400, -59.373
1506.8600, -59.400
1506.8800, -59.363
1506.9000, -59.377
1506.9200, -59.357
1506.9400, -59.348
1506.9600, -59.332
1506.9800, -59.320
1507.0000, -59.328
1507.0200, -59.309
1507.0400, -59.288
1507.0600, -59.291
1507.0800, -59.305
1507.1000, -59.281
1507.1200, -59.256
1507.1400, -59.290
1507.1600, -59.227
1507.1800, -59.241
1507.2000, -59.230
1507.2200, -59.211
1507.2400, -59.245
1507.2600, -59.198
1507.2800, -59.214
1507.3000, -59.227
1507.3200, -59.158
1507.3400, -59.183
1507.3600, -59.165
1507.3800, -59.163
1507.4000, -59.145
1507.4200, -59.132
1507.4400, -59.108
1507.4600, -59.146
1507.4800, -59.121
1507.5000, -59.134
1507.5200, -59.103
1507.5400, -59.094
1507.5600, -59.093
1507.5800, -59.110
1507.6000, -59.065
1507.6200, -59.070
1507.6400, -59.049
1507.6600, -59.056
1507.6800, -59.029
1507.7000, -59.028
1507.7200, -58.999
1507.7400, -59.014
1507.7600, -59.003
1507.7800, -59.003
1507.8000, -58.996
1507.8200, -58.985
1507.8400, -58.984
1507.8600, -58.951
1507.8800, -58.944
1507.9000, -58.949
1507.9200, -58.935
1507.9400, -58.924
1507.9600, -58.907
1507.9800, -58.913
1508.0000, -58.892
1508.0200, -58.889
1508.0400, -58.887
1508.0600, -58.877
1508.0800, -58.872
1508.1000, -58.857
1508.1200, -58.838
1508.1400, -58.843
1508.1600, -58.840
1508.1800, -58.838
1508.2000, -58.787
1508.2200, -58.795
1508.2400, -58.798
1508.2600, -58.795
1508.2800, -58.792
1508.3000, -58.778
1508.3200, -58.786
1508.3400, -58.765
1508.3600, -58.753
1508.3800, -58.751
1508.4000, -58.727
1508.4200, -58.724
1508.4400, -58.732
1508.4600, -58.706
1508.4800, -58.698
1508.5000, -58.729
1508.5200, -58.668
1508.5400, -58.694
1508.5600, -58.673
1508.5800, -58.647
1508.6000, -58.662
1508.6200, -58.644
1508.6400, -58.649
1508.6600, -58.617
1508.6800, -58.620
1508.7000, -58.611
1508.7200, -58.587
1508.7400, -58.595
1508.7600, -58.585
1508.7800, -58.585
1508.8000, -58.560
1508.8200, -58.585
1508.8400, -58.559
1508.8600, -58.552
1508.8800, -58.520
1508.9000, -58.538
1508.9200, -58.493
1508.9400, -58.492
1508.9600, -58.473
1508.9800, -58.498
1509.0000, -58.485
1509.0200, -58.449
1509.0400, -58.474
1509.0600, -58.450
1509.0800, -58.440
1509.1000, -58.445
1509.1200, -58.434
1509.1400, -58.410
1509.1600, -58.394
1509.1800, -58.395
1509.2000, -58.391
1509.2200, -58.382
1509.2400, -58.380
1509.2600, -58.338
1509.2800, -58.328
1509.3000, -58.346
1509.3200, -58.313
1509.3400, -58.311
1509.3600, -58.314
1509.3800, -58.293
1509.4000, -58.284
1509.4200, -58.287
1509.4400, -58.277
1509.4600, -58.258
1509.4800, -58.254
1509.5000, -58.222
1509.5200, -58.244
1509.5400, -58.235
1509.5600, -58.226
1509.5800, -58.210
1509.6000, -58.204
1509.6200, -58.174
1509.6400, -58.192
1509.6600, -58.182
1509.6800, -58.186
1509.7000, -58.134
1509.7200, -58.165
1509.7400, -58.150
1509.7600, -58.126
1509.7800, -58.121
1509.8000, -58.114
1509.8200, -58.137
1509.8400, -58.082
1509.8600, -58.082
1509.8800, -58.066
1509.9000, -58.072
1509.9200, -58.048
1509.9400, -58.052
1509.9600, -58.030
1509.9800, -58.021
1510.0000, -58.008
1510.0200, -58.027
1510.0400, -58.000
1510.0600, -57.985
1510.0800, -57.981
1510.1000, -57.964
1510.1200, -57.951
1510.1400, -57.951
1510.1600, -57.934
1510.1800, -57.949
1510.2000, -57.911
1510.2200, -57.900
1510.2400, -57.882
1510.2600, -57.883
1510.2800, -57.855
1510.3000, -57.877
1510.3200, -57.860
1510.3400, -57.847
1510.3600, -57.846
1510.3800, -57.824
1510.4000, -57.793
1510.4200, -57.783
1510.4400, -57.797
1510.4600, -57.771
1510.4800, -57.766
1510.5000, -57.745
1510.5200, -57.756
1510.5400, -57.725
1510.5600, -57.738
1510.5800, -57.725
1510.6000, -57.717
1510.6200, -57.704
1510.6400, -57.677
1510.6600, -57.661
1510.6800, -57.671
1510.7000, -57.659
1510.7200, -57.650
1510.7400, -57.644
1510.7600, -57.615
1510.7800, -57.601
1510.8000, -57.601
1510.8200, -57.587
1510.8400, -57.563
1510.8600, -57.559
1510.8800, -57.557
1510.9000, -57.564
1510.9200, -57.528
1510.9400, -57.523
1510.9600, -57.505
1510.9800, -57.491
1511.0000, -57.497
1511.0200, -57.473
1511.0400, -57.461
1511.0600, -57.459
1511.0800, -57.435
1511.1000, -57.435
1511.1200, -57.422
1511.1400, -57.407
1511.1600, -57.400
1511.1800, -57.390
1511.2000, -57.382
1511.2200, -57.348
1511.2400, -57.359
1511.2600, -57.329
1511.2800, -57.340
1511.3000, -57.336
1511.3200, -57.295
1511.3400, -57.308
1511.3600, -57.283
1511.3800, -57.273
1511.4000, -57.265
1511.4200, -57.254
1511.4400, -57.237
1511.4600, -57.227
1511.4800, -57.216
1511.5000, -57.219
1511.5200, -57.214
1511.5400, -57.193
1511.5600, -57.154
1511.5800, -57.174
1511.6000, -57.149
1511.6200, -57.143
1511.6400, -57.135
1511.6600, -57.136
1511.6800, -57.106
1511.7000, -57.101
1511.7200, -57.097
1511.7400, -57.078
1511.7600, -57.070
1511.7800, -57.054
1511.8000, -57.032
1511.8200, -57.029
1511.8400, -57.023
1511.8600, -56.990
1511.8800, -56.999
1511.9000, -56.984
1511.9200, -56.971
1511.9400, -56.941
1511.9600, -56.945
1511.9800, -56.929
1512.0000, -56.905
1512.0200, -56.909
1512.0400, -56.897
1512.0600, -56.875
1512.0800, -56.877
1512.1000, -56.866
1512.1200, -56.841
1512.1400, -56.846
1512.1600, -56.828
1512.1800, -56.814
1512.2000, -56.794
1512.2200, -56.804
1512.2400, -56.797
1512.2600, -56.781
1512.2800, -56.772
1512.3000, -56.747
1512.3200, -56.737
1512.3400, -56.733
1512.3600, -56.712
1512.3800, -56.704
1512.4000, -56.714
1512.4200, -56.691
1512.4400, -56.688
1512.4600, -56.665
1512.4800, -56.648
1512.5000, -56.643
1512.5200, -56.624
1512.5400, -56.618
1512.5600, -56.613
1512.5800, -56.599
1512.6000, -56.581
1512.6200, -56.577
1512.6400, -56.564
1512.6600, -56.545
1512.6800, -56.528
1512.7000, -56.524
1512.7200, -56.515
1512.7400, -56.507
1512.7600, -56.490
1512.7800, -56.464
1512.8000, -56.472
1512.8200, -56.446
1512.8400, -56.440
1512.8600, -56.436
1512.8800, -56.411
1512.9000, -56.402
1512.9200, -56.398
1512.9400, -56.372
1512.9600, -56.363
1512.9800, -56.349
1513.0000, -56.345
1513.0200, -56.318
1513.0400, -56.332
1513.0600, -56.310
1513.0800, -56.285
1513.1000, -56.280
1513.1200, -56.263
1513.1400, -56.247
1513.1600, -56.242
1513.1800, -56.246
1513.2000, -56.238
1513.2200, -56.206
1513.2400, -56.200
1513.2600, -56.197
1513.2800, -56.177
1513.3000, -56.168
1513.3200, -56.158
1513.3400, -56.140
1513.3600, -56.125
1513.3800, -56.118
1513.4000, -56.108
1513.4200, -56.086
1513.4400, -56.079
1513.4600, -56.072
1513.4800, -56.051
1513.5000, -56.046
1513.5200, -56.040
1513.5400, -56.028
1513.5600, -56.007
1513.5800, -56.000
1513.6000, -55.982
1513.6200, -55.980
1513.6400, -55.957
1513.6600, -55.939
1513.6800, -55.936
1513.7000, -55.927
1513.7200, -55.908
1513.7400, -55.892
1513.7600, -55.878
1513.7800, -55.887
1513.8000, -55.857
1513.8200, -55.844
1513.8400, -55.829
1513.8600, -55.808
1513.8800, -55.799
1513.9000, -55.781
1513.9200, -55.773
1513.9400, -55.778
1513.9600, -55.758
1513.9800, -55.738
1514.0000, -55.720
1514.0200, -55.717
1514.0400, -55.700
1514.0600, -55.694
1514.0800, -55.672
1514.1000, -55.646
1514.1200, -55.644
1514.1400, -55.648
1514.1600, -55.626
1514.1800, -55.623
1514.2000, -55.605
1514.2200, -55.594
1514.2400, -55.588
1514.2600, -55.560
1514.2800, -55.553
1514.3000, -55.542
1514.3200, -55.521
1514.3400, -55.515
1514.3600, -55.499
1514.3800, -55.493
1514.4000, -55.471
1514.4200, -55.464
1514.4400, -55.444
1514.4600, -55.433
1514.4800, -55.410
1514.5000, -55.413
1514.5200, -55.387
1514.5400, -55.371
1514.5600, -55.352
1514.5800, -55.340
1514.6000, -55.331
1514.6200, -55.325
1514.6400, -55.319
1514.6600, -55.301
1514.6800, -55.278
1514.7000, -55.285
1514.7200, -55.253
1514.7400, -55.242
1514.7600, -55.232
1514.7800, -55.204
1514.8000, -55.192
1514.8200, -55.186
1514.8400, -55.164
1514.8600, -55.163
1514.8800, -55.157
1514.9000, -55.132
1514.9200, -55.114
1514.9400, -55.104
1514.9600, -55.087
1514.9800, -55.076
1515.0000, -55.066
1515.0200, -55.042
1515.0400, -55.016
1515.0600, -54.992
1515.0800, -55.008
1515.1000, -54.992
1515.1200, -54.979
1515.1400, -54.970
1515.1600, -54.957
1515.1800, -54.943
1515.2000, -54.918
1515.2200, -54.908
1515.2400, -54.894
1515.2600, -54.881
1515.2800, -54.855
1515.3000, -54.851
1515.3200, -54.815
1515.3400, -54.828
1515.3600, -54.797
1515.3800, -54.799
1515.4000, -54.782
1515.4200, -54.769
1515.4400, -54.743
1515.4600, -54.740
1515.4800, -54.720
1515.5000, -54.693
1515.5200, -54.672
1515.5400, -54.667
1515.5600, -54.662
1515.5800, -54.653
1515.6000, -54.643
1515.6200, -54.609
1515.6400, -54.609
1515.6600, -54.596
1515.6800, -54.579
1515.7000, -54.560
1515.7200, -54.539
1515.7400, -54.539
1515.7600, -54.510
1515.7800, -54.489
1515.8000, -54.473
1515.8200, -54.467
1515.8400, -54.454
1515.8600, -54.429
1515.8800, -54.432
1515.9000, -54.397
1515.9200, -54.387
1515.9400, -54.375
1515.9600, -54.351
1515.9800, -54.331
1516.0000, -54.329
1516.0200, -54.327
1516.0400, -54.313
1516.0600, -54.266
1516.0800, -54.263
1516.1000, -54.253
1516.1200, -54.238
1516.1400, -54.212
1516.1600, -54.208
1516.1800, -54.185
1516.2000, -54.165
1516.2200, -54.160
1516.2400, -54.140
1516.2600, -54.120
1516.2800, -54.120
1516.3000, -54.100
1516.3200, -54.065
1516.3400, -54.061
1516.3600, -54.042
1516.3800, -54.027
1516.4000, -54.014
1516.4200, -53.995
1516.4400, -53.971
1516.4600, -53.948
1516.4800, -53.933
1516.5000, -53.916
1516.5200, -53.916
1516.5400, -53.894
1516.5600, -53.870
1516.5800, -53.860
1516.6000, -53.849
1516.6200, -53.818
1516.6400, -53.802
1516.6600, -53.796
1516.6800, -53.759
1516.7000, -53.755
1516.7200, -53.731
1516.7400, -53.706
1516.7600, -53.712
1516.7800, -53.689
1516.8000, -53.667
1516.8200, -53.645
1516.8400, -53.641
1516.8600, -53.618
1516.8800, -53.589
1516.9000, -53.576
1516.9200, -53.537
1516.9400, -53.512
1516.9600, -53.536
1516.9800, -53.527
1517.0000, -53.493
1517.0200, -53.475
1517.0400, -53.457
1517.0600, -53.443
1517.0800, -53.417
1517.1000, -53.403
1517.1200, -53.385
1517.1400, -53.355
1517.1600, -53.343
1517.1800, -53.323
1517.2000, -53.318
1517.2200, -53.301
1517.2400, -53.281
1517.2600, -53.253
1517.2800, -53.256
1517.3000, -53.221
1517.3200, -53.215
1517.3400, -53.200
1517.3600, -53.164
1517.3800, -53.140
1517.4000, -53.120
1517.4200, -53.086
1517.4400, -53.103
1517.4600, -53.078
1517.4800, -53.058
1517.5000, -53.026
1517.5200, -53.005
1517.5400, -52.993
1517.5600, -52.962
1517.5800, -52.951
1517.6000, -52.938
1517.6200, -52.902
1517.6400, -52.913
1517.6600, -52.864
1517.6800, -52.834
1517.7000, -52.831
1517.7200, -52.816
1517.7400, -52.787
1517.7600, -52.774
1517.7800, -52.750
1517.8000, -52.723
1517.8200, -52.701
1517.8400, -52.694
1517.8600, -52.672
1517.8800, -52.631
1517.9000, -52.638
1517.9200, -52.629
1517.9400, -52.589
1517.9600, -52.561
1517.9800, -52.548
1518.0000, -52.535
1518.0200, -52.517
1518.0400, -52.489
1518.0600, -52.473
1518.0800, -52.432
1518.1000, -52.422
1518.1200, -52.403
1518.1400, -52.385
1518.1600, -52.362
1518.1800, -52.341
1518.2000, -52.314
1518.2200, -52.319
1518.2400, -52.278
1518.2600, -52.258
1518.2800, -52.238
1518.3000, -52.217
1518.3200, -52.186
1518.3400, -52.165
1518.3600, -52.140
1518.3800, -52.130
1518.4000, -52.115
1518.4200, -52.096
1518.4400, -52.049
1518.4600, -52.034
1518.4800, -52.015
1518.5000, -51.992
1518.5200, -51.953
1518.5400, -51.945
1518.5600, -51.914
1518.5800, -51.897
1518.6000, -51.867
1518.6200, -51.835
1518.6400, -51.822
1518.6600, -51.812
1518.6800, -51.786
1518.7000, -51.756
1518.7200, -51.737
1518.7400, -51.704
1518.7600, -51.682
1518.7800, -51.657
1518.8000, -51.639
1518.8200, -51.599
1518.8400, -51.608
1518.8600, -51.594
1518.8800, -51.567
1518.9000, -51.524
1518.9200, -51.504
1518.9400, -51.468
1518.9600, -51.444
1518.9800, -51.433
1519.0000, -51.412
1519.0200, -51.371
1519.0400, -51.358
1519.0600, -51.336
1519.0800, -51.316
1519.1000, -51.281
1519.1200, -51.257
1519.1400, -51.216
1519.1600, -51.204
1519.1800, -51.185
1519.2000, -51.158
1519.2200, -51.135
1519.2400, -51.107
1519.2600, -51.074
1519.2800, -51.042
1519.3000, -51.010
1519.3200, -51.002
1519.3400, -50.976
1519.3600, -50.956
1519.3800, -50.903
1519.4000, -50.885
1519.4200, -50.865
1519.4400, -50.833
1519.4600, -50.806
1519.4800, -50.780
1519.5000, -50.751
1519.5200, -50.732
1519.5400, -50.694
1519.5600, -50.654
1519.5800, -50.648
1519.6000, -50.628
1519.6200, -50.583
1519.6400, -50.557
1519.6600, -50.535
1519.6800, -50.512
1519.7000, -50.480
1519.7200, -50.452
1519.7400, -50.407
1519.7600, -50.360
1519.7800, -50.363
1519.8000, -50.363
1519.8200, -50.337
1519.8400, -50.276
1519.8600, -50.257
1519.8800, -50.234
1519.9000, -50.196
1519.9200, -50.176
1519.9400, -50.146
1519.9600, -50.104
1519.9800, -50.078
1520.0000, -50.051
1520.0200, -50.027
1520.0400, -50.003
1520.0600, -49.974
1520.0800, -49.925
1520.1000, -49.894
1520.1200, -49.873
1520.1400, -49.843
1520.1600, -49.813
1520.1800, -49.782
1520.2000, -49.745
1520.2200, -49.715
1520.2400, -49.690
1520.2600, -49.653
1520.2800, -49.622
1520.3000, -49.607
1520.3200, -49.561
1520.3400, -49.532
1520.3600, -49.491
1520.3800, -49.462
1520.4000, -49.413
1520.4200, -49.381
1520.4400, -49.361
1520.4600, -49.355
1520.4800, -49.298
1520.5000, -49.246
1520.5200, -49.224
1520.5400, -49.208
1520.5600, -49.173
1520.5800, -49.137
1520.6000, -49.097
1520.6200, -49.060
1520.6400, -49.013
1520.6600, -49.002
1520.6800, -48.957
1520.7000, -48.892
1520.7200, -48.886
1520.7400, -48.892
1520.7600, -48.860
1520.7800, -48.788
1520.8000, -48.767
1520.8200, -48.727
1520.8400, -48.702
1520.8600, -48.674
1520.8800, -48.637
1520.9000, -48.587
1520.9200, -48.551
1520.9400, -48.514
1520.9600, -48.481
1520.9800, -48.460
1521.0000, -48.425
1521.0200, -48.383
1521.0400, -48.341
1521.0600, -48.307
1521.0800, -48.277
1521.1000, -48.235
1521.1200, -48.205
1521.1400, -48.166
1521.1600, -48.124
1521.1800, -48.079
1521.2000, -48.043
1521.2200, -48.004
1521.2400, -47.952
1521.2600, -47.920
1521.2800, -47.905
1521.3000, -47.870
1521.3200, -47.831
1521.3400, -47.774
1521.3600, -47.747
1521.3800, -47.705
1521.4000, -47.664
1521.4200, -47.634
1521.4400, -47.597
1521.4600, -47.567
1521.4800, -47.508
1521.5000, -47.469
1521.5200, -47.448
1521.5400, -47.413
1521.5600, -47.358
1521.5800, -47.309
1521.6000, -47.277
1521.6200, -47.230
1521.6400, -47.178
1521.6600, -47.151
1521.6800, -47.134
1521.7000, -47.092
1521.7200, -47.051
1521.7400, -47.019
1521.7600, -46.967
1521.7800, -46.941
1521.8000, -46.901
1521.8200, -46.839
1521.8400, -46.819
1521.8600, -46.768
1521.8800, -46.735
1521.9000, -46.697
1521.9200, -46.668
1521.9400, -46.625
1521.9600, -46.585
1521.9800, -46.538
1522.0000, -46.503
1522.0200, -46.468
1522.0400, -46.433
1522.0600, -46.381
1522.0800, -46.339
1522.1000, -46.298
1522.1200, -46.254
1522.1400, -46.209
1522.1600, -46.178
1522.1800, -46.131
1522.2000, -46.086
1522.2200, -46.053
1522.2400, -46.013
1522.2600, -45.972
1522.2800, -45.920
1522.3000, -45.884
1522.3200, -45.831
1522.3400, -45.793
1522.3600, -45.750
1522.3800, -45.710
1522.4000, -45.671
1522.4200, -45.623
1522.4400, -45.587
1522.4600, -45.542
1522.4800, -45.503
1522.5000, -45.456
1522.5200, -45.408
1522.5400, -45.367
1522.5600, -45.326
1522.5800, -45.294
1522.6000, -45.237
1522.6200, -45.211
1522.6400, -45.167
1522.6600, -45.124
1522.6800, -45.078
1522.7000, -45.041
1522.7200, -45.002
1522.7400, -44.953
1522.7600, -44.915
1522.7800, -44.868
1522.8000, -44.825
1522.8200, -44.779
1522.8400, -44.738
1522.8600, -44.700
1522.8800, -44.665
1522.9000, -44.617
1522.9200, -44.578
1522.9400, -44.534
1522.9600, -44.497
1522.9800, -44.452
1523.0000, -44.409
1523.0200, -44.363
1523.0400, -44.315
1523.0600, -44.269
1523.0800, -44.237
1523.1000, -44.199
1523.1200, -44.150
1523.1400, -44.104
1523.1600, -44.063
1523.1800, -44.023
1523.2000, -43.980
1523.2200, -43.933
1523.2400, -43.885
1523.2600, -43.849
1523.2800, -43.806
1523.3000, -43.758
1523.3200, -43.715
1523.3400, -43.676
1523.3600, -43.630
1523.3800, -43.585
1523.4000, -43.533
1523.4200, -43.500
1523.4400, -43.456
1523.4600, -43.408
1523.4800, -43.363
1523.5000, -43.322
1523.5200, -43.283
1523.5400, -43.246
1523.5600, -43.202
1523.5800, -43.163
1523.6000, -43.113
1523.6200, -43.075
1523.6400, -43.034
1523.6600, -42.987
1523.6800, -42.946
1523.7000, -42.911
1523.7200, -42.862
1523.7400, -42.820
1523.7600, -42.781
1523.7800, -42.736
1523.8000, -42.693
1523.8200, -42.656
1523.8400, -42.612
1523.8600, -42.569
1523.8800, -42.529
1523.9000, -42.486
1523.9200, -42.445
1523.9400, -42.402
1523.9600, -42.360
1523.9800, -42.317
1524.0000, -42.276
1524.0200, -42.238
1524.0400, -42.197
1524.0600, -42.158
1524.0800, -42.109
1524.1000, -42.064
1524.1200, -42.023
1524.1400, -41.981
1524.1600, -41.937
1524.1800, -41.893
1524.2000, -41.854
1524.2200, -41.813
1524.2400, -41.773
1524.2600, -41.731
1524.2800, -41.691
1524.3000, -41.647
1524.3200, -41.608
1524.3400, -41.568
1524.3600, -41.528
1524.3800, -41.483
1524.4000, -41.441
1524.4200, -41.401
1524.4400, -41.359
1524.4600, -41.319
1524.4800, -41.286
1524.5000, -41.244
1524.5200, -41.199
1524.5400, -41.159
1524.5600, -41.120
1524.5800, -41.081
1524.6000, -41.044
1524.6200, -41.002
1524.6400, -40.961
1524.6600, -40.918
1524.6800, -40.876
1524.7000, -40.835
1524.7200, -40.798
1524.7400, -40.758
1524.7600, -40.719
1524.7800, -40.678
1524.8000, -40.638
1524.8200, -40.597
1524.8400, -40.557
1524.8600, -40.518
1524.8800, -40.478
1524.9000, -40.434
1524.9200, -40.394
1524.9400, -40.352
1524.9600, -40.308
1524.9800, -40.270
1525.0000, -40.229
1525.0200, -40.190
1525.0400, -40.148
1525.0600, -40.104
1525.0800, -40.060
1525.1000, -40.015
1525.1200, -39.979
1525.1400, -39.940
1525.1600, -39.899
1525.1800, -39.859
1525.2000, -39.817
1525.2200, -39.778
1525.2400, -39.737
1525.2600, -39.694
1525.2800, -39.656
1525.3000, -39.617
1525.3200, -39.574
1525.3400, -39.534
1525.3600, -39.497
1525.3800, -39.456
1525.4000, -39.416
1525.4200, -39.381
1525.4400, -39.340
1525.4600, -39.299
1525.4800, -39.259
1525.5000, -39.219
1525.5200, -39.178
1525.5400, -39.138
1525.5600, -39.099
1525.5800, -39.055
1525.6000, -39.013
1525.6200, -38.977
1525.6400, -38.940
1525.6600, -38.902
1525.6800, -38.860
1525.7000, -38.818
1525.7200, -38.776
1525.7400, -38.734
1525.7600, -38.696
1525.7800, -38.656
1525.8000, -38.617
1525.8200, -38.573
1525.8400, -38.531
1525.8600, -38.494
1525.8800, -38.452
1525.9000, -38.415
1525.9200, -38.376
1525.9400, -38.337
1525.9600, -38.297
1525.9800, -38.264
1526.0000, -38.230
1526.0200, -38.191
1526.0400, -38.149
1526.0600, -38.107
1526.0800, -38.067
1526.1000, -38.036
1526.1200, -37.997
1526.1400, -37.955
1526.1600, -37.919
1526.1800, -37.876
1526.2000, -37.830
1526.2200, -37.790
1526.2400, -37.750
1526.2600, -37.703
1526.2800, -37.663
1526.3000, -37.632
1526.3200, -37.587
1526.3400, -37.563
1526.3600, -37.530
1526.3800, -37.495
1526.4000, -37.459
1526.4200, -37.417
1526.4400, -37.377
1526.4600, -37.338
1526.4800, -37.303
1526.5000, -37.262
1526.5200, -37.224
1526.5400, -37.182
1526.5600, -37.146
1526.5800, -37.110
1526.6000, -37.066
1526.6200, -37.028
1526.6400, -36.992
1526.6600, -36.951
1526.6800, -36.916
1526.7000, -36.875
1526.7200, -36.836
1526.7400, -36.801
1526.7600, -36.764
1526.7800, -36.719
1526.8000, -36.680
1526.8200, -36.641
1526.8400, -36.609
1526.8600, -36.568
1526.8800, -36.525
1526.9000, -36.481
1526.9200, -36.448
1526.9400, -36.397
1526.9600, -36.351
1526.9800, -36.300
1527.0000, -36.260
1527.0200, -36.230
1527.0400, -36.190
1527.0600, -36.147
1527.0800, -36.107
1527.1000, -36.078
1527.1200, -36.040
1527.1400, -35.983
1527.1600, -35.950
1527.1800, -35.911
1527.2000, -35.856
1527.2200, -35.821
1527.2400, -35.783
1527.2600, -35.753
1527.2800, -35.723
1527.3000, -35.686
1527.3200, -35.640
1527.3400, -35.604
1527.3600, -35.562
1527.3800, -35.523
1527.4000, -35.476
1527.4200, -35.434
1527.4400, -35.396
1527.4600, -35.351
1527.4800, -35.300
1527.5000, -35.263
1527.5200, -35.208
1527.5400, -35.152
1527.5600, -35.116
1527.5800, -35.065
1527.6000, -35.026
1527.6200, -34.983
1527.6400, -34.944
1527.6600, -34.904
1527.6800, -34.858
1527.7000, -34.802
1527.7200, -34.761
1527.7400, -34.733
1527.7600, -34.678
1527.7800, -34.650
1527.8000, -34.609
1527.8200, -34.551
1527.8400, -34.519
1527.8600, -34.463
1527.8800, -34.422
1527.9000, -34.361
1527.9200, -34.307
1527.9400, -34.304
1527.9600, -34.250
1527.9800, -34.181
1528.0000, -34.146
1528.0200, -34.098
1528.0400, -34.067
1528.0600, -34.011
1528.0800, -33.979
1528.1000, -33.922
1528.1200, -33.888
1528.1400, -33.821
1528.1600, -33.767
1528.1800, -33.727
1528.2000, -33.715
1528.2200, -33.676
1528.2400, -33.636
1528.2600, -33.571
1528.2800, -33.538
1528.3000, -33.509
1528.3200, -33.480
1528.3400, -33.441
1528.3600, -33.382
1528.3800, -33.332
1528.4000, -33.296
1528.4200, -33.251
1528.4400, -33.220
1528.4600, -33.194
1528.4800, -33.142
1528.5000, -33.105
1528.5200, -33.048
1528.5400, -33.010
1528.5600, -32.967
1528.5800, -32.932
1528.6000, -32.890
1528.6200, -32.835
1528.6400, -32.801
1528.6600, -32.759
1528.6800, -32.730
1528.7000, -32.682
1528.7200, -32.616
1528.7400, -32.594
1528.7600, -32.549
1528.7800, -32.493
1528.8000, -32.439
1528.8200, -32.379
1528.8400, -32.314
1528.8600, -32.260
1528.8800, -32.227
1528.9000, -32.171
1528.9200, -32.126
1528.9400, -32.071
1528.9600, -32.014
1528.9800, -31.952
1529.0000, -31.931
1529.0200, -31.862
1529.0400, -31.803
1529.0600, -31.753
1529.0800, -31.693
1529.1000, -31.635
1529.1200, -31.604
1529.1400, -31.597
1529.1600, -31.550
1529.1800, -31.497
1529.2000, -31.427
1529.2200, -31.371
1529.2400, -31.283
1529.2600, -31.266
1529.2800, -31.218
1529.3000, -31.226
1529.3200, -31.165
1529.3400, -31.077
1529.3600, -31.100
1529.3800, -31.031
1529.4000, -30.988
1529.4200, -30.872
1529.4400, -30.857
1529.4600, -30.854
1529.4800, -30.777
1529.5000, -30.777
1529.5200, -30.735
1529.5400, -30.752
1529.5600, -30.665
1529.5800, -30.542
1529.6000, -30.583
1529.6200, -30.475
1529.6400, -30.377
1529.6600, -30.423
1529.6800, -30.287
1529.7000, -30.281
1529.7200, -30.266
1529.7400, -30.245
1529.7600, -30.268
1529.7800, -30.316
1529.8000, -30.116
1529.8200, -30.220
1529.8400, -29.975
1529.8600, -29.913
1529.8800, -29.973
1529.9000, -29.869
1529.9200, -29.961
1529.9400, -29.839
1529.9600, -29.726
1529.9800, -29.767
1530.0000, -29.640
1530.0200, -29.643
1530.0400, -29.676
1530.0600, -29.588
1530.0800, -29.638
1530.1000, -29.562
1530.1200, -29.672
1530.1400, -29.637
1530.1600, -29.530
1530.1800, -29.599
1530.2000, -29.567
1530.2200, -29.529
1530.2400, -29.481
1530.2600, -29.532
1530.2800, -29.536
1530.3000, -29.531
1530.3200, -29.479
1530.3400, -29.512
1530.3600, -29.324
1530.3800, -29.293
1530.4000, -29.189
1530.4200, -29.110
1530.4400, -29.168
1530.4600, -29.134
1530.4800, -28.986
1530.5000, -28.916
1530.5200, -28.829
1530.5400, -28.991
1530.5600, -28.954
1530.5800, -28.787
1530.6000, -28.737
1530.6200, -28.673
1530.6400, -28.692
1530.6600, -28.643
1530.6800, -28.536
1530.7000, -28.478
1530.7200, -28.473
1530.7400, -28.548
1530.7600, -28.419
1530.7800, -28.343
1530.8000, -28.418
1530.8200, -28.386
1530.8400, -28.291
1530.8600, -28.358
1530.8800, -28.294
1530.9000, -28.409
1530.9200, -28.261
1530.9400, -28.147
1530.9600, -28.136
1530.9800, -28.261
1531.0000, -28.380
1531.0200, -28.211
1531.0400, -28.238
1531.0600, -28.287
1531.0800, -28.411
1531.1000, -28.171
1531.1200, -28.252
1531.1400, -27.817
1531.1600, -28.130
1531.1800, -28.281
1531.2000, -28.368
1531.2200, -28.141
1531.2400, -28.035
1531.2600, -28.002
1531.2800, -28.082
1531.3000, -27.570
1531.3200, -27.634
1531.3400, -27.327
1531.3600, -27.405
1531.3800, -26.235
1531.4000, -26.390
1531.4200, -27.182
1531.4400, -26.994
1531.4600, -27.464
1531.4800, -26.824
1531.5000, -26.483
1531.5200, -26.731
1531.5400, -26.736
1531.5600, -25.983
1531.5800, -26.095
1531.6000, -26.519
1531.6200, -27.707
1531.6400, -27.277
1531.6600, -26.965
1531.6800, -27.450
1531.7000, -27.725
1531.7200, -27.542
1531.7400, -27.512
1531.7600, -27.229
1531.7800, -27.590
1531.8000, -27.758
1531.8200, -27.347
1531.8400, -27.807
1531.8600, -26.589
1531.8800, -26.242
1531.9000, -27.576
1531.9200, -27.314
1531.9400, -26.326
1531.9600, -26.382
1531.9800, -25.563
1532.0000, -25.912
1532.0200, -27.300
1532.0400, -26.744
1532.0600, -26.479
1532.0800, -25.977
1532.1000, -23.832
1532.1200, -25.244
1532.1400, -26.920
1532.1600, -25.329
1532.1800, -26.831
1532.2000, -27.066
1532.2200, -26.750
1532.2400, -26.968
1532.2600, -26.472
1532.2800, -26.262
1532.3000, -27.300
1532.3200, -26.178
1532.3400, -26.952
1532.3600, -26.553
1532.3800, -27.568
1532.4000, -26.801
1532.4200, -27.368
1532.4400, -27.403
1532.4600, -26.229
1532.4800, -27.006
1532.5000, -26.687
1532.5200, -26.843
1532.5400, -26.284
1532.5600, -26.189
1532.5800, -27.537
1532.6000, -26.786
1532.6200, -27.546
1532.6400, -26.623
1532.6600, -27.630
1532.6800, -26.659
1532.7000, -26.128
1532.7200, -27.372
1532.7400, -27.406
1532.7600, -26.260
1532.7800, -28.125
1532.8000, -27.023
1532.8200, -27.054
1532.8400, -28.082
1532.8600, -27.249
1532.8800, -27.543
1532.9000, -27.071
1532.9200, -28.234
1532.9400, -27.344
1532.9600, -28.070
1532.9800, -28.341
1533.0000, -28.585
1533.0200, -28.426
1533.0400, -28.345
1533.0600, -28.053
1533.0800, -28.108
1533.1000, -26.392
1533.1200, -28.015
1533.1400, -28.357
1533.1600, -28.424
1533.1800, -28.515
1533.2000, -28.092
1533.2200, -28.643
1533.2400, -28.246
1533.2600, -28.085
1533.2800, -28.196
1533.3000, -28.587
1533.3200, -28.736
1533.3400, -28.785
1533.3600, -28.111
1533.3800, -28.349
1533.4000, -28.646
1533.4200, -28.686
1533.4400, -28.993
1533.4600, -29.032
1533.4800, -29.031
1533.5000, -28.643
1533.5200, -28.684
1533.5400, -29.224
1533.5600, -29.421
1533.5800, -29.285
1533.6000, -29.213
1533.6200, -29.417
1533.6400, -29.591
1533.6600, -29.668
1533.6800, -29.707
1533.7000, -29.921
1533.7200, -29.790
1533.7400, -29.852
1533.7600, -30.076
1533.7800, -30.097
1533.8000, -30.277
1533.8200, -30.229
1533.8400, -30.325
1533.8600, -30.379
1533.8800, -30.440
1533.9000, -30.778
1533.9200, -30.863
1533.9400, -30.897
1533.9600, -30.867
1533.9800, -30.981
1534.0000, -30.897
1534.0200, -31.112
1534.0400, -30.997
1534.0600, -31.103
1534.0800, -31.242
1534.1000, -31.194
1534.1200, -31.477
1534.1400, -31.404
1534.1600, -31.449
1534.1800, -31.512
1534.2000, -31.582
1534.2200, -31.619
1534.2400, -31.781
1534.2600, -31.790
1534.2800, -31.851
1534.3000, -31.876
1534.3200, -32.002
1534.3400, -32.120
1534.3600, -32.193
1534.3800, -32.167
1534.4000, -32.279
1534.4200, -32.371
1534.4400, -32.385
1534.4600, -32.489
1534.4800, -32.514
1534.5000, -32.685
1534.5200, -32.681
1534.5400, -32.804
1534.5600, -32.869
1534.5800, -32.837
1534.6000, -32.959
1534.6200, -32.977
1534.6400, -33.023
1534.6600, -33.223
1534.6800, -33.143
1534.7000, -33.228
1534.7200, -33.310
1534.7400, -33.319
1534.7600, -33.429
1534.7800, -33.518
1534.8000, -33.555
1534.8200, -33.624
1534.8400, -33.708
1534.8600, -33.760
1534.8800, -33.881
1534.9000, -33.913
1534.9200, -33.972
1534.9400, -33.980
1534.9600, -33.986
1534.9800, -34.090
1535.0000, -34.097
1535.0200, -34.255
1535.0400, -34.376
1535.0600, -34.340
1535.0800, -34.433
1535.1000, -34.414
1535.1200, -34.489
1535.1400, -34.551
1535.1600, -34.572
1535.1800, -34.645
1535.2000, -34.646
1535.2200, -34.691
1535.2400, -34.790
1535.2600, -34.829
1535.2800, -34.924
1535.3000, -34.967
1535.3200, -35.000
1535.3400, -35.077
1535.3600, -35.139
1535.3800, -35.195
1535.4000, -35.245
1535.4200, -35.301
1535.4400, -35.326
1535.4600, -35.381
1535.4800, -35.450
1535.5000, -35.507
1535.5200, -35.564
1535.5400, -35.615
1535.5600, -35.664
1535.5800, -35.711
1535.6000, -35.773
1535.6200, -35.834
1535.6400, -35.889
1535.6600, -35.946
1535.6800, -36.007
1535.7000, -36.069
1535.7200, -36.132
1535.7400, -36.193
1535.7600, -36.246
1535.7800, -36.291
1535.8000, -36.358
1535.8200, -36.408
1535.8400, -36.466
1535.8600, -36.522
1535.8800, -36.578
1535.9000, -36.614
1535.9200, -36.663
1535.9400, -36.716
1535.9600, -36.764
1535.9800, -36.813
1536.0000, -36.860
1536.0200, -36.902
1536.0400, -36.949
1536.0600, -36.992
1536.0800, -37.036
1536.1000, -37.077
1536.1200, -37.133
1536.1400, -37.174
1536.1600, -37.233
1536.1800, -37.280
1536.2000, -37.316
1536.2200, -37.359
1536.2400, -37.395
1536.2600, -37.429
1536.2800, -37.477
1536.3000, -37.512
1536.3200, -37.558
1536.3400, -37.596
1536.3600, -37.642
1536.3800, -37.680
1536.4000, -37.717
1536.4200, -37.755
1536.4400, -37.799
1536.4600, -37.822
1536.4800, -37.870
1536.5000, -37.919
1536.5200, -37.965
1536.5400, -38.011
1536.5600, -38.053
1536.5800, -38.090
1536.6000, -38.121
1536.6200, -38.159
1536.6400, -38.195
1536.6600, -38.233
1536.6800, -38.265
1536.7000, -38.297
1536.7200, -38.335
1536.7400, -38.372
1536.7600, -38.402
1536.7800, -38.438
1536.8000, -38.471
1536.8200, -38.504
1536.8400, -38.546
1536.8600, -38.582
1536.8800, -38.619
1536.9000, -38.650
1536.9200, -38.683
1536.9400, -38.710
1536.9600, -38.743
1536.9800, -38.769
1537.0000, -38.804
1537.0200, -38.840
1537.0400, -38.869
1537.0600, -38.906
1537.0800, -38.942
1537.1000, -38.972
1537.1200, -39.001
1537.1400, -39.021
1537.1600, -39.042
1537.1800, -39.069
1537.2000, -39.106
1537.2200, -39.129
1537.2400, -39.147
1537.2600, -39.188
1537.2800, -39.195
1537.3000, -39.229
1537.3200, -39.263
1537.3400, -39.278
1537.3600, -39.301
1537.3800, -39.326
1537.4000, -39.354
1537.4200, -39.382
1537.4400, -39.417
1537.4600, -39.442
1537.4800, -39.468
1537.5000, -39.482
1537.5200, -39.506
1537.5400, -39.538
1537.5600, -39.562
1537.5800, -39.582
1537.6000, -39.607
1537.6200, -39.640
1537.6400, -39.659
1537.6600, -39.678
1537.6800, -39.704
1537.7000, -39.724
1537.7200, -39.745
1537.7400, -39.775
1537.7600, -39.788
1537.7800, -39.811
1537.8000, -39.832
1537.8200, -39.857
1537.8400, -39.876
1537.8600, -39.887
1537.8800, -39.907
1537.9000, -39.939
1537.9200, -39.955
1537.9400, -39.975
1537.9600, -39.981
1537.9800, -40.008
1538.0000, -40.019
1538.0200, -40.043
1538.0400, -40.053
1538.0600, -40.074
1538.0800, -40.094
1538.1000, -40.110
1538.1200, -40.135
1538.1400, -40.143
1538.1600, -40.163
1538.1800, -40.186
1538.2000, -40.193
1538.2200, -40.218
1538.2400, -40.234
1538.2600, -40.244
1538.2800, -40.256
1538.3000, -40.266
1538.3200, -40.272
1538.3400, -40.292
1538.3600, -40.313
1538.3800, -40.333
1538.4000, -40.344
1538.4200, -40.359
1538.4400, -40.373
1538.4600, -40.387
1538.4800, -40.390
1538.5000, -40.407
1538.5200, -40.415
1538.5400, -40.435
1538.5600, -40.447
1538.5800, -40.458
1538.6000, -40.473
1538.6200, -40.488
1538.6400, -40.494
1538.6600, -40.509
1538.6800, -40.521
1538.7000, -40.535
1538.7200, -40.544
1538.7400, -40.553
1538.7600, -40.563
1538.7800, -40.572
1538.8000, -40.581
1538.8200, -40.587
1538.8400, -40.593
1538.8600, -40.599
1538.8800, -40.607
1538.9000, -40.622
1538.9200, -40.619
1538.9400, -40.629
1538.9600, -40.636
1538.9800, -40.651
1539.0000, -40.657
1539.0200, -40.663
1539.0400, -40.676
1539.0600, -40.677
1539.0800, -40.683
1539.1000, -40.686
1539.1200, -40.699
1539.1400, -40.701
1539.1600, -40.715
1539.1800, -40.715
1539.2000, -40.723
1539.2200, -40.720
1539.2400, -40.732
1539.2600, -40.729
1539.2800, -40.729
1539.3000, -40.755
1539.3200, -40.764
1539.3400, -40.768
1539.3600, -40.767
1539.3800, -40.767
1539.4000, -40.787
1539.4200, -40.786
1539.4400, -40.787
1539.4600, -40.796
1539.4800, -40.798
1539.5000, -40.804
1539.5200, -40.813
1539.5400, -40.819
1539.5600, -40.823
1539.5800, -40.831
1539.6000, -40.845
1539.6200, -40.846
1539.6400, -40.852
1539.6600, -40.855
1539.6800, -40.859
1539.7000, -40.858
1539.7200, -40.860
1539.7400, -40.861
1539.7600, -40.857
1539.7800, -40.856
1539.8000, -40.865
1539.8200, -40.872
1539.8400, -40.866
1539.8600, -40.869
1539.8800, -40.865
1539.9000, -40.874
1539.9200, -40.884
1539.9400, -40.882
1539.9600, -40.891
1539.9800, -40.886
1540.0000, -40.880
1540.0200, -40.883
1540.0400, -40.890
1540.0600, -40.890
1540.0800, -40.901
1540.1000, -40.897
1540.1200, -40.899
1540.1400, -40.898
1540.1600, -40.908
1540.1800, -40.906
1540.2000, -40.910
1540.2200, -40.917
1540.2400, -40.919
1540.2600, -40.916
1540.2800, -40.909
1540.3000, -40.910
1540.3200, -40.909
1540.3400, -40.901
1540.3600, -40.900
1540.3800, -40.901
1540.4000, -40.903
1540.4200, -40.895
1540.4400, -40.898
1540.4600, -40.891
1540.4800, -40.891
1540.5000, -40.891
1540.5200, -40.899
1540.5400, -40.892
1540.5600, -40.892
1540.5800, -40.891
1540.6000, -40.888
1540.6200, -40.881
1540.6400, -40.883
1540.6600, -40.877
1540.6800, -40.883
1540.7000, -40.879
1540.7200, -40.871
1540.7400, -40.873
1540.7600, -40.862
1540.7800, -40.863
1540.8000, -40.861
1540.8200, -40.853
1540.8400, -40.858
1540.8600, -40.855
1540.8800, -40.850
1540.9000, -40.849
1540.9200, -40.848
1540.9400, -40.850
1540.9600, -40.843
1540.9800, -40.847
1541.0000, -40.850
1541.0200, -40.838
1541.0400, -40.838
1541.0600, -40.839
1541.0800, -40.833
1541.1000, -40.832
1541.1200, -40.832
1541.1400, -40.827
1541.1600, -40.824
1541.1800, -40.824
1541.2000, -40.817
1541.2200, -40.818
1541.2400, -40.821
1541.2600, -40.812
1541.2800, -40.809
1541.3000, -40.809
1541.3200, -40.807
1541.3400, -40.804
1541.3600, -40.806
1541.3800, -40.802
1541.4000, -40.804
1541.4200, -40.797
1541.4400, -40.797
1541.4600, -40.792
1541.4800, -40.791
1541.5000, -40.788
1541.5200, -40.780
1541.5400, -40.770
1541.5600, -40.775
1541.5800, -40.761
1541.6000, -40.766
1541.6200, -40.767
1541.6400, -40.762
1541.6600, -40.762
1541.6800, -40.751
1541.7000, -40.743
1541.7200, -40.741
1541.7400, -40.743
1541.7600, -40.738
1541.7800, -40.733
1541.8000, -40.728
1541.8200, -40.721
1541.8400, -40.722
1541.8600, -40.720
1541.8800, -40.715
1541.9000, -40.721
1541.9200, -40.712
1541.9400, -40.703
1541.9600, -40.692
1541.9800, -40.698
1542.0000, -40.692
1542.0200, -40.689
1542.0400, -40.686
1542.0600, -40.676
1542.0800, -40.673
1542.1000, -40.669
1542.1200, -40.667
1542.1400, -40.664
1542.1600, -40.658
1542.1800, -40.652
1542.2000, -40.660
1542.2200, -40.652
1542.2400, -40.649
1542.2600, -40.648
1542.2800, -40.642
1542.3000, -40.634
1542.3200, -40.634
1542.3400, -40.632
1542.3600, -40.628
1542.3800, -40.622
1542.4000, -40.618
1542.4200, -40.615
1542.4400, -40.605
1542.4600, -40.601
1542.4800, -40.597
1542.5000, -40.593
1542.5200, -40.594
1542.5400, -40.578
1542.5600, -40.582
1542.5800, -40.582
1542.6000, -40.572
1542.6200, -40.568
1542.6400, -40.564
1542.6600, -40.562
1542.6800, -40.548
1542.7000, -40.552
1542.7200, -40.543
1542.7400, -40.534
1542.7600, -40.532
1542.7800, -40.534
1542.8000, -40.533
1542.8200, -40.529
1542.8400, -40.523
1542.8600, -40.512
1542.8800, -40.505
1542.9000, -40.496
1542.9200, -40.499
1542.9400, -40.498
1542.9600, -40.495
1542.9800, -40.490
1543.0000, -40.483
1543.0200, -40.476
1543.0400, -40.472
1543.0600, -40.466
1543.0800, -40.452
1543.1000, -40.458
1543.1200, -40.453
1543.1400, -40.447
1543.1600, -40.451
1543.1800, -40.443
1543.2000, -40.439
1543.2200, -40.437
1543.2400, -40.432
1543.2600, -40.431
1543.2800, -40.433
1543.3000, -40.428
1543.3200, -40.424
1543.3400, -40.418
1543.3600, -40.417
1543.3800, -40.416
1543.4000, -40.403
1543.4200, -40.400
1543.4400, -40.411
1543.4600, -40.403
1543.4800, -40.403
1543.5000, -40.403
1543.5200, -40.390
1543.5400, -40.389
1543.5600, -40.378
1543.5800, -40.381
1543.6000, -40.382
1543.6200, -40.375
1543.6400, -40.380
1543.6600, -40.370
1543.6800, -40.372
1543.7000, -40.377
1543.7200, -40.376
1543.7400, -40.360
1543.7600, -40.354
1543.7800, -40.341
1543.8000, -40.334
1543.8200, -40.339
1543.8400, -40.351
1543.8600, -40.352
1543.8800, -40.352
1543.9000, -40.334
1543.9200, -40.345
1543.9400, -40.345
1543.9600, -40.347
1543.9800, -40.340
1544.0000, -40.340
1544.0200, -40.339
1544.0400, -40.338
1544.0600, -40.336
1544.0800, -40.334
1544.1000, -40.321
1544.1200, -40.329
1544.1400, -40.326
1544.1600, -40.319
1544.1800, -40.319
1544.2000, -40.320
1544.2200, -40.318
1544.2400, -40.314
1544.2600, -40.312
1544.2800, -40.307
1544.3000, -40.316
1544.3200, -40.302
1544.3400, -40.314
1544.3600, -40.295
1544.3800, -40.300
1544.4000, -40.300
1544.4200, -40.284
1544.4400, -40.287
1544.4600, -40.273
1544.4800, -40.292
1544.5000, -40.286
1544.5200, -40.276
1544.5400, -40.281
1544.5600, -40.263
1544.5800, -40.266
1544.6000, -40.262
1544.6200, -40.270
1544.6400, -40.263
1544.6600, -40.259
1544.6800, -40.248
1544.7000, -40.250
1544.7200, -40.247
1544.7400, -40.251
1544.7600, -40.265
1544.7800, -40.265
1544.8000, -40.255
1544.8200, -40.262
1544.8400, -40.261
1544.8600, -40.253
1544.8800, -40.252
1544.9000, -40.251
1544.9200, -40.254
1544.9400, -40.251
1544.9600, -40.243
1544.9800, -40.252
1545.0000, -40.243
1545.0200, -40.239
1545.0400, -40.249
1545.0600, -40.244
1545.0800, -40.250
1545.1000, -40.250
1545.1200, -40.249
1545.1400, -40.245
1545.1600, -40.244
1545.1800, -40.244
1545.2000, -40.241
1545.2200, -40.231
1545.2400, -40.243
1545.2600, -40.239
1545.2800, -40.243
1545.3000, -40.251
1545.3200, -40.248
1545.3400, -40.242
1545.3600, -40.238
1545.3800, -40.249
1545.4000, -40.260
1545.4200, -40.252
1545.4400, -40.252
1545.4600, -40.240
1545.4800, -40.243
1545.5000, -40.233
1545.5200, -40.231
1545.5400, -40.234
1545.5600, -40.221
1545.5800, -40.223
1545.6000, -40.215
1545.6200, -40.209
1545.6400, -40.217
1545.6600, -40.238
1545.6800, -40.244
1545.7000, -40.241
1545.7200, -40.234
1545.7400, -40.243
1545.7600, -40.240
1545.7800, -40.240
1545.8000, -40.236
1545.8200, -40.232
1545.8400, -40.235
1545.8600, -40.235
1545.8800, -40.240
1545.9000, -40.241
1545.9200, -40.235
1545.9400, -40.242
1545.9600, -40.242
1545.9800, -40.240
1546.0000, -40.243
1546.0200, -40.244
1546.0400, -40.237
1546.0600, -40.229
1546.0800, -40.221
1546.1000, -40.223
1546.1200, -40.223
1546.1400, -40.216
1546.1600, -40.220
1546.1800, -40.213
1546.2000, -40.226
1546.2200, -40.227
1546.2400, -40.219
1546.2600, -40.220
1546.2800, -40.214
1546.3000, -40.219
1546.3200, -40.221
1546.3400, -40.213
1546.3600, -40.214
1546.3800, -40.208
1546.4000, -40.208
1546.4200, -40.214
1546.4400, -40.220
1546.4600, -40.212
1546.4800, -40.214
1546.5000, -40.209
1546.5200, -40.206
1546.5400, -40.207
1546.5600, -40.228
1546.5800, -40.231
1546.6000, -40.230
1546.6200, -40.218
1546.6400, -40.226
1546.6600, -40.233
1546.6800, -40.236
1546.7000, -40.229
1546.7200, -40.225
1546.7400, -40.228
1546.7600, -40.228
1546.7800, -40.223
1546.8000, -40.222
1546.8200, -40.224
1546.8400, -40.223
1546.8600, -40.223
1546.8800, -40.222
1546.9000, -40.223
1546.9200, -40.224
1546.9400, -40.224
1546.9600, -40.224
1546.9800, -40.225
1547.0000, -40.219
1547.0200, -40.227
1547.0400, -40.217
1547.0600, -40.220
1547.0800, -40.212
1547.1000, -40.223
1547.1200, -40.228
1547.1400, -40.225
1547.1600, -40.230
1547.1800, -40.224
1547.2000, -40.219
1547.2200, -40.238
1547.2400, -40.226
1547.2600, -40.238
1547.2800, -40.233
1547.3000, -40.236
1547.3200, -40.232
1547.3400, -40.247
1547.3600, -40.241
1547.3800, -40.244
1547.4000, -40.233
1547.4200, -40.233
1547.4400, -40.228
1547.4600, -40.247
1547.4800, -40.248
1547.5000, -40.246
1547.5200, -40.243
1547.5400, -40.246
1547.5600, -40.248
1547.5800, -40.249
1547.6000, -40.240
1547.6200, -40.239
1547.6400, -40.250
1547.6600, -40.254
1547.6800, -40.246
1547.7000, -40.258
1547.7200, -40.260
1547.7400, -40.268
1547.7600, -40.264
1547.7800, -40.266
1547.8000, -40.268
1547.8200, -40.270
1547.8400, -40.272
1547.8600, -40.273
1547.8800, -40.267
1547.9000, -40.270
1547.9200, -40.270
1547.9400, -40.263
1547.9600, -40.278
1547.9800, -40.269
1548.0000, -40.283
1548.0200, -40.287
1548.0400, -40.285
1548.0600, -40.286
1548.0800, -40.276
1548.1000, -40.273
1548.1200, -40.275
1548.1400, -40.274
1548.1600, -40.270
1548.1800, -40.266
1548.2000, -40.278
1548.2200, -40.279
1548.2400, -40.277
1548.2600, -40.284
1548.2800, -40.285
1548.3000, -40.289
1548.3200, -40.287
1548.3400, -40.282
1548.3600, -40.292
1548.3800, -40.299
1548.4000, -40.302
1548.4200, -40.300
1548.4400, -40.299
1548.4600, -40.301
1548.4800, -40.310
1548.5000, -40.312
1548.5200, -40.311
1548.5400, -40.306
1548.5600, -40.303
1548.5800, -40.307
1548.6000, -40.316
1548.6200, -40.318
1548.6400, -40.322
1548.6600, -40.325
1548.6800, -40.321
1548.7000, -40.327
1548.7200, -40.332
1548.7400, -40.333
1548.7600, -40.332
1548.7800, -40.336
1548.8000, -40.342
1548.8200, -40.341
1548.8400, -40.338
1548.8600, -40.348
1548.8800, -40.342
1548.9000, -40.342
1548.9200, -40.347
1548.9400, -40.346
1548.9600, -40.338
1548.9800, -40.346
1549.0000, -40.350
1549.0200, -40.346
1549.0400, -40.352
1549.0600, -40.353
1549.0800, -40.350
1549.1000, -40.359
1549.1200, -40.348
1549.1400, -40.358
1549.1600, -40.362
1549.1800, -40.354
1549.2000, -40.360
1549.2200, -40.363
1549.2400, -40.367
1549.2600, -40.378
1549.2800, -40.380
1549.3000, -40.381
1549.3200, -40.376
1549.3400, -40.373
1549.3600, -40.370
1549.3800, -40.372
1549.4000, -40.378
1549.4200, -40.379
1549.4400, -40.384
1549.4600, -40.386
1549.4800, -40.386
1549.5000, -40.395
1549.5200, -40.400
1549.5400, -40.403
1549.5600, -40.404
1549.5800, -40.408
1549.6000, -40.408
1549.6200, -40.416
1549.6400, -40.417
1549.6600, -40.416
1549.6800, -40.422
1549.7000, -40.421
1549.7200, -40.424
1549.7400, -40.414
1549.7600, -40.429
1549.7800, -40.425
1549.8000, -40.438
1549.8200, -40.449
1549.8400, -40.449
1549.8600, -40.449
1549.8800, -40.454
1549.9000, -40.463
1549.9200, -40.452
1549.9400, -40.455
1549.9600, -40.455
1549.9800, -40.464
1550.0000, -40.468
1550.0200, -40.466
1550.0400, -40.474
1550.0600, -40.471
1550.0800, -40.461
1550.1000, -40.476
1550.1200, -40.475
1550.1400, -40.471
1550.1600, -40.475
1550.1800, -40.478
1550.2000, -40.482
1550.2200, -40.472
1550.2400, -40.480
1550.2600, -40.488
1550.2800, -40.496
1550.3000, -40.498
1550.3200, -40.504
1550.3400, -40.501
1550.3600, -40.507
1550.3800, -40.509
1550.4000, -40.518
1550.4200, -40.518
1550.4400, -40.523
1550.4600, -40.522
1550.4800, -40.525
1550.5000, -40.526
1550.5200, -40.531
1550.5400, -40.533
1550.5600, -40.531
1550.5800, -40.531
1550.6000, -40.530
1550.6200, -40.532
1550.6400, -40.537
1550.6600, -40.552
1550.6800, -40.540
1550.7000, -40.556
1550.7200, -40.561
1550.7400, -40.565
1550.7600, -40.564
1550.7800, -40.571
1550.8000, -40.571
1550.8200, -40.573
1550.8400, -40.579
1550.8600, -40.580
1550.8800, -40.583
1550.9000, -40.591
1550.9200, -40.596
1550.9400, -40.596
1550.9600, -40.597
1550.9800, -40.594
1551.0000, -40.596
1551.0200, -40.599
1551.0400, -40.600
1551.0600, -40.598
1551.0800, -40.610
1551.1000, -40.615
1551.1200, -40.616
1551.1400, -40.613
1551.1600, -40.619
1551.1800, -40.629
1551.2000, -40.632
1551.2200, -40.633
1551.2400, -40.639
1551.2600, -40.644
1551.2800, -40.645
1551.3000, -40.653
1551.3200, -40.653
1551.3400, -40.658
1551.3600, -40.659
1551.3800, -40.661
1551.4000, -40.663
1551.4200, -40.665
1551.4400, -40.666
1551.4600, -40.663
1551.4800, -40.666
1551.5000, -40.668
1551.5200, -40.672
1551.5400, -40.666
1551.5600, -40.675
1551.5800, -40.670
1551.6000, -40.679
1551.6200, -40.683
1551.6400, -40.687
1551.6600, -40.685
1551.6800, -40.692
1551.7000, -40.702
1551.7200, -40.696
1551.7400, -40.703
1551.7600, -40.703
1551.7800, -40.705
1551.8000, -40.720
1551.8200, -40.725
1551.8400, -40.728
1551.8600, -40.732
1551.8800, -40.725
1551.9000, -40.727
1551.9200, -40.733
1551.9400, -40.727
1551.9600, -40.741
1551.9800, -40.743
1552.0000, -40.743
1552.0200, -40.747
1552.0400, -40.749
1552.0600, -40.753
1552.0800, -40.755
1552.1000, -40.762
1552.1200, -40.761
1552.1400, -40.774
1552.1600, -40.775
1552.1800, -40.782
1552.2000, -40.789
1552.2200, -40.790
1552.2400, -40.790
1552.2600, -40.799
1552.2800, -40.798
1552.3000, -40.803
1552.3200, -40.807
1552.3400, -40.806
1552.3600, -40.805
1552.3800, -40.809
1552.4000, -40.809
1552.4200, -40.814
1552.4400, -40.811
1552.4600, -40.809
1552.4800, -40.813
1552.5000, -40.816
1552.5200, -40.827
1552.5400, -40.823
1552.5600, -40.822
1552.5800, -40.825
1552.6000, -40.837
1552.6200, -40.833
1552.6400, -40.840
1552.6600, -40.843
1552.6800, -40.849
1552.7000, -40.859
1552.7200, -40.859
1552.7400, -40.863
1552.7600, -40.864
1552.7800, -40.862
1552.8000, -40.861
1552.8200, -40.869
1552.8400, -40.870
1552.8600, -40.879
1552.8800, -40.883
1552.9000, -40.886
1552.9200, -40.885
1552.9400, -40.884
1552.9600, -40.887
1552.9800, -40.887
1553.0000, -40.891
1553.0200, -40.890
1553.0400, -40.891
1553.0600, -40.897
1553.0800, -40.899
1553.1000, -40.904
1553.1200, -40.904
1553.1400, -40.908
1553.1600, -40.909
1553.1800, -40.915
1553.2000, -40.920
1553.2200, -40.922
1553.2400, -40.927
1553.2600, -40.931
1553.2800, -40.933
1553.3000, -40.938
1553.3200, -40.943
1553.3400, -40.938
1553.3600, -40.948
1553.3800, -40.944
1553.4000, -40.945
1553.4200, -40.947
1553.4400, -40.943
1553.4600, -40.945
1553.4800, -40.945
1553.5000, -40.950
1553.5200, -40.947
1553.5400, -40.950
1553.5600, -40.954
1553.5800, -40.958
1553.6000, -40.971
1553.6200, -40.971
1553.6400, -40.980
1553.6600, -40.981
1553.6800, -40.979
1553.7000, -40.979
1553.7200, -40.985
1553.7400, -40.981
1553.7600, -40.975
1553.7800, -40.996
1553.8000, -40.997
1553.8200, -40.999
1553.8400, -41.001
1553.8600, -41.002
1553.8800, -41.009
1553.9000, -41.010
1553.9200, -41.013
1553.9400, -41.012
1553.9600, -41.015
1553.9800, -41.018
1554.0000, -41.022
1554.0200, -41.025
1554.0400, -41.029
1554.0600, -41.035
1554.0800, -41.041
1554.1000, -41.046
1554.1200, -41.050
1554.1400, -41.055
1554.1600, -41.053
1554.1800, -41.050
1554.2000, -41.054
1554.2200, -41.058
1554.2400, -41.058
1554.2600, -41.062
1554.2800, -41.070
1554.3000, -41.069
1554.3200, -41.070
1554.3400, -41.067
1554.3600, -41.065
1554.3800, -41.062
1554.4000, -41.059
1554.4200, -41.065
1554.4400, -41.058
1554.4600, -41.069
1554.4800, -41.064
1554.5000, -41.071
1554.5200, -41.074
1554.5400, -41.079
1554.5600, -41.082
1554.5800, -41.079
1554.6000, -41.079
1554.6200, -41.076
1554.6400, -41.070
1554.6600, -41.086
1554.6800, -41.093
1554.7000, -41.096
1554.7200, -41.102
1554.7400, -41.103
1554.7600, -41.102
1554.7800, -41.106
1554.8000, -41.104
1554.8200, -41.109
1554.8400, -41.111
1554.8600, -41.111
1554.8800, -41.119
1554.9000, -41.124
1554.9200, -41.124
1554.9400, -41.124
1554.9600, -41.127
1554.9800, -41.126
1555.0000, -41.130
1555.0200, -41.133
1555.0400, -41.131
1555.0600, -41.130
1555.0800, -41.134
1555.1000, -41.141
1555.1200, -41.128
1555.1400, -41.131
1555.1600, -41.141
1555.1800, -41.143
1555.2000, -41.151
1555.2200, -41.146
1555.2400, -41.144
1555.2600, -41.152
1555.2800, -41.158
1555.3000, -41.161
1555.3200, -41.165
1555.3400, -41.168
1555.3600, -41.160
1555.3800, -41.170
1555.4000, -41.175
1555.4200, -41.176
1555.4400, -41.172
1555.4600, -41.175
1555.4800, -41.173
1555.5000, -41.173
1555.5200, -41.182
1555.5400, -41.177
1555.5600, -41.194
1555.5800, -41.198
1555.6000, -41.201
1555.6200, -41.196
1555.6400, -41.207
1555.6600, -41.210
1555.6800, -41.215
1555.7000, -41.208
1555.7200, -41.210
1555.7400, -41.212
1555.7600, -41.210
1555.7800, -41.219
1555.8000, -41.220
1555.8200, -41.224
1555.8400, -41.232
1555.8600, -41.229
1555.8800, -41.236
1555.9000, -41.236
1555.9200, -41.237
1555.9400, -41.240
1555.9600, -41.242
1555.9800, -41.250
1556.0000, -41.249
1556.0200, -41.250
1556.0400, -41.259
1556.0600, -41.265
1556.0800, -41.268
1556.1000, -41.270
1556.1200, -41.269
1556.1400, -41.279
1556.1600, -41.278
1556.1800, -41.280
1556.2000, -41.290
1556.2200, -41.285
1556.2400, -41.286
1556.2600, -41.289
1556.2800, -41.292
1556.3000, -41.293
1556.3200, -41.293
1556.3400, -41.295
1556.3600, -41.295
1556.3800, -41.303
1556.4000, -41.294
1556.4200, -41.302
1556.4400, -41.300
1556.4600, -41.314
1556.4800, -41.319
1556.5000, -41.310
1556.5200, -41.313
1556.5400, -41.325
1556.5600, -41.329
1556.5800, -41.323
1556.6000, -41.326
1556.6200, -41.330
1556.6400, -41.334
1556.6600, -41.337
1556.6800, -41.347
1556.7000, -41.351
1556.7200, -41.352
1556.7400, -41.356
1556.7600, -41.361
1556.7800, -41.366
1556.8000, -41.370
1556.8200, -41.374
1556.8400, -41.375
1556.8600, -41.372
1556.8800, -41.385
1556.9000, -41.382
1556.9200, -41.386
1556.9400, -41.387
1556.9600, -41.395
1556.9800, -41.394
1557.0000, -41.395
1557.0200, -41.395
1557.0400, -41.400
1557.0600, -41.401
1557.0800, -41.399
1557.1000, -41.406
1557.1200, -41.406
1557.1400, -41.404
1557.1600, -41.414
1557.1800, -41.415
1557.2000, -41.421
1557.2200, -41.426
1557.2400, -41.423
1557.2600, -41.432
1557.2800, -41.435
1557.3000, -41.441
1557.3200, -41.451
1557.3400, -41.459
1557.3600, -41.465
1557.3800, -41.468
1557.4000, -41.473
1557.4200, -41.479
1557.4400, -41.491
1557.4600, -41.495
1557.4800, -41.495
1557.5000, -41.509
1557.5200, -41.509
1557.5400, -41.513
1557.5600, -41.520
1557.5800, -41.518
1557.6000, -41.527
1557.6200, -41.536
1557.6400, -41.534
1557.6600, -41.541
1557.6800, -41.548
1557.7000, -41.555
1557.7200, -41.561
1557.7400, -41.561
1557.7600, -41.567
1557.7800, -41.571
1557.8000, -41.577
1557.8200, -41.576
1557.8400, -41.582
1557.8600, -41.577
1557.8800, -41.582
1557.9000, -41.584
1557.9200, -41.582
1557.9400, -41.587
1557.9600, -41.599
1557.9800, -41.601
1558.0000, -41.603
1558.0200, -41.614
1558.0400, -41.608
1558.0600, -41.618
1558.0800, -41.629
1558.1000, -41.640
1558.1200, -41.645
1558.1400, -41.649
1558.1600, -41.647
1558.1800, -41.656
1558.2000, -41.663
1558.2200, -41.673
1558.2400, -41.678
1558.2600, -41.683
1558.2800, -41.690
1558.3000, -41.683
1558.3200, -41.699
1558.3400, -41.703
1558.3600, -41.709
1558.3800, -41.719
1558.4000, -41.725
1558.4200, -41.727
1558.4400, -41.730
1558.4600, -41.736
1558.4800, -41.737
1558.5000, -41.750
1558.5200, -41.754
1558.5400, -41.757
1558.5600, -41.768
1558.5800, -41.772
1558.6000, -41.779
1558.6200, -41.783
1558.6400, -41.788
1558.6600, -41.799
1558.6800, -41.801
1558.7000, -41.808
1558.7200, -41.808
1558.7400, -41.815
1558.7600, -41.823
1558.7800, -41.829
1558.8000, -41.837
1558.8200, -41.839
1558.8400, -41.849
1558.8600, -41.859
1558.8800, -41.863
1558.9000, -41.870
1558.9200, -41.879
1558.9400, -41.887
1558.9600, -41.892
1558.9800, -41.901
1559.0000, -41.915
1559.0200, -41.918
1559.0400, -41.924
1559.0600, -41.927
1559.0800, -41.942
1559.1000, -41.947
1559.1200, -41.963
1559.1400, -41.971
1559.1600, -41.980
1559.1800, -41.981
1559.2000, -41.998
1559.2200, -42.012
1559.2400, -42.014
1559.2600, -42.022
1559.2800, -42.029
1559.3000, -42.033
1559.3200, -42.041
1559.3400, -42.056
1559.3600, -42.057
1559.3800, -42.071
1559.4000, -42.075
1559.4200, -42.083
1559.4400, -42.092
1559.4600, -42.103
1559.4800, -42.106
1559.5000, -42.119
1559.5200, -42.129
1559.5400, -42.145
1559.5600, -42.150
1559.5800, -42.163
1559.6000, -42.161
1559.6200, -42.175
1559.6400, -42.182
1559.6600, -42.198
1559.6800, -42.204
1559.7000, -42.211
1559.7200, -42.214
1559.7400, -42.228
1559.7600, -42.239
1559.7800, -42.247
1559.8000, -42.256
1559.8200, -42.265
1559.8400, -42.275
1559.8600, -42.274
1559.8800, -42.289
1559.9000, -42.299
1559.9200, -42.306
1559.9400, -42.306
1559.9600, -42.320
1559.9800, -42.330
1560.0000, -42.348
1560.0200, -42.362
1560.0400, -42.373
1560.0600, -42.379
1560.0800, -42.390
1560.1000, -42.404
1560.1200, -42.409
1560.1400, -42.416
1560.1600, -42.428
1560.1800, -42.439
1560.2000, -42.451
1560.2200, -42.463
1560.2400, -42.472
1560.2600, -42.485
1560.2800, -42.501
1560.3000, -42.509
1560.3200, -42.523
1560.3400, -42.532
1560.3600, -42.541
1560.3800, -42.548
1560.4000, -42.557
1560.4200, -42.567
1560.4400, -42.577
1560.4600, -42.590
1560.4800, -42.603
1560.5000, -42.610
1560.5200, -42.623
1560.5400, -42.641
1560.5600, -42.649
1560.5800, -42.662
1560.6000, -42.669
1560.6200, -42.682
1560.6400, -42.699
1560.6600, -42.713
1560.6800, -42.728
1560.7000, -42.737
1560.7200, -42.753
1560.7400, -42.759
1560.7600, -42.768
1560.7800, -42.782
1560.8000, -42.791
1560.8200, -42.794
1560.8400, -42.804
1560.8600, -42.820
1560.8800, -42.837
1560.9000, -42.854
1560.9200, -42.864
1560.9400, -42.873
1560.9600, -42.881
1560.9800, -42.901
1561.0000, -42.912
1561.0200, -42.923
1561.0400, -42.936
1561.0600, -42.949
1561.0800, -42.961
1561.1000, -42.974
1561.1200, -42.990
1561.1400, -43.000
1561.1600, -43.015
1561.1800, -43.032
1561.2000, -43.042
1561.2200, -43.050
1561.2400, -43.069
1561.2600, -43.084
1561.2800, -43.096
1561.3000, -43.103
1561.3200, -43.119
1561.3400, -43.133
1561.3600, -43.152
1561.3800, -43.160
1561.4000, -43.179
1561.4200, -43.194
1561.4400, -43.214
1561.4600, -43.228
1561.4800, -43.237
1561.5000, -43.248
1561.5200, -43.264
1561.5400, -43.282
1561.5600, -43.298
1561.5800, -43.312
1561.6000, -43.319
1561.6200, -43.335
1561.6400, -43.355
1561.6600, -43.368
1561.6800, -43.384
1561.7000, -43.394
1561.7200, -43.407
1561.7400, -43.434
1561.7600, -43.449
1561.7800, -43.463
1561.8000, -43.475
1561.8200, -43.485
1561.8400, -43.497
1561.8600, -43.519
1561.8800, -43.533
1561.9000, -43.540
1561.9200, -43.556
1561.9400, -43.569
1561.9600, -43.585
1561.9800, -43.601
1562.0000, -43.614
1562.0200, -43.625
1562.0400, -43.644
1562.0600, -43.664
1562.0800, -43.678
1562.1000, -43.693
1562.1200, -43.710
1562.1400, -43.727
1562.1600, -43.744
1562.1800, -43.757
1562.2000, -43.778
1562.2200, -43.786
1562.2400, -43.803
1562.2600, -43.820
1562.2800, -43.836
1562.3000, -43.850
1562.3200, -43.870
1562.3400, -43.890
1562.3600, -43.903
1562.3800, -43.912
1562.4000, -43.933
1562.4200, -43.952
1562.4400, -43.967
1562.4600, -43.982
1562.4800, -43.998
1562.5000, -44.013
1562.5200, -44.026
1562.5400, -44.048
1562.5600, -44.061
1562.5800, -44.075
1562.6000, -44.087
1562.6200, -44.113
1562.6400, -44.133
1562.6600, -44.149
1562.6800, -44.165
1562.7000, -44.178
1562.7200, -44.192
1562.7400, -44.213
1562.7600, -44.230
1562.7800, -44.242
1562.8000, -44.258
1562.8200, -44.277
1562.8400, -44.294
1562.8600, -44.309
1562.8800, -44.328
1562.9000, -44.341
1562.9200, -44.359
1562.9400, -44.381
1562.9600, -44.399
1562.9800, -44.413
1563.0000, -44.433
1563.0200, -44.454
1563.0400, -44.469
1563.0600, -44.488
1563.0800, -44.507
1563.1000, -44.519
1563.1200, -44.542
1563.1400, -44.554
1563.1600, -44.575
1563.1800, -44.588
1563.2000, -44.611
1563.2200, -44.623
1563.2400, -44.641
1563.2600, -44.658
1563.2800, -44.674
1563.3000, -44.691
1563.3200, -44.701
1563.3400, -44.719
1563.3600, -44.747
1563.3800, -44.756
1563.4000, -44.776
1563.4200, -44.800
1563.4400, -44.815
1563.4600, -44.833
1563.4800, -44.841
1563.5000, -44.869
1563.5200, -44.891
1563.5400, -44.909
1563.5600, -44.925
1563.5800, -44.942
1563.6000, -44.957
1563.6200, -44.977
1563.6400, -44.995
1563.6600, -45.013
1563.6800, -45.033
1563.7000, -45.056
1563.7200, -45.072
1563.7400, -45.092
1563.7600, -45.112
1563.7800, -45.125
1563.8000, -45.146
1563.8200, -45.164
1563.8400, -45.182
1563.8600, -45.202
1563.8800, -45.225
1563.9000, -45.244
1563.9200, -45.261
1563.9400, -45.269
1563.9600, -45.298
1563.9800, -45.317
1564.0000, -45.342
1564.0200, -45.353
1564.0400, -45.363
1564.0600, -45.376
1564.0800, -45.402
1564.1000, -45.420
1564.1200, -45.433
1564.1400, -45.448
1564.1600, -45.470
1564.1800, -45.493
1564.2000, -45.506
1564.2200, -45.524
1564.2400, -45.546
1564.2600, -45.561
1564.2800, -45.575
1564.3000, -45.599
1564.3200, -45.622
1564.3400, -45.638
1564.3600, -45.658
1564.3800, -45.675
1564.4000, -45.701
1564.4200, -45.718
1564.4400, -45.740
1564.4600, -45.760
1564.4800, -45.779
1564.5000, -45.799
1564.5200, -45.822
1564.5400, -45.837
1564.5600, -45.860
1564.5800, -45.880
1564.6000, -45.900
1564.6200, -45.918
1564.6400, -45.938
1564.6600, -45.954
1564.6800, -45.975
1564.7000, -45.999
1564.7200, -46.015
1564.7400, -46.037
1564.7600, -46.056
1564.7800, -46.075
1564.8000, -46.094
1564.8200, -46.112
1564.8400, -46.131
1564.8600, -46.143
1564.8800, -46.167
1564.9000, -46.188
1564.9200, -46.204
1564.9400, -46.224
1564.9600, -46.249
1564.9800, -46.264
1565.0000, -46.287
1565.0200, -46.302
1565.0400, -46.328
1565.0600, -46.348
1565.0800, -46.365
1565.1000, -46.383
1565.1200, -46.409
1565.1400, -46.416
1565.1600, -46.434
1565.1800, -46.461
1565.2000, -46.480
1565.2200, -46.502
1565.2400, -46.517
1565.2600, -46.544
1565.2800, -46.565
1565.3000, -46.583
1565.3200, -46.605
1565.3400, -46.627
1565.3600, -46.646
1565.3800, -46.667
1565.4000, -46.690
1565.4200, -46.705
1565.4400, -46.727
1565.4600, -46.743
1565.4800, -46.767
1565.5000, -46.787
1565.5200, -46.809
1565.5400, -46.826
1565.5600, -46.844
1565.5800, -46.869
1565.6000, -46.888
1565.6200, -46.904
1565.6400, -46.926
1565.6600, -46.943
1565.6800, -46.963
1565.7000, -46.979
1565.7200, -47.005
1565.7400, -47.018
1565.7600, -47.043
1565.7800, -47.064
1565.8000, -47.073
1565.8200, -47.092
1565.8400, -47.120
1565.8600, -47.134
1565.8800, -47.155
1565.9000, -47.176
1565.9200, -47.195
1565.9400, -47.219
1565.9600, -47.237
1565.9800, -47.256
1566.0000, -47.278
1566.0200, -47.296
1566.0400, -47.311
1566.0600, -47.340
1566.0800, -47.354
1566.1000, -47.379
1566.1200, -47.394
1566.1400, -47.418
1566.1600, -47.438
1566.1800, -47.461
1566.2000, -47.479
1566.2200, -47.498
1566.2400, -47.518
1566.2600, -47.540
1566.2800, -47.564
1566.3000, -47.575
1566.3200, -47.603
1566.3400, -47.619
1566.3600, -47.638
1566.3800, -47.654
1566.4000, -47.681
1566.4200, -47.701
1566.4400, -47.725
1566.4600, -47.743
1566.4800, -47.767
1566.5000, -47.787
1566.5200, -47.811
1566.5400, -47.831
1566.5600, -47.844
1566.5800, -47.860
1566.6000, -47.886
1566.6200, -47.898
1566.6400, -47.930
1566.6600, -47.939
1566.6800, -47.964
1566.7000, -47.976
1566.7200, -48.007
1566.7400, -48.022
1566.7600, -48.046
1566.7800, -48.056
1566.8000, -48.079
1566.8200, -48.102
1566.8400, -48.118
1566.8600, -48.134
1566.8800, -48.162
1566.9000, -48.171
1566.9200, -48.194
1566.9400, -48.219
1566.9600, -48.234
1566.9800, -48.254
1567.0000, -48.271
1567.0200, -48.299
1567.0400, -48.319
1567.0600, -48.345
1567.0800, -48.362
1567.1000, -48.383
1567.1200, -48.400
1567.1400, -48.425
1567.1600, -48.440
1567.1800, -48.457
1567.2000, -48.480
1567.2200, -48.501
1567.2400, -48.524
1567.2600, -48.542
1567.2800, -48.562
1567.3000, -48.580
1567.3200, -48.597
1567.3400, -48.620
1567.3600, -48.641
1567.3800, -48.662
1567.4000, -48.682
1567.4200, -48.701
1567.4400, -48.717
1567.4600, -48.734
1567.4800, -48.762
1567.5000, -48.781
1567.5200, -48.803
1567.5400, -48.814
1567.5600, -48.837
1567.5800, -48.856
1567.6000, -48.877
1567.6200, -48.898
1567.6400, -48.924
1567.6600, -48.930
1567.6800, -48.964
1567.7000, -48.982
1567.7200, -48.999
1567.7400, -49.015
1567.7600, -49.042
1567.7800, -49.061
1567.8000, -49.080
1567.8200, -49.101
1567.8400, -49.117
1567.8600, -49.137
1567.8800, -49.152
1567.9000, -49.177
1567.9200, -49.201
1567.9400, -49.215
1567.9600, -49.236
1567.9800, -49.257
1568.0000, -49.273
1568.0200, -49.297
1568.0400, -49.313
1568.0600, -49.333
1568.0800, -49.349
1568.1000, -49.373
1568.1200, -49.395
1568.1400, -49.414
1568.1600, -49.432
1568.1800, -49.454
1568.2000, -49.473
1568.2200, -49.495
1568.2400, -49.517
1568.2600, -49.541
1568.2800, -49.561
1568.3000, -49.572
1568.3200, -49.595
1568.3400, -49.612
1568.3600, -49.632
1568.3800, -49.653
1568.4000, -49.674
1568.4200, -49.688
1568.4400, -49.705
1568.4600, -49.729
1568.4800, -49.751
1568.5000, -49.769
1568.5200, -49.782
1568.5400, -49.805
1568.5600, -49.824
1568.5800, -49.848
1568.6000, -49.867
1568.6200, -49.887
1568.6400, -49.905
1568.6600, -49.923
1568.6800, -49.948
1568.7000, -49.972
1568.7200, -49.988
1568.7400, -50.002
1568.7600, -50.025
1568.7800, -50.047
1568.8000, -50.066
1568.8200, -50.086
1568.8400, -50.107
1568.8600, -50.126
1568.8800, -50.146
1568.9000, -50.165
1568.9200, -50.183
1568.9400, -50.203
1568.9600, -50.220
1568.9800, -50.243
1569.0000, -50.257
1569.0200, -50.282
1569.0400, -50.300
1569.0600, -50.321
1569.0800, -50.342
1569.1000, -50.360
1569.1200, -50.377
1569.1400, -50.396
1569.1600, -50.420
1569.1800, -50.441
1569.2000, -50.459
1569.2200, -50.479
1569.2400, -50.491
1569.2600, -50.516
1569.2800, -50.538
1569.3000, -50.549
1569.3200, -50.561
1569.3400, -50.595
1569.3600, -50.605
1569.3800, -50.631
1569.4000, -50.639
1569.4200, -50.667
1569.4400, -50.680
1569.4600, -50.707
1569.4800, -50.717
1569.5000, -50.744
1569.5200, -50.757
1569.5400, -50.777
1569.5600, -50.793
1569.5800, -50.811
1569.6000, -50.832
1569.6200, -50.845
1569.6400, -50.875
1569.6600, -50.900
1569.6800, -50.916
1569.7000, -50.937
1569.7200, -50.951
1569.7400, -50.966
1569.7600, -50.990
1569.7800, -51.011
1569.8000, -51.029
1569.8200, -51.047
1569.8400, -51.065
1569.8600, -51.084
1569.8800, -51.102
1569.9000, -51.120
1569.9200, -51.140
1569.9400, -51.160
1569.9600, -51.181
1569.9800, -51.196
1570.0000, -51.213
1570.0200, -51.232
1570.0400, -51.256
1570.0600, -51.268
1570.0800, -51.285
1570.1000, -51.309
1570.1200, -51.320
1570.1400, -51.343
1570.1600, -51.360
1570.1800, -51.378
1570.2000, -51.405
1570.2200, -51.424
1570.2400, -51.442
1570.2600, -51.456
1570.2800, -51.475
1570.3000, -51.493
1570.3200, -51.513
1570.3400, -51.531
1570.3600, -51.546
1570.3800, -51.562
1570.4000, -51.583
1570.4200, -51.602
1570.4400, -51.625
1570.4600, -51.646
1570.4800, -51.660
1570.5000, -51.677
1570.5200, -51.699
1570.5400, -51.715
1570.5600, -51.739
1570.5800, -51.757
1570.6000, -51.772
1570.6200, -51.791
1570.6400, -51.809
1570.6600, -51.831
1570.6800, -51.848
1570.7000, -51.865
1570.7200, -51.890
1570.7400, -51.906
1570.7600, -51.919
1570.7800, -51.943
1570.8000, -51.958
1570.8200, -51.981
1570.8400, -52.000
1570.8600, -52.016
1570.8800, -52.037
1570.9000, -52.054
1570.9200, -52.074
1570.9400, -52.084
1570.9600, -52.108
1570.9800, -52.120
1571.0000, -52.145
1571.0200, -52.161
1571.0400, -52.169
1571.0600, -52.192
1571.0800, -52.218
1571.1000, -52.223
1571.1200, -52.240
1571.1400, -52.259
1571.1600, -52.280
1571.1800, -52.296
1571.2000, -52.316
1571.2200, -52.331
1571.2400, -52.354
1571.2600, -52.371
1571.2800, -52.391
1571.3000, -52.409
1571.3200, -52.427
1571.3400, -52.449
1571.3600, -52.457
1571.3800, -52.487
1571.4000, -52.502
1571.4200, -52.524
1571.4400, -52.541
1571.4600, -52.558
1571.4800, -52.571
1571.5000, -52.594
1571.5200, -52.614
1571.5400, -52.632
1571.5600, -52.645
1571.5800, -52.665
1571.6000, -52.680
1571.6200, -52.698
1571.6400, -52.716
1571.6600, -52.732
1571.6800, -52.745
1571.7000, -52.768
1571.7200, -52.788
1571.7400, -52.808
1571.7600, -52.822
1571.7800, -52.840
1571.8000, -52.855
1571.8200, -52.869
1571.8400, -52.894
1571.8600, -52.908
1571.8800, -52.929
1571.9000, -52.945
1571.9200, -52.953
1571.9400, -52.983
1571.9600, -52.987
1571.9800, -53.015
1572.0000, -53.019
1572.0200, -53.045
1572.0400, -53.059
1572.0600, -53.088
1572.0800, -53.104
1572.1000, -53.118
1572.1200, -53.127
1572.1400, -53.145
1572.1600, -53.163
1572.1800, -53.180
1572.2000, -53.195
1572.2200, -53.221
1572.2400, -53.234
1572.2600, -53.253
1572.2800, -53.263
1572.3000, -53.293
1572.3200, -53.302
1572.3400, -53.323
1572.3600, -53.333
1572.3800, -53.359
1572.4000, -53.373
1572.4200, -53.380
1572.4400, -53.401
1572.4600, -53.419
1572.4800, -53.437
1572.5000, -53.451
1572.5200, -53.473
1572.5400, -53.485
1572.5600, -53.512
1572.5800, -53.524
1572.6000, -53.538
1572.6200, -53.561
1572.6400, -53.576
1572.6600, -53.599
1572.6800, -53.601
1572.7000, -53.615
1572.7200, -53.626
1572.7400, -53.654
1572.7600, -53.662
1572.7800, -53.675
1572.8000, -53.695
1572.8200, -53.722
1572.8400, -53.726
1572.8600, -53.746
1572.8800, -53.759
1572.9000, -53.790
1572.9200, -53.795
1572.9400, -53.815
1572.9600, -53.828
1572.9800, -53.845
1573.0000, -53.858
1573.0200, -53.878
1573.0400, -53.897
1573.0600, -53.912
1573.0800, -53.926
1573.1000, -53.935
1573.1200, -53.960
1573.1400, -53.977
1573.1600, -53.998
1573.1800, -54.009
1573.2000, -54.027
1573.2200, -54.044
1573.2400, -54.060
1573.2600, -54.077
1573.2800, -54.084
1573.3000, -54.102
1573.3200, -54.122
1573.3400, -54.131
1573.3600, -54.150
1573.3800, -54.160
1573.4000, -54.174
1573.4200, -54.196
1573.4400, -54.212
1573.4600, -54.222
1573.4800, -54.251
1573.5000, -54.257
1573.5200, -54.276
1573.5400, -54.288
1573.5600, -54.301
1573.5800, -54.325
1573.6000, -54.338
1573.6200, -54.357
1573.6400, -54.368
1573.6600, -54.385
1573.6800, -54.407
1573.7000, -54.413
1573.7200, -54.425
1573.7400, -54.446
1573.7600, -54.455
1573.7800, -54.474
1573.8000, -54.493
1573.8200, -54.502
1573.8400, -54.517
1573.8600, -54.531
1573.8800, -54.548
1573.9000, -54.571
1573.9200, -54.573
1573.9400, -54.596
1573.9600, -54.614
1573.9800, -54.621
1574.0000, -54.644
1574.0200, -54.655
1574.0400, -54.674
1574.0600, -54.685
1574.0800, -54.697
1574.1000, -54.721
1574.1200, -54.730
1574.1400, -54.746
1574.1600, -54.761
1574.1800, -54.779
1574.2000, -54.793
1574.2200, -54.797
1574.2400, -54.822
1574.2600, -54.830
1574.2800, -54.857
1574.3000, -54.857
1574.3200, -54.880
1574.3400, -54.895
1574.3600, -54.905
1574.3800, -54.924
1574.4000, -54.933
1574.4200, -54.950
1574.4400, -54.965
1574.4600, -54.996
1574.4800, -54.992
1574.5000, -55.011
1574.5200, -55.025
1574.5400, -55.042
1574.5600, -55.044
1574.5800, -55.070
1574.6000, -55.088
1574.6200, -55.093
1574.6400, -55.110
1574.6600, -55.123
1574.6800, -55.136
1574.7000, -55.157
1574.7200, -55.167
1574.7400, -55.175
1574.7600, -55.200
1574.7800, -55.218
1574.8000, -55.224
1574.8200, -55.238
1574.8400, -55.257
1574.8600, -55.262
1574.8800, -55.290
1574.9000, -55.292
1574.9200, -55.321
1574.9400, -55.332
1574.9600, -55.356
1574.9800, -55.351
1575.0000, -55.363
1575.0200, -55.378
1575.0400, -55.396
1575.0600, -55.411
1575.0800, -55.425
1575.1000, -55.442
1575.1200, -55.456
1575.1400, -55.471
1575.1600, -55.479
1575.1800, -55.501
1575.2000, -55.518
1575.2200, -55.518
1575.2400, -55.537
1575.2600, -55.552
1575.2800, -55.558
1575.3000, -55.583
1575.3200, -55.581
1575.3400, -55.607
1575.3600, -55.616
1575.3800, -55.635
1575.4000, -55.649
1575.4200, -55.665
1575.4400, -55.662
1575.4600, -55.682
1575.4800, -55.693
1575.5000, -55.707
1575.5200, -55.719
1575.5400, -55.737
1575.5600, -55.749
1575.5800, -55.765
1575.6000, -55.775
1575.6200, -55.788
1575.6400, -55.801
1575.6600, -55.809
1575.6800, -55.839
1575.7000, -55.853
1575.7200, -55.845
1575.7400, -55.869
1575.7600, -55.886
1575.7800, -55.899
1575.8000, -55.907
1575.8200, -55.920
1575.8400, -55.936
1575.8600, -55.954
1575.8800, -55.969
1575.9000, -55.975
1575.9200, -55.988
1575.9400, -56.005
1575.9600, -56.002
1575.9800, -56.026
1576.0000, -56.041
1576.0200, -56.054
1576.0400, -56.068
1576.0600, -56.078
1576.0800, -56.093
1576.1000, -56.096
1576.1200, -56.115
1576.1400, -56.130
1576.1600, -56.146
1576.1800, -56.152
1576.2000, -56.181
1576.2200, -56.185
1576.2400, -56.179
1576.2600, -56.207
1576.2800, -56.213
1576.3000, -56.232
1576.3200, -56.238
1576.3400, -56.246
1576.3600, -56.267
1576.3800, -56.271
1576.4000, -56.285
1576.4200, -56.300
1576.4400, -56.301
1576.4600, -56.327
1576.4800, -56.331
1576.5000, -56.365
1576.5200, -56.350
1576.5400, -56.373
1576.5600, -56.373
1576.5800, -56.373
1576.6000, -56.404
1576.6200, -56.417
1576.6400, -56.442
1576.6600, -56.438
1576.6800, -56.439
1576.7000, -56.478
1576.7200, -56.484
1576.7400, -56.490
1576.7600, -56.510
1576.7800, -56.527
1576.8000, -56.523
1576.8200, -56.532
1576.8400, -56.550
1576.8600, -56.558
1576.8800, -56.573
1576.9000, -56.591
1576.9200, -56.587
1576.9400, -56.611
1576.9600, -56.605
1576.9800, -56.640
1577.0000, -56.633
1577.0200, -56.650
1577.0400, -56.660
1577.0600, -56.676
1577.0800, -56.688
1577.1000, -56.696
1577.1200, -56.707
1577.1400, -56.719
1577.1600, -56.742
1577.1800, -56.726
1577.2000, -56.754
1577.2200, -56.756
1577.2400, -56.774
1577.2600, -56.798
1577.2800, -56.791
1577.3000, -56.807
1577.3200, -56.811
1577.3400, -56.831
1577.3600, -56.848
1577.3800, -56.843
1577.4000, -56.875
1577.4200, -56.868
1577.4400, -56.879
1577.4600, -56.897
1577.4800, -56.911
1577.5000, -56.929
1577.5200, -56.919
1577.5400, -56.946
1577.5600, -56.966
1577.5800, -56.960
1577.6000, -56.978
1577.6200, -56.988
1577.6400, -56.996
1577.6600, -57.004
1577.6800, -57.008
1577.7000, -57.026
1577.7200, -57.044
1577.7400, -57.060
1577.7600, -57.065
1577.7800, -57.073
1577.8000, -57.094
1577.8200, -57.090
1577.8400, -57.105
1577.8600, -57.118
1577.8800, -57.134
1577.9000, -57.133
1577.9200, -57.151
1577.9400, -57.177
1577.9600, -57.159
1577.9800, -57.178
1578.0000, -57.190
1578.0200, -57.198
1578.0400, -57.216
1578.0600, -57.219
1578.0800, -57.236
1578.1000, -57.243
1578.1200, -57.262
1578.1400, -57.257
1578.1600, -57.273
1578.1800, -57.286
1578.2000, -57.292
1578.2200, -57.315
1578.2400, -57.326
1578.2600, -57.324
1578.2800, -57.329
1578.3000, -57.358
1578.3200, -57.369
1578.3400, -57.377
1578.3600, -57.364
1578.3800, -57.400
1578.4000, -57.407
1578.4200, -57.412
1578.4400, -57.420
1578.4600, -57.430
1578.4800, -57.443
1578.5000, -57.451
1578.5200, -57.470
1578.5400, -57.477
1578.5600, -57.482
1578.5800, -57.507
1578.6000, -57.510
1578.6200, -57.507
1578.6400, -57.520
1578.6600, -57.548
1578.6800, -57.530
1578.7000, -57.551
1578.7200, -57.563
1578.7400, -57.570
1578.7600, -57.576
1578.7800, -57.593
1578.8000, -57.611
1578.8200, -57.604
1578.8400, -57.626
1578.8600, -57.640
1578.8800, -57.640
1578.9000, -57.646
1578.9200, -57.650
1578.9400, -57.676
1578.9600, -57.683
1578.9800, -57.699
1579.0000, -57.692
1579.0200, -57.721
1579.0400, -57.714
1579.0600, -57.735
1579.0800, -57.749
1579.1000, -57.734
1579.1200, -57.754
1579.1400, -57.764
1579.1600, -57.776
1579.1800, -57.796
1579.2000, -57.794
1579.2200, -57.805
1579.2400, -57.828
1579.2600, -57.824
1579.2800, -57.831
1579.3000, -57.845
1579.3200, -57.847
1579.3400, -57.873
1579.3600, -57.881
1579.3800, -57.891
1579.4000, -57.891
1579.4200, -57.891
1579.4400, -57.914
1579.4600, -57.917
1579.4800, -57.937
1579.5000, -57.940
1579.5200, -57.947
1579.5400, -57.975
1579.5600, -57.964
1579.5800, -57.965
1579.6000, -57.984
1579.6200, -57.986
1579.6400, -57.999
1579.6600, -58.013
1579.6800, -58.026
1579.7000, -58.025
1579.7200, -58.052
1579.7400, -58.041
1579.7600, -58.061
1579.7800, -58.073
1579.8000, -58.074
1579.8200, -58.076
1579.8400, -58.090
1579.8600, -58.101
1579.8800, -58.103
1579.9000, -58.137
1579.9200, -58.117
1579.9400, -58.133
1579.9600, -58.149
1579.9800, -58.161
1580.0000, -58.160
1580.0200, -58.170
1580.0400, -58.201
1580.0600, -58.185
1580.0800, -58.188
1580.1000, -58.217
1580.1200, -58.207
1580.1400, -58.232
1580.1600, -58.226
1580.1800, -58.240
1580.2000, -58.243
1580.2200, -58.264
1580.2400, -58.280
1580.2600, -58.264
1580.2800, -58.268
1580.3000, -58.307
1580.3200, -58.280
1580.3400, -58.312
1580.3600, -58.302
1580.3800, -58.324
1580.4000, -58.331
1580.4200, -58.347
1580.4400, -58.351
1580.4600, -58.358
1580.4800, -58.358
1580.5000, -58.382
1580.5200, -58.376
1580.5400, -58.393
1580.5600, -58.411
1580.5800, -58.407
1580.6000, -58.413
1580.6200, -58.418
1580.6400, -58.465
1580.6600, -58.420
1580.6800, -58.437
1580.7000, -58.460
1580.7200, -58.476
1580.7400, -58.475
1580.7600, -58.474
1580.7800, -58.488
1580.8000, -58.480
1580.8200, -58.502
1580.8400, -58.529
1580.8600, -58.517
1580.8800, -58.524
1580.9000, -58.527
1580.9200, -58.539
1580.9400, -58.543
1580.9600, -58.562
1580.9800, -58.577
1581.0000, -58.566
1581.0200, -58.587
1581.0400, -58.591
1581.0600, -58.599
1581.0800, -58.586
1581.1000, -58.638
1581.1200, -58.605
1581.1400, -58.636
1581.1600, -58.663
1581.1800, -58.642
1581.2000, -58.635
1581.2200, -58.668
1581.2400, -58.655
1581.2600, -58.700
1581.2800, -58.675
1581.3000, -58.674
1581.3200, -58.716
1581.3400, -58.716
1581.3600, -58.732
1581.3800, -58.731
1581.4000, -58.729
1581.4200, -58.722
1581.4400, -58.733
1581.4600, -58.780
1581.4800, -58.743
1581.5000, -58.758
1581.5200, -58.783
1581.5400, -58.763
1581.5600, -58.815
1581.5800, -58.803
1581.6000, -58.804
1581.6200, -58.786
1581.6400, -58.811
1581.6600, -58.822
1581.6800, -58.829
1581.7000, -58.851
1581.7200, -58.844
1581.7400, -58.855
1581.7600, -58.861
1581.7800, -58.864
1581.8000, -58.875
1581.8200, -58.885
1581.8400, -58.885
1581.8600, -58.907
1581.8800, -58.916
1581.9000, -58.914
1581.9200, -58.921
1581.9400, -58.931
1581.9600, -58.963
1581.9800, -58.942
1582.0000, -58.947
1582.0200, -58.962
1582.0400, -58.965
1582.0600, -58.963
1582.0800, -58.991
1582.1000, -58.983
1582.1200, -59.004
1582.1400, -58.992
1582.1600, -59.010
1582.1800, -59.009
1582.2000, -59.011
1582.2200, -59.047
1582.2400, -59.035
1582.2600, -59.064
1582.2800, -59.036
1582.3000, -59.040
1582.3200, -59.067
1582.3400, -59.068
1582.3600, -59.053
1582.3800, -59.089
1582.4000, -59.089
1582.4200, -59.088
1582.4400, -59.106
1582.4600, -59.124
1582.4800, -59.126
1582.5000, -59.123
1582.5200, -59.118
1582.5400, -59.157
1582.5600, -59.107
1582.5800, -59.146
1582.6000, -59.157
1582.6200, -59.156
1582.6400, -59.170
1582.6600, -59.197
1582.6800, -59.180
1582.7000, -59.204
1582.7200, -59.235
1582.7400, -59.186
1582.7600, -59.218
1582.7800, -59.228
1582.8000, -59.231
1582.8200, -59.236
1582.8400, -59.242
1582.8600, -59.265
1582.8800, -59.260
1582.9000, -59.255
1582.9200, -59.249
1582.9400, -59.261
1582.9600, -59.310
1582.9800, -59.291
1583.0000, -59.286
1583.0200, -59.300
1583.0400, -59.317
1583.0600, -59.330
1583.0800, -59.313
1583.1000, -59.331
1583.1200, -59.324
1583.1400, -59.355
1583.1600, -59.369
1583.1800, -59.355
1583.2000, -59.381
1583.2200, -59.369
1583.2400, -59.388
1583.2600, -59.367
1583.2800, -59.393
1583.3000, -59.399
1583.3200, -59.408
1583.3400, -59.409
1583.3600, -59.420
1583.3800, -59.440
1583.4000, -59.427
1583.4200, -59.425
1583.4400, -59.458
1583.4600, -59.466
1583.4800, -59.458
1583.5000, -59.449
1583.5200, -59.459
1583.5400, -59.489
1583.5600, -59.506
1583.5800, -59.474
1583.6000, -59.482
1583.6200, -59.498
1583.6400, -59.516
1583.6600, -59.508
1583.6800, -59.528
1583.7000, -59.528
1583.7200, -59.526
1583.7400, -59.547
1583.7600, -59.542
1583.7800, -59.534
1583.8000, -59.553
1583.8200, -59.586
1583.8400, -59.553
1583.8600, -59.573
1583.8800, -59.581
1583.9000, -59.605
1583.9200, -59.593
1583.9400, -59.621
1583.9600, -59.583
1583.9800, -59.630
1584.0000, -59.611
1584.0200, -59.619
1584.0400, -59.633
1584.0600, -59.628
1584.0800, -59.650
1584.1000, -59.644
1584.1200, -59.642
1584.1400, -59.646
1584.1600, -59.672
1584.1800, -59.686
1584.2000, -59.674
1584.2200, -59.685
1584.2400, -59.677
1584.2600, -59.732
1584.2800, -59.667
1584.3000, -59.705
1584.3200, -59.729
1584.3400, -59.706
1584.3600, -59.720
1584.3800, -59.742
1584.4000, -59.741
1584.4200, -59.759
1584.4400, -59.748
1584.4600, -59.764
1584.4800, -59.753
1584.5000, -59.760
1584.5200, -59.764
1584.5400, -59.783
1584.5600, -59.804
1584.5800, -59.793
1584.6000, -59.813
1584.6200, -59.807
1584.6400, -59.806
1584.6600, -59.811
1584.6800, -59.823
1584.7000, -59.843
1584.7200, -59.798
1584.7400, -59.829
1584.7600, -59.826
1584.7800, -59.862
1584.8000, -59.837
1584.8200, -59.850
1584.8400, -59.848
1584.8600, -59.867
1584.8800, -59.902
1584.9000, -59.876
1584.9200, -59.869
1584.9400, -59.895
1584.9600, -59.904
1584.9800, -59.906
1585.0000, -59.900
1585.0200, -59.906
1585.0400, -59.927
1585.0600, -59.908
1585.0800, -59.919
1585.1000, -59.964
1585.1200, -59.930
1585.1400, -59.921
1585.1600, -59.959
1585.1800, -59.943
1585.2000, -59.954
1585.2200, -59.967
1585.2400, -59.981
1585.2600, -59.975
1585.2800, -59.979
1585.3000, -59.986
1585.3200, -59.996
1585.3400, -59.985
1585.3600, -60.003
1585.3800, -60.017
1585.4000, -60.003
1585.4200, -60.026
1585.4400, -60.013
1585.4600, -60.037
1585.4800, -60.057
1585.5000, -60.033
1585.5200, -60.042
1585.5400, -60.045
1585.5600, -60.053
1585.5800, -60.065
1585.6000, -60.100
1585.6200, -60.079
1585.6400, -60.072
1585.6600, -60.084
1585.6800, -60.074
1585.7000, -60.114
1585.7200, -60.104
1585.7400, -60.085
1585.7600, -60.103
1585.7800, -60.134
1585.8000, -60.112
1585.8200, -60.100
1585.8400, -60.120
1585.8600, -60.128
1585.8800, -60.141
1585.9000, -60.154
1585.9200, -60.151
1585.9400, -60.145
1585.9600, -60.179
1585.9800, -60.138
1586.0000, -60.175
1586.0200, -60.163
1586.0400, -60.201
1586.0600, -60.158
1586.0800, -60.192
1586.1000, -60.197
1586.1200, -60.204
1586.1400, -60.220
1586.1600, -60.190
1586.1800, -60.227
1586.2000, -60.200
1586.2200, -60.246
1586.2400, -60.223
1586.2600, -60.257
1586.2800, -60.223
1586.3000, -60.252
1586.3200, -60.231
1586.3400, -60.268
1586.3600, -60.269
1586.3800, -60.262
1586.4000, -60.278
1586.4200, -60.277
1586.4400, -60.262
1586.4600, -60.289
1586.4800, -60.291
1586.5000, -60.294
1586.5200, -60.312
1586.5400, -60.298
1586.5600, -60.314
1586.5800, -60.330
1586.6000, -60.318
1586.6200, -60.353
1586.6400, -60.321
1586.6600, -60.332
1586.6800, -60.334
1586.7000, -60.357
1586.7200, -60.337
1586.7400, -60.366
1586.7600, -60.357
1586.7800, -60.377
1586.8000, -60.374
1586.8200, -60.398
1586.8400, -60.387
1586.8600, -60.412
1586.8800, -60.400
1586.9000, -60.422
1586.9200, -60.416
1586.9400, -60.445
1586.9600, -60.406
1586.9800, -60.397
1587.0000, -60.419
1587.0200, -60.461
1587.0400, -60.437
1587.0600, -60.440
1587.0800, -60.443
1587.1000, -60.448
1587.1200, -60.466
1587.1400, -60.421
1587.1600, -60.489
1587.1800, -60.474
1587.2000, -60.459
1587.2200, -60.476
1587.2400, -60.492
1587.2600, -60.486
1587.2800, -60.510
1587.3000, -60.500
1587.3200, -60.495
1587.3400, -60.513
1587.3600, -60.516
1587.3800, -60.539
1587.4000, -60.528
1587.4200, -60.525
1587.4400, -60.542
1587.4600, -60.539
1587.4800, -60.529
1587.5000, -60.557
1587.5200, -60.574
1587.5400, -60.542
1587.5600, -60.586
1587.5800, -60.538
1587.6000, -60.574
1587.6200, -60.576
1587.6400, -60.597
1587.6600, -60.607
1587.6800, -60.565
1587.7000, -60.581
1587.7200, -60.635
1587.7400, -60.586
1587.7600, -60.620
1587.7800, -60.634
1587.8000, -60.637
1587.8200, -60.644
1587.8400, -60.629
1587.8600, -60.660
1587.8800, -60.633
1587.9000, -60.630
1587.9200, -60.653
1587.9400, -60.701
1587.9600, -60.667
1587.9800, -60.642
1588.0000, -60.689
1588.0200, -60.703
1588.0400, -60.678
1588.0600, -60.695
1588.0800, -60.683
1588.1000, -60.684
1588.1200, -60.695
1588.1400, -60.705
1588.1600, -60.718
1588.1800, -60.720
1588.2000, -60.716
1588.2200, -60.715
1588.2400, -60.745
1588.2600, -60.737
1588.2800, -60.725
1588.3000, -60.771
1588.3200, -60.724
1588.3400, -60.763
1588.3600, -60.744
1588.3800, -60.742
1588.4000, -60.782
1588.4200, -60.765
1588.4400, -60.782
1588.4600, -60.780
1588.4800, -60.781
1588.5000, -60.775
1588.5200, -60.786
1588.5400, -60.790
1588.5600, -60.780
1588.5800, -60.813
1588.6000, -60.789
1588.6200, -60.828
1588.6400, -60.814
1588.6600, -60.812
1588.6800, -60.859
1588.7000, -60.811
1588.7200, -60.855
1588.7400, -60.838
1588.7600, -60.836
1588.7800, -60.871
1588.8000, -60.828
1588.8200, -60.899
1588.8400, -60.843
1588.8600, -60.838
1588.8800, -60.899
1588.9000, -60.855
1588.9200, -60.885
1588.9400, -60.883
1588.9600, -60.888
1588.9800, -60.912
1589.0000, -60.904
1589.0200, -60.902
1589.0400, -60.914
1589.0600, -60.929
1589.0800, -60.927
1589.1000, -60.891
1589.1200, -60.931
1589.1400, -60.928
1589.1600, -60.948
1589.1800, -60.960
1589.2000, -60.935
1589.2200, -60.999
1589.2400, -60.915
1589.2600, -60.957
1589.2800, -60.955
1589.3000, -60.956
1589.3200, -60.957
1589.3400, -60.965
1589.3600, -60.987
1589.3800, -60.981
1589.4000, -61.011
1589.4200, -60.974
1589.4400, -61.007
1589.4600, -61.022
1589.4800, -61.017
1589.5000, -61.010
1589.5200, -61.021
1589.5400, -61.040
1589.5600, -60.984
1589.5800, -61.050
1589.6000, -61.037
1589.6200, -61.027
1589.6400, -61.057
1589.6600, -61.078
1589.6800, -61.040
1589.7000, -61.057
1589.7200, -61.063
1589.7400, -61.045
1589.7600, -61.034
1589.7800, -61.062
1589.8000, -61.085
1589.8200, -61.089
1589.8400, -61.084
1589.8600, -61.085
1589.8800, -61.110
1589.9000, -61.085
1589.9200, -61.092
1589.9400, -61.096
1589.9600, -61.114
1589.9800, -61.108
1590.0000, -61.095
1590.0200, -61.128
1590.0400, -61.141
1590.0600, -61.077
1590.0800, -61.170
1590.1000, -61.109
1590.1200, -61.161
1590.1400, -61.138
1590.1600, -61.173
1590.1800, -61.176
1590.2000, -61.142
1590.2200, -61.142
1590.2400, -61.204
1590.2600, -61.180
1590.2800, -61.152
1590.3000, -61.162
1590.3200, -61.191
1590.3400, -61.207
1590.3600, -61.185
1590.3800, -61.217
1590.4000, -61.222
1590.4200, -61.222
1590.4400, -61.202
1590.4600, -61.189
1590.4800, -61.210
1590.5000, -61.228
1590.5200, -61.246
1590.5400, -61.236
1590.5600, -61.234
1590.5800, -61.259
1590.6000, -61.244
1590.6200, -61.275
1590.6400, -61.240
1590.6600, -61.270
1590.6800, -61.290
1590.7000, -61.276
1590.7200, -61.277
1590.7400, -61.303
1590.7600, -61.281
1590.7800, -61.283
1590.8000, -61.294
1590.8200, -61.307
1590.8400, -61.319
1590.8600, -61.277
1590.8800, -61.308
1590.9000, -61.337
1590.9200, -61.320
1590.9400, -61.290
1590.9600, -61.327
1590.9800, -61.354
1591.0000, -61.338
1591.0200, -61.356
1591.0400, -61.335
1591.0600, -61.359
1591.0800, -61.370
1591.1000, -61.347
1591.1200, -61.373
1591.1400, -61.372
1591.1600, -61.328
1591.1800, -61.350
1591.2000, -61.416
1591.2200, -61.436
1591.2400, -61.385
1591.2600, -61.374
1591.2800, -61.412
1591.3000, -61.422
1591.3200, -61.395
1591.3400, -61.415
1591.3600, -61.443
1591.3800, -61.439
1591.4000, -61.417
1591.4200, -61.431
1591.4400, -61.421
1591.4600, -61.470
1591.4800, -61.453
1591.5000, -61.470
1591.5200, -61.437
1591.5400, -61.466
1591.5600, -61.443
1591.5800, -61.491
1591.6000, -61.472
1591.6200, -61.487
1591.6400, -61.482
1591.6600, -61.490
1591.6800, -61.484
1591.7000, -61.491
1591.7200, -61.509
1591.7400, -61.511
1591.7600, -61.524
1591.7800, -61.453
1591.8000, -61.535
1591.8200, -61.524
1591.8400, -61.570
1591.8600, -61.491
1591.8800, -61.540
1591.9000, -61.501
1591.9200, -61.585
1591.9400, -61.545
1591.9600, -61.559
1591.9800, -61.561
1592.0000, -61.546
1592.0200, -61.567
1592.0400, -61.587
1592.0600, -61.559
1592.0800, -61.560
1592.1000, -61.578
1592.1200, -61.608
1592.1400, -61.585
1592.1600, -61.624
1592.1800, -61.623
1592.2000, -61.538
1592.2200, -61.610
1592.2400, -61.616
1592.2600, -61.575
1592.2800, -61.648
1592.3000, -61.624
1592.3200, -61.646
1592.3400, -61.627
1592.3600, -61.626
1592.3800, -61.652
1592.4000, -61.635
1592.4200, -61.611
1592.4400, -61.665
1592.4600, -61.660
1592.4800, -61.657
1592.5000, -61.703
1592.5200, -61.664
1592.5400, -61.680
1592.5600, -61.659
1592.5800, -61.683
1592.6000, -61.738
1592.6200, -61.655
1592.6400, -61.693
1592.6600, -61.691
1592.6800, -61.745
1592.7000, -61.688
1592.7200, -61.789
1592.7400, -61.679
1592.7600, -61.681
1592.7800, -61.733
1592.8000, -61.731
1592.8200, -61.783
1592.8400, -61.732
1592.8600, -61.679
1592.8800, -61.788
1592.9000, -61.742
1592.9200, -61.790
1592.9400, -61.745
1592.9600, -61.732
1592.9800, -61.755
1593.0000, -61.793
1593.0200, -61.766
1593.0400, -61.782
1593.0600, -61.803
1593.0800, -61.811
1593.1000, -61.792
1593.1200, -61.779
1593.1400, -61.831
1593.1600, -61.804
1593.1800, -61.804
1593.2000, -61.780
1593.2200, -61.813
1593.2400, -61.803
1593.2600, -61.823
1593.2800, -61.853
1593.3000, -61.837
1593.3200, -61.803
1593.3400, -61.841
1593.3600, -61.835
1593.3800, -61.836
1593.4000, -61.857
1593.4200, -61.827
1593.4400, -61.840
1593.4600, -61.829
1593.4800, -61.922
1593.5000, -61.905
1593.5200, -61.849
1593.5400, -61.884
1593.5600, -61.903
1593.5800, -61.834
1593.6000, -61.907
1593.6200, -61.872
1593.6400, -61.883
1593.6600, -61.948
1593.6800, -61.898
1593.7000, -61.902
1593.7200, -61.900
1593.7400, -61.900
1593.7600, -61.919
1593.7800, -61.933
1593.8000, -61.894
1593.8200, -61.939
1593.8400, -61.983
1593.8600, -61.921
1593.8800, -61.952
1593.9000, -61.951
1593.9200, -61.960
1593.9400, -62.008
1593.9600, -61.927
1593.9800, -62.024
1594.0000, -61.961
1594.0200, -61.969
1594.0400, -61.980
1594.0600, -62.027
1594.0800, -61.976
1594.1000, -62.016
1594.1200, -61.960
1594.1400, -62.038
1594.1600, -61.963
1594.1800, -61.973
1594.2000, -62.059
1594.2200, -62.000
1594.2400, -62.043
1594.2600, -62.061
1594.2800, -62.010
1594.3000, -62.001
1594.3200, -62.060
1594.3400, -62.049
1594.3600, -62.053
1594.3800, -62.070
1594.4000, -62.083
1594.4200, -62.060
1594.4400, -62.076
1594.4600, -62.068
1594.4800, -62.109
1594.5000, -62.045
1594.5200, -62.072
1594.5400, -62.094
1594.5600, -62.158
1594.5800, -62.084
1594.6000, -62.036
1594.6200, -62.188
1594.6400, -62.052
1594.6600, -62.131
1594.6800, -62.117
1594.7000, -62.099
1594.7200, -62.136
1594.7400, -62.084
1594.7600, -62.132
1594.7800, -62.200
1594.8000, -62.092
1594.8200, -62.084
1594.8400, -62.181
1594.8600, -62.129
1594.8800, -62.168
1594.9000, -62.157
1594.9200, -62.197
1594.9400, -62.118
1594.9600, -62.143
1594.9800, -62.220
1595.0000, -62.167
1595.0200, -62.175
1595.0400, -62.193
1595.0600, -62.188
1595.0800, -62.199
1595.1000, -62.230
1595.1200, -62.192
1595.1400, -62.258
1595.1600, -62.219
1595.1800, -62.152
1595.2000, -62.270
1595.2200, -62.220
1595.2400, -62.217
1595.2600, -62.212
1595.2800, -62.250
1595.3000, -62.209
1595.3200, -62.237
1595.3400, -62.300
1595.3600, -62.193
1595.3800, -62.265
1595.4000, -62.261
1595.4200, -62.274
1595.4400, -62.270
1595.4600, -62.349
1595.4800, -62.240
1595.5000, -62.311
1595.5200, -62.265
1595.5400, -62.302
1595.5600, -62.306
1595.5800, -62.338
1595.6000, -62.300
1595.6200, -62.358
1595.6400, -62.333
1595.6600, -62.307
1595.6800, -62.347
1595.7000, -62.344
1595.7200, -62.298
1595.7400, -62.404
1595.7600, -62.323
1595.7800, -62.343
1595.8000, -62.333
1595.8200, -62.326
1595.8400, -62.373
1595.8600, -62.363
1595.8800, -62.386
1595.9000, -62.337
1595.9200, -62.393
1595.9400, -62.385
1595.9600, -62.390
1595.9800, -62.398
1596.0000, -62.349
1596.0200, -62.429
1596.0400, -62.447
1596.0600, -62.391
1596.0800, -62.406
1596.1000, -62.430
1596.1200, -62.430
1596.1400, -62.460
1596.1600, -62.432
1596.1800, -62.489
1596.2000, -62.356
1596.2200, -62.463
1596.2400, -62.485
1596.2600, -62.493
1596.2800, -62.474
1596.3000, -62.482
1596.3200, -62.449
1596.3400, -62.404
1596.3600, -62.525
1596.3800, -62.424
1596.4000, -62.494
1596.4200, -62.455
1596.4400, -62.513
1596.4600, -62.486
1596.4800, -62.426
1596.5000, -62.547
1596.5200, -62.513
1596.5400, -62.484
1596.5600, -62.536
1596.5800, -62.479
1596.6000, -62.542
1596.6200, -62.469
1596.6400, -62.561
1596.6600, -62.503
1596.6800, -62.543
1596.7000, -62.518
1596.7200, -62.580
1596.7400, -62.562
1596.7600, -62.569
1596.7800, -62.510
1596.8000, -62.556
1596.8200, -62.555
1596.8400, -62.579
1596.8600, -62.600
1596.8800, -62.539
1596.9000, -62.557
1596.9200, -62.553
1596.9400, -62.606
1596.9600, -62.587
1596.9800, -62.579
1597.0000, -62.640
1597.0200, -62.635
1597.0400, -62.562
1597.0600, -62.652
1597.0800, -62.644
1597.1000, -62.580
1597.1200, -62.643
1597.1400, -62.600
1597.1600, -62.639
1597.1800, -62.609
1597.2000, -62.703
1597.2200, -62.612
1597.2400, -62.660
1597.2600, -62.649
1597.2800, -62.664
1597.3000, -62.644
1597.3200, -62.732
1597.3400, -62.598
1597.3600, -62.645
1597.3800, -62.697
1597.4000, -62.677
1597.4200, -62.757
1597.4400, -62.645
1597.4600, -62.711
1597.4800, -62.730
1597.5000, -62.742
1597.5200, -62.682
1597.5400, -62.694
1597.5600, -62.745
1597.5800, -62.711
1597.6000, -62.700
1597.6200, -62.698
1597.6400, -62.751
1597.6600, -62.631
1597.6800, -62.795
1597.7000, -62.708
1597.7200, -62.750
1597.7400, -62.679
1597.7600, -62.777
1597.7800, -62.703
1597.8000, -62.803
1597.8200, -62.722
1597.8400, -62.764
1597.8600, -62.789
1597.8800, -62.757
1597.9000, -62.769
1597.9200, -62.721
1597.9400, -62.748
1597.9600, -62.798
1597.9800, -62.851
1598.0000, -62.784
1598.0200, -62.795
1598.0400, -62.791
1598.0600, -62.871
1598.0800, -62.818
1598.1000, -62.814
1598.1200, -62.807
1598.1400, -62.863
1598.1600, -62.810
1598.1800, -62.800
1598.2000, -62.843
1598.2200, -62.869
1598.2400, -62.851
1598.2600, -62.807
1598.2800, -62.883
1598.3000, -62.878
1598.3200, -62.861
1598.3400, -62.801
1598.3600, -62.911
1598.3800, -62.825
1598.4000, -62.922
1598.4200, -62.916
1598.4400, -62.874
1598.4600, -62.838
1598.4800, -62.838
1598.5000, -62.933
1598.5200, -62.863
1598.5400, -62.905
1598.5600, -62.901
1598.5800, -62.916
1598.6000, -62.912
1598.6200, -62.938
1598.6400, -62.984
1598.6600, -62.896
1598.6800, -62.947
1598.7000, -62.974
1598.7200, -62.969
1598.7400, -62.955
1598.7600, -62.960
1598.7800, -62.906
1598.8000, -62.996
1598.8200, -62.958
1598.8400, -62.927
1598.8600, -63.011
1598.8800, -62.962
1598.9000, -62.984
1598.9200, -63.005
1598.9400, -62.993
1598.9600, -62.955
1598.9800, -63.014
1599.0000, -62.952
1599.0200, -63.081
1599.0400, -63.017
1599.0600, -63.036
1599.0800, -62.986
1599.1000, -63.029
1599.1200, -63.031
1599.1400, -62.991
1599.1600, -63.021
1599.1800, -63.029
1599.2000, -63.064
1599.2200, -63.070
1599.2400, -63.074
1599.2600, -63.090
1599.2800, -63.054
1599.3000, -63.085
1599.3200, -63.057
1599.3400, -63.029
1599.3600, -63.100
1599.3800, -63.062
1599.4000, -63.091
1599.4200, -63.060
1599.4400, -63.069
1599.4600, -63.118
1599.4800, -63.096
1599.5000, -63.121
1599.5200, -63.102
1599.5400, -63.102
1599.5600, -63.175
1599.5800, -63.129
1599.6000, -63.128
1599.6200, -63.117
1599.6400, -63.131
1599.6600, -63.156
1599.6800, -63.141
1599.7000, -63.116
1599.7200, -63.149
1599.7400, -63.131
1599.7600, -63.155
1599.7800, -63.152
1599.8000, -63.165
1599.8200, -63.252
1599.8400, -63.139
1599.8600, -63.221
1599.8800, -63.121
1599.9000, -63.233
1599.9200, -63.142
1599.9400, -63.169
1599.9600, -63.182
1599.9800, -63.303
1600.0000, -63.197
