70BCSV 	
// AQ6370B OPTICAL SPECTRUM ANALYZER //                 
25
"CTRWL",1550.000000
"SPAN", 100.000000
"START WL",1500.000000
"STOP WL",1600.000000
"WLFREQ", 0
"REFL",-28.8
"LSCL", 5.0
"RESLN",0.100
"AVG",   1
"SMPLAUTO",      0
"SMPL",       5001
"SMPLINTVL",0.0200
"HIGH1"
"MEAS"
"LSUNT",0
"NMSKH","OFF"
"RESCOR",0
"RESPARM", 9050
"FREQPARM", 9050






"[TRACE DATA]"
1500.0000, -61.614
1500.0200, -61.628
1500.0400, -61.600
1500.0600, -61.608
1500.0800, -61.568
1500.1000, -61.616
1500.1200, -61.562
1500.1400, -61.566
1500.1600, -61.556
1500.1800, -61.606
1500.2000, -61.586
1500.2200, -61.579
1500.2400, -61.549
1500.2600, -61.547
1500.2800, -61.525
1500.3000, -61.526
1500.3200, -61.510
1500.3400, -61.529
1500.3600, -61.506
1500.3800, -61.514
1500.4000, -61.526
1500.4200, -61.520
1500.4400, -61.538
1500.4600, -61.462
1500.4800, -61.497
1500.5000, -61.473
1500.5200, -61.487
1500.5400, -61.472
1500.5600, -61.484
1500.5800, -61.450
1500.6000, -61.504
1500.6200, -61.436
1500.6400, -61.447
1500.6600, -61.446
1500.6800, -61.423
1500.7000, -61.430
1500.7200, -61.396
1500.7400, -61.413
1500.7600, -61.426
1500.7800, -61.415
1500.8000, -61.388
1500.8200, -61.386
1500.8400, -61.392
1500.8600, -61.382
1500.8800, -61.377
1500.9000, -61.400
1500.9200, -61.346
1500.9400, -61.367
1500.9600, -61.346
1500.9800, -61.350
1501.0000, -61.322
1501.0200, -61.329
1501.0400, -61.329
1501.0600, -61.299
1501.0800, -61.298
1501.1000, -61.324
1501.1200, -61.302
1501.1400, -61.257
1501.1600, -61.299
1501.1800, -61.278
1501.2000, -61.295
1501.2200, -61.276
1501.2400, -61.261
1501.2600, -61.264
1501.2800, -61.268
1501.3000, -61.271
1501.3200, -61.280
1501.3400, -61.251
1501.3600, -61.236
1501.3800, -61.247
1501.4000, -61.244
1501.4200, -61.209
1501.4400, -61.218
1501.4600, -61.216
1501.4800, -61.221
1501.5000, -61.201
1501.5200, -61.199
1501.5400, -61.208
1501.5600, -61.199
1501.5800, -61.162
1501.6000, -61.162
1501.6200, -61.157
1501.6400, -61.177
1501.6600, -61.153
1501.6800, -61.117
1501.7000, -61.171
1501.7200, -61.134
1501.7400, -61.146
1501.7600, -61.121
1501.7800, -61.120
1501.8000, -61.101
1501.8200, -61.115
1501.8400, -61.114
1501.8600, -61.141
1501.8800, -61.103
1501.9000, -61.112
1501.9200, -61.095
1501.9400, -61.073
1501.9600, -61.052
1501.9800, -61.050
1502.0000, -61.059
1502.0200, -61.042
1502.0400, -61.035
1502.0600, -61.035
1502.0800, -61.021
1502.1000, -61.040
1502.1200, -61.015
1502.1400, -60.984
1502.1600, -60.978
1502.1800, -61.010
1502.2000, -60.985
1502.2200, -60.986
1502.2400, -60.945
1502.2600, -60.953
1502.2800, -60.980
1502.3000, -60.975
1502.3200, -60.958
1502.3400, -60.933
1502.3600, -60.922
1502.3800, -60.930
1502.4000, -60.909
1502.4200, -60.940
1502.4400, -60.929
1502.4600, -60.906
1502.4800, -60.900
1502.5000, -60.911
1502.5200, -60.894
1502.5400, -60.867
1502.5600, -60.913
1502.5800, -60.873
1502.6000, -60.879
1502.6200, -60.887
1502.6400, -60.854
1502.6600, -60.855
1502.6800, -60.804
1502.7000, -60.809
1502.7200, -60.821
1502.7400, -60.813
1502.7600, -60.820
1502.7800, -60.806
1502.8000, -60.806
1502.8200, -60.780
1502.8400, -60.788
1502.8600, -60.760
1502.8800, -60.793
1502.9000, -60.737
1502.9200, -60.751
1502.9400, -60.739
1502.9600, -60.728
1502.9800, -60.722
1503.0000, -60.707
1503.0200, -60.716
1503.0400, -60.711
1503.0600, -60.710
1503.0800, -60.696
1503.1000, -60.675
1503.1200, -60.707
1503.1400, -60.685
1503.1600, -60.663
1503.1800, -60.637
1503.2000, -60.668
1503.2200, -60.606
1503.2400, -60.692
1503.2600, -60.615
1503.2800, -60.663
1503.3000, -60.622
1503.3200, -60.629
1503.3400, -60.624
1503.3600, -60.598
1503.3800, -60.603
1503.4000, -60.619
1503.4200, -60.599
1503.4400, -60.582
1503.4600, -60.601
1503.4800, -60.553
1503.5000, -60.552
1503.5200, -60.561
1503.5400, -60.543
1503.5600, -60.527
1503.5800, -60.540
1503.6000, -60.515
1503.6200, -60.538
1503.6400, -60.496
1503.6600, -60.506
1503.6800, -60.494
1503.7000, -60.503
1503.7200, -60.482
1503.7400, -60.461
1503.7600, -60.472
1503.7800, -60.483
1503.8000, -60.452
1503.8200, -60.471
1503.8400, -60.443
1503.8600, -60.454
1503.8800, -60.450
1503.9000, -60.421
1503.9200, -60.409
1503.9400, -60.411
1503.9600, -60.396
1503.9800, -60.407
1504.0000, -60.374
1504.0200, -60.383
1504.0400, -60.401
1504.0600, -60.340
1504.0800, -60.373
1504.1000, -60.350
1504.1200, -60.350
1504.1400, -60.320
1504.1600, -60.296
1504.1800, -60.347
1504.2000, -60.327
1504.2200, -60.322
1504.2400, -60.314
1504.2600, -60.305
1504.2800, -60.288
1504.3000, -60.266
1504.3200, -60.279
1504.3400, -60.241
1504.3600, -60.268
1504.3800, -60.258
1504.4000, -60.258
1504.4200, -60.246
1504.4400, -60.219
1504.4600, -60.214
1504.4800, -60.212
1504.5000, -60.215
1504.5200, -60.218
1504.5400, -60.180
1504.5600, -60.169
1504.5800, -60.164
1504.6000, -60.151
1504.6200, -60.144
1504.6400, -60.165
1504.6600, -60.140
1504.6800, -60.125
1504.7000, -60.138
1504.7200, -60.119
1504.7400, -60.123
1504.7600, -60.106
1504.7800, -60.116
1504.8000, -60.112
1504.8200, -60.095
1504.8400, -60.089
1504.8600, -60.055
1504.8800, -60.064
1504.9000, -60.056
1504.9200, -60.038
1504.9400, -60.021
1504.9600, -60.020
1504.9800, -60.008
1505.0000, -60.024
1505.0200, -60.019
1505.0400, -59.999
1505.0600, -59.979
1505.0800, -60.021
1505.1000, -59.949
1505.1200, -59.952
1505.1400, -59.979
1505.1600, -59.946
1505.1800, -59.962
1505.2000, -59.951
1505.2200, -59.937
1505.2400, -59.949
1505.2600, -59.922
1505.2800, -59.936
1505.3000, -59.907
1505.3200, -59.866
1505.3400, -59.892
1505.3600, -59.885
1505.3800, -59.901
1505.4000, -59.871
1505.4200, -59.825
1505.4400, -59.851
1505.4600, -59.853
1505.4800, -59.838
1505.5000, -59.834
1505.5200, -59.813
1505.5400, -59.798
1505.5600, -59.799
1505.5800, -59.780
1505.6000, -59.795
1505.6200, -59.773
1505.6400, -59.763
1505.6600, -59.761
1505.6800, -59.760
1505.7000, -59.746
1505.7200, -59.744
1505.7400, -59.731
1505.7600, -59.724
1505.7800, -59.711
1505.8000, -59.708
1505.8200, -59.708
1505.8400, -59.673
1505.8600, -59.669
1505.8800, -59.673
1505.9000, -59.668
1505.9200, -59.662
1505.9400, -59.647
1505.9600, -59.646
1505.9800, -59.616
1506.0000, -59.632
1506.0200, -59.604
1506.0400, -59.621
1506.0600, -59.589
1506.0800, -59.597
1506.1000, -59.579
1506.1200, -59.575
1506.1400, -59.572
1506.1600, -59.576
1506.1800, -59.589
1506.2000, -59.537
1506.2200, -59.551
1506.2400, -59.532
1506.2600, -59.525
1506.2800, -59.516
1506.3000, -59.517
1506.3200, -59.505
1506.3400, -59.489
1506.3600, -59.512
1506.3800, -59.463
1506.4000, -59.500
1506.4200, -59.469
1506.4400, -59.478
1506.4600, -59.451
1506.4800, -59.439
1506.5000, -59.431
1506.5200, -59.400
1506.5400, -59.398
1506.5600, -59.386
1506.5800, -59.410
1506.6000, -59.385
1506.6200, -59.395
1506.6400, -59.371
1506.6600, -59.389
1506.6800, -59.351
1506.7000, -59.373
1506.7200, -59.314
1506.7400, -59.350
1506.7600, -59.323
1506.7800, -59.269
1506.8000, -59.296
1506.8200, -59.301
1506.8400, -59.290
1506.8600, -59.285
1506.8800, -59.274
1506.9000, -59.276
1506.9200, -59.268
1506.9400, -59.247
1506.9600, -59.247
1506.9800, -59.226
1507.0000, -59.225
1507.0200, -59.202
1507.0400, -59.204
1507.0600, -59.201
1507.0800, -59.220
1507.1000, -59.191
1507.1200, -59.174
1507.1400, -59.172
1507.1600, -59.186
1507.1800, -59.148
1507.2000, -59.135
1507.2200, -59.134
1507.2400, -59.145
1507.2600, -59.127
1507.2800, -59.155
1507.3000, -59.118
1507.3200, -59.107
1507.3400, -59.103
1507.3600, -59.081
1507.3800, -59.076
1507.4000, -59.088
1507.4200, -59.063
1507.4400, -59.045
1507.4600, -59.029
1507.4800, -59.027
1507.5000, -59.011
1507.5200, -59.006
1507.5400, -59.011
1507.5600, -58.990
1507.5800, -59.003
1507.6000, -58.975
1507.6200, -58.968
1507.6400, -58.966
1507.6600, -58.959
1507.6800, -58.948
1507.7000, -58.934
1507.7200, -58.931
1507.7400, -58.924
1507.7600, -58.902
1507.7800, -58.904
1507.8000, -58.899
1507.8200, -58.895
1507.8400, -58.871
1507.8600, -58.889
1507.8800, -58.859
1507.9000, -58.825
1507.9200, -58.841
1507.9400, -58.836
1507.9600, -58.852
1507.9800, -58.822
1508.0000, -58.803
1508.0200, -58.799
1508.0400, -58.804
1508.0600, -58.809
1508.0800, -58.766
1508.1000, -58.780
1508.1200, -58.789
1508.1400, -58.760
1508.1600, -58.725
1508.1800, -58.756
1508.2000, -58.723
1508.2200, -58.720
1508.2400, -58.723
1508.2600, -58.712
1508.2800, -58.722
1508.3000, -58.704
1508.3200, -58.697
1508.3400, -58.684
1508.3600, -58.699
1508.3800, -58.662
1508.4000, -58.619
1508.4200, -58.648
1508.4400, -58.613
1508.4600, -58.632
1508.4800, -58.608
1508.5000, -58.610
1508.5200, -58.590
1508.5400, -58.599
1508.5600, -58.582
1508.5800, -58.579
1508.6000, -58.557
1508.6200, -58.546
1508.6400, -58.543
1508.6600, -58.541
1508.6800, -58.522
1508.7000, -58.518
1508.7200, -58.509
1508.7400, -58.490
1508.7600, -58.488
1508.7800, -58.503
1508.8000, -58.467
1508.8200, -58.468
1508.8400, -58.468
1508.8600, -58.447
1508.8800, -58.456
1508.9000, -58.424
1508.9200, -58.411
1508.9400, -58.414
1508.9600, -58.384
1508.9800, -58.416
1509.0000, -58.390
1509.0200, -58.382
1509.0400, -58.368
1509.0600, -58.367
1509.0800, -58.358
1509.1000, -58.365
1509.1200, -58.354
1509.1400, -58.330
1509.1600, -58.323
1509.1800, -58.304
1509.2000, -58.314
1509.2200, -58.291
1509.2400, -58.280
1509.2600, -58.283
1509.2800, -58.278
1509.3000, -58.269
1509.3200, -58.257
1509.3400, -58.238
1509.3600, -58.219
1509.3800, -58.201
1509.4000, -58.188
1509.4200, -58.212
1509.4400, -58.178
1509.4600, -58.177
1509.4800, -58.176
1509.5000, -58.152
1509.5200, -58.149
1509.5400, -58.132
1509.5600, -58.148
1509.5800, -58.128
1509.6000, -58.097
1509.6200, -58.110
1509.6400, -58.078
1509.6600, -58.081
1509.6800, -58.088
1509.7000, -58.049
1509.7200, -58.056
1509.7400, -58.054
1509.7600, -58.030
1509.7800, -58.027
1509.8000, -58.017
1509.8200, -58.002
1509.8400, -58.007
1509.8600, -57.990
1509.8800, -57.965
1509.9000, -57.975
1509.9200, -57.953
1509.9400, -57.978
1509.9600, -57.951
1509.9800, -57.953
1510.0000, -57.923
1510.0200, -57.928
1510.0400, -57.934
1510.0600, -57.927
1510.0800, -57.899
1510.1000, -57.888
1510.1200, -57.864
1510.1400, -57.869
1510.1600, -57.856
1510.1800, -57.852
1510.2000, -57.835
1510.2200, -57.831
1510.2400, -57.832
1510.2600, -57.823
1510.2800, -57.818
1510.3000, -57.780
1510.3200, -57.756
1510.3400, -57.752
1510.3600, -57.742
1510.3800, -57.737
1510.4000, -57.715
1510.4200, -57.700
1510.4400, -57.710
1510.4600, -57.678
1510.4800, -57.678
1510.5000, -57.667
1510.5200, -57.661
1510.5400, -57.650
1510.5600, -57.630
1510.5800, -57.633
1510.6000, -57.605
1510.6200, -57.602
1510.6400, -57.588
1510.6600, -57.587
1510.6800, -57.566
1510.7000, -57.566
1510.7200, -57.550
1510.7400, -57.528
1510.7600, -57.529
1510.7800, -57.513
1510.8000, -57.498
1510.8200, -57.493
1510.8400, -57.498
1510.8600, -57.474
1510.8800, -57.482
1510.9000, -57.451
1510.9200, -57.459
1510.9400, -57.443
1510.9600, -57.432
1510.9800, -57.427
1511.0000, -57.414
1511.0200, -57.397
1511.0400, -57.400
1511.0600, -57.386
1511.0800, -57.339
1511.1000, -57.351
1511.1200, -57.339
1511.1400, -57.330
1511.1600, -57.326
1511.1800, -57.312
1511.2000, -57.268
1511.2200, -57.281
1511.2400, -57.285
1511.2600, -57.244
1511.2800, -57.243
1511.3000, -57.220
1511.3200, -57.234
1511.3400, -57.195
1511.3600, -57.193
1511.3800, -57.174
1511.4000, -57.190
1511.4200, -57.165
1511.4400, -57.144
1511.4600, -57.157
1511.4800, -57.125
1511.5000, -57.123
1511.5200, -57.097
1511.5400, -57.109
1511.5600, -57.061
1511.5800, -57.081
1511.6000, -57.054
1511.6200, -57.045
1511.6400, -57.037
1511.6600, -57.026
1511.6800, -57.023
1511.7000, -56.995
1511.7200, -56.995
1511.7400, -56.998
1511.7600, -56.960
1511.7800, -56.951
1511.8000, -56.937
1511.8200, -56.933
1511.8400, -56.923
1511.8600, -56.926
1511.8800, -56.926
1511.9000, -56.897
1511.9200, -56.867
1511.9400, -56.876
1511.9600, -56.855
1511.9800, -56.843
1512.0000, -56.833
1512.0200, -56.826
1512.0400, -56.808
1512.0600, -56.801
1512.0800, -56.798
1512.1000, -56.775
1512.1200, -56.766
1512.1400, -56.761
1512.1600, -56.745
1512.1800, -56.740
1512.2000, -56.705
1512.2200, -56.701
1512.2400, -56.699
1512.2600, -56.684
1512.2800, -56.668
1512.3000, -56.644
1512.3200, -56.655
1512.3400, -56.641
1512.3600, -56.622
1512.3800, -56.624
1512.4000, -56.608
1512.4200, -56.602
1512.4400, -56.577
1512.4600, -56.573
1512.4800, -56.562
1512.5000, -56.549
1512.5200, -56.528
1512.5400, -56.526
1512.5600, -56.503
1512.5800, -56.491
1512.6000, -56.491
1512.6200, -56.478
1512.6400, -56.454
1512.6600, -56.456
1512.6800, -56.438
1512.7000, -56.431
1512.7200, -56.413
1512.7400, -56.399
1512.7600, -56.381
1512.7800, -56.376
1512.8000, -56.377
1512.8200, -56.372
1512.8400, -56.354
1512.8600, -56.332
1512.8800, -56.329
1512.9000, -56.319
1512.9200, -56.328
1512.9400, -56.309
1512.9600, -56.291
1512.9800, -56.276
1513.0000, -56.268
1513.0200, -56.251
1513.0400, -56.240
1513.0600, -56.222
1513.0800, -56.230
1513.1000, -56.190
1513.1200, -56.197
1513.1400, -56.193
1513.1600, -56.158
1513.1800, -56.140
1513.2000, -56.134
1513.2200, -56.118
1513.2400, -56.113
1513.2600, -56.097
1513.2800, -56.086
1513.3000, -56.075
1513.3200, -56.056
1513.3400, -56.058
1513.3600, -56.026
1513.3800, -56.021
1513.4000, -56.008
1513.4200, -55.998
1513.4400, -55.998
1513.4600, -55.957
1513.4800, -55.954
1513.5000, -55.938
1513.5200, -55.930
1513.5400, -55.937
1513.5600, -55.909
1513.5800, -55.900
1513.6000, -55.883
1513.6200, -55.863
1513.6400, -55.863
1513.6600, -55.849
1513.6800, -55.838
1513.7000, -55.813
1513.7200, -55.806
1513.7400, -55.807
1513.7600, -55.801
1513.7800, -55.773
1513.8000, -55.768
1513.8200, -55.754
1513.8400, -55.757
1513.8600, -55.735
1513.8800, -55.722
1513.9000, -55.702
1513.9200, -55.689
1513.9400, -55.683
1513.9600, -55.677
1513.9800, -55.646
1514.0000, -55.640
1514.0200, -55.629
1514.0400, -55.611
1514.0600, -55.592
1514.0800, -55.604
1514.1000, -55.593
1514.1200, -55.537
1514.1400, -55.547
1514.1600, -55.518
1514.1800, -55.522
1514.2000, -55.499
1514.2200, -55.479
1514.2400, -55.482
1514.2600, -55.469
1514.2800, -55.446
1514.3000, -55.425
1514.3200, -55.417
1514.3400, -55.408
1514.3600, -55.391
1514.3800, -55.379
1514.4000, -55.369
1514.4200, -55.349
1514.4400, -55.329
1514.4600, -55.318
1514.4800, -55.313
1514.5000, -55.308
1514.5200, -55.292
1514.5400, -55.267
1514.5600, -55.249
1514.5800, -55.241
1514.6000, -55.244
1514.6200, -55.213
1514.6400, -55.206
1514.6600, -55.189
1514.6800, -55.182
1514.7000, -55.185
1514.7200, -55.166
1514.7400, -55.146
1514.7600, -55.135
1514.7800, -55.129
1514.8000, -55.112
1514.8200, -55.086
1514.8400, -55.079
1514.8600, -55.076
1514.8800, -55.074
1514.9000, -55.051
1514.9200, -55.036
1514.9400, -55.026
1514.9600, -54.986
1514.9800, -54.991
1515.0000, -54.985
1515.0200, -54.979
1515.0400, -54.955
1515.0600, -54.916
1515.0800, -54.898
1515.1000, -54.885
1515.1200, -54.866
1515.1400, -54.864
1515.1600, -54.848
1515.1800, -54.830
1515.2000, -54.827
1515.2200, -54.798
1515.2400, -54.780
1515.2600, -54.768
1515.2800, -54.766
1515.3000, -54.745
1515.3200, -54.733
1515.3400, -54.715
1515.3600, -54.691
1515.3800, -54.683
1515.4000, -54.660
1515.4200, -54.658
1515.4400, -54.654
1515.4600, -54.621
1515.4800, -54.606
1515.5000, -54.591
1515.5200, -54.580
1515.5400, -54.576
1515.5600, -54.540
1515.5800, -54.538
1515.6000, -54.522
1515.6200, -54.499
1515.6400, -54.509
1515.6600, -54.492
1515.6800, -54.481
1515.7000, -54.475
1515.7200, -54.454
1515.7400, -54.429
1515.7600, -54.425
1515.7800, -54.403
1515.8000, -54.391
1515.8200, -54.370
1515.8400, -54.365
1515.8600, -54.344
1515.8800, -54.340
1515.9000, -54.308
1515.9200, -54.302
1515.9400, -54.283
1515.9600, -54.285
1515.9800, -54.268
1516.0000, -54.230
1516.0200, -54.208
1516.0400, -54.198
1516.0600, -54.166
1516.0800, -54.158
1516.1000, -54.137
1516.1200, -54.122
1516.1400, -54.115
1516.1600, -54.098
1516.1800, -54.089
1516.2000, -54.064
1516.2200, -54.053
1516.2400, -54.027
1516.2600, -54.020
1516.2800, -54.011
1516.3000, -53.990
1516.3200, -53.964
1516.3400, -53.953
1516.3600, -53.925
1516.3800, -53.913
1516.4000, -53.903
1516.4200, -53.894
1516.4400, -53.856
1516.4600, -53.852
1516.4800, -53.830
1516.5000, -53.814
1516.5200, -53.796
1516.5400, -53.773
1516.5600, -53.749
1516.5800, -53.768
1516.6000, -53.747
1516.6200, -53.739
1516.6400, -53.710
1516.6600, -53.695
1516.6800, -53.680
1516.7000, -53.662
1516.7200, -53.635
1516.7400, -53.628
1516.7600, -53.611
1516.7800, -53.592
1516.8000, -53.575
1516.8200, -53.565
1516.8400, -53.556
1516.8600, -53.530
1516.8800, -53.510
1516.9000, -53.505
1516.9200, -53.497
1516.9400, -53.462
1516.9600, -53.408
1516.9800, -53.401
1517.0000, -53.370
1517.0200, -53.361
1517.0400, -53.340
1517.0600, -53.324
1517.0800, -53.308
1517.1000, -53.304
1517.1200, -53.275
1517.1400, -53.255
1517.1600, -53.239
1517.1800, -53.218
1517.2000, -53.208
1517.2200, -53.183
1517.2400, -53.161
1517.2600, -53.142
1517.2800, -53.118
1517.3000, -53.098
1517.3200, -53.080
1517.3400, -53.081
1517.3600, -53.046
1517.3800, -53.019
1517.4000, -53.027
1517.4200, -52.994
1517.4400, -52.969
1517.4600, -52.942
1517.4800, -52.939
1517.5000, -52.928
1517.5200, -52.919
1517.5400, -52.892
1517.5600, -52.875
1517.5800, -52.865
1517.6000, -52.850
1517.6200, -52.825
1517.6400, -52.799
1517.6600, -52.782
1517.6800, -52.752
1517.7000, -52.730
1517.7200, -52.709
1517.7400, -52.692
1517.7600, -52.670
1517.7800, -52.652
1517.8000, -52.621
1517.8200, -52.618
1517.8400, -52.614
1517.8600, -52.593
1517.8800, -52.576
1517.9000, -52.518
1517.9200, -52.499
1517.9400, -52.470
1517.9600, -52.451
1517.9800, -52.435
1518.0000, -52.415
1518.0200, -52.386
1518.0400, -52.386
1518.0600, -52.347
1518.0800, -52.325
1518.1000, -52.293
1518.1200, -52.294
1518.1400, -52.264
1518.1600, -52.251
1518.1800, -52.224
1518.2000, -52.194
1518.2200, -52.163
1518.2400, -52.149
1518.2600, -52.125
1518.2800, -52.127
1518.3000, -52.101
1518.3200, -52.072
1518.3400, -52.047
1518.3600, -52.031
1518.3800, -52.012
1518.4000, -51.980
1518.4200, -51.967
1518.4400, -51.971
1518.4600, -51.954
1518.4800, -51.907
1518.5000, -51.892
1518.5200, -51.861
1518.5400, -51.844
1518.5600, -51.826
1518.5800, -51.785
1518.6000, -51.767
1518.6200, -51.730
1518.6400, -51.726
1518.6600, -51.706
1518.6800, -51.688
1518.7000, -51.667
1518.7200, -51.635
1518.7400, -51.601
1518.7600, -51.587
1518.7800, -51.570
1518.8000, -51.564
1518.8200, -51.542
1518.8400, -51.470
1518.8600, -51.443
1518.8800, -51.424
1518.9000, -51.394
1518.9200, -51.383
1518.9400, -51.355
1518.9600, -51.328
1518.9800, -51.324
1519.0000, -51.288
1519.0200, -51.269
1519.0400, -51.243
1519.0600, -51.234
1519.0800, -51.206
1519.1000, -51.154
1519.1200, -51.146
1519.1400, -51.101
1519.1600, -51.076
1519.1800, -51.060
1519.2000, -51.035
1519.2200, -51.019
1519.2400, -50.978
1519.2600, -50.950
1519.2800, -50.926
1519.3000, -50.900
1519.3200, -50.879
1519.3400, -50.835
1519.3600, -50.818
1519.3800, -50.776
1519.4000, -50.751
1519.4200, -50.747
1519.4400, -50.739
1519.4600, -50.705
1519.4800, -50.679
1519.5000, -50.663
1519.5200, -50.626
1519.5400, -50.605
1519.5600, -50.575
1519.5800, -50.536
1519.6000, -50.513
1519.6200, -50.486
1519.6400, -50.453
1519.6600, -50.442
1519.6800, -50.410
1519.7000, -50.374
1519.7200, -50.357
1519.7400, -50.315
1519.7600, -50.288
1519.7800, -50.251
1519.8000, -50.204
1519.8200, -50.186
1519.8400, -50.145
1519.8600, -50.131
1519.8800, -50.095
1519.9000, -50.067
1519.9200, -50.052
1519.9400, -50.006
1519.9600, -49.991
1519.9800, -49.953
1520.0000, -49.945
1520.0200, -49.896
1520.0400, -49.869
1520.0600, -49.851
1520.0800, -49.799
1520.1000, -49.758
1520.1200, -49.734
1520.1400, -49.708
1520.1600, -49.683
1520.1800, -49.657
1520.2000, -49.621
1520.2200, -49.586
1520.2400, -49.559
1520.2600, -49.530
1520.2800, -49.495
1520.3000, -49.473
1520.3200, -49.448
1520.3400, -49.382
1520.3600, -49.379
1520.3800, -49.363
1520.4000, -49.328
1520.4200, -49.293
1520.4400, -49.274
1520.4600, -49.221
1520.4800, -49.175
1520.5000, -49.146
1520.5200, -49.132
1520.5400, -49.105
1520.5600, -49.070
1520.5800, -49.039
1520.6000, -48.985
1520.6200, -48.965
1520.6400, -48.926
1520.6600, -48.904
1520.6800, -48.851
1520.7000, -48.850
1520.7200, -48.808
1520.7400, -48.734
1520.7600, -48.699
1520.7800, -48.659
1520.8000, -48.633
1520.8200, -48.587
1520.8400, -48.555
1520.8600, -48.544
1520.8800, -48.498
1520.9000, -48.462
1520.9200, -48.418
1520.9400, -48.406
1520.9600, -48.353
1520.9800, -48.313
1521.0000, -48.293
1521.0200, -48.236
1521.0400, -48.202
1521.0600, -48.166
1521.0800, -48.132
1521.1000, -48.106
1521.1200, -48.069
1521.1400, -48.024
1521.1600, -47.983
1521.1800, -47.950
1521.2000, -47.914
1521.2200, -47.870
1521.2400, -47.850
1521.2600, -47.806
1521.2800, -47.812
1521.3000, -47.766
1521.3200, -47.724
1521.3400, -47.687
1521.3600, -47.643
1521.3800, -47.602
1521.4000, -47.571
1521.4200, -47.511
1521.4400, -47.460
1521.4600, -47.449
1521.4800, -47.411
1521.5000, -47.380
1521.5200, -47.338
1521.5400, -47.287
1521.5600, -47.242
1521.5800, -47.207
1521.6000, -47.176
1521.6200, -47.167
1521.6400, -47.128
1521.6600, -47.075
1521.6800, -47.014
1521.7000, -46.971
1521.7200, -46.913
1521.7400, -46.900
1521.7600, -46.836
1521.7800, -46.807
1521.8000, -46.785
1521.8200, -46.718
1521.8400, -46.690
1521.8600, -46.651
1521.8800, -46.621
1521.9000, -46.563
1521.9200, -46.524
1521.9400, -46.494
1521.9600, -46.433
1521.9800, -46.396
1522.0000, -46.359
1522.0200, -46.310
1522.0400, -46.281
1522.0600, -46.256
1522.0800, -46.196
1522.1000, -46.152
1522.1200, -46.129
1522.1400, -46.078
1522.1600, -46.030
1522.1800, -45.994
1522.2000, -45.943
1522.2200, -45.915
1522.2400, -45.898
1522.2600, -45.832
1522.2800, -45.811
1522.3000, -45.770
1522.3200, -45.720
1522.3400, -45.676
1522.3600, -45.630
1522.3800, -45.589
1522.4000, -45.557
1522.4200, -45.515
1522.4400, -45.469
1522.4600, -45.431
1522.4800, -45.371
1522.5000, -45.341
1522.5200, -45.304
1522.5400, -45.268
1522.5600, -45.211
1522.5800, -45.173
1522.6000, -45.122
1522.6200, -45.079
1522.6400, -45.042
1522.6600, -44.981
1522.6800, -44.954
1522.7000, -44.899
1522.7200, -44.863
1522.7400, -44.826
1522.7600, -44.781
1522.7800, -44.736
1522.8000, -44.690
1522.8200, -44.658
1522.8400, -44.602
1522.8600, -44.561
1522.8800, -44.522
1522.9000, -44.473
1522.9200, -44.431
1522.9400, -44.397
1522.9600, -44.343
1522.9800, -44.312
1523.0000, -44.267
1523.0200, -44.225
1523.0400, -44.172
1523.0600, -44.143
1523.0800, -44.093
1523.1000, -44.050
1523.1200, -44.016
1523.1400, -43.967
1523.1600, -43.941
1523.1800, -43.900
1523.2000, -43.856
1523.2200, -43.812
1523.2400, -43.768
1523.2600, -43.723
1523.2800, -43.683
1523.3000, -43.630
1523.3200, -43.590
1523.3400, -43.554
1523.3600, -43.508
1523.3800, -43.458
1523.4000, -43.410
1523.4200, -43.367
1523.4400, -43.337
1523.4600, -43.296
1523.4800, -43.256
1523.5000, -43.219
1523.5200, -43.176
1523.5400, -43.121
1523.5600, -43.066
1523.5800, -43.025
1523.6000, -42.981
1523.6200, -42.943
1523.6400, -42.896
1523.6600, -42.854
1523.6800, -42.825
1523.7000, -42.771
1523.7200, -42.732
1523.7400, -42.688
1523.7600, -42.644
1523.7800, -42.599
1523.8000, -42.559
1523.8200, -42.520
1523.8400, -42.474
1523.8600, -42.431
1523.8800, -42.388
1523.9000, -42.339
1523.9200, -42.305
1523.9400, -42.262
1523.9600, -42.220
1523.9800, -42.179
1524.0000, -42.140
1524.0200, -42.097
1524.0400, -42.053
1524.0600, -42.010
1524.0800, -41.970
1524.1000, -41.931
1524.1200, -41.889
1524.1400, -41.846
1524.1600, -41.805
1524.1800, -41.761
1524.2000, -41.721
1524.2200, -41.674
1524.2400, -41.628
1524.2600, -41.590
1524.2800, -41.551
1524.3000, -41.511
1524.3200, -41.467
1524.3400, -41.426
1524.3600, -41.379
1524.3800, -41.340
1524.4000, -41.300
1524.4200, -41.257
1524.4400, -41.212
1524.4600, -41.176
1524.4800, -41.132
1524.5000, -41.087
1524.5200, -41.044
1524.5400, -41.003
1524.5600, -40.963
1524.5800, -40.925
1524.6000, -40.884
1524.6200, -40.846
1524.6400, -40.801
1524.6600, -40.759
1524.6800, -40.716
1524.7000, -40.676
1524.7200, -40.633
1524.7400, -40.594
1524.7600, -40.555
1524.7800, -40.514
1524.8000, -40.471
1524.8200, -40.430
1524.8400, -40.388
1524.8600, -40.347
1524.8800, -40.307
1524.9000, -40.266
1524.9200, -40.226
1524.9400, -40.184
1524.9600, -40.141
1524.9800, -40.102
1525.0000, -40.061
1525.0200, -40.021
1525.0400, -39.981
1525.0600, -39.939
1525.0800, -39.896
1525.1000, -39.855
1525.1200, -39.817
1525.1400, -39.777
1525.1600, -39.736
1525.1800, -39.694
1525.2000, -39.656
1525.2200, -39.616
1525.2400, -39.580
1525.2600, -39.541
1525.2800, -39.502
1525.3000, -39.461
1525.3200, -39.421
1525.3400, -39.384
1525.3600, -39.344
1525.3800, -39.302
1525.4000, -39.263
1525.4200, -39.225
1525.4400, -39.185
1525.4600, -39.142
1525.4800, -39.100
1525.5000, -39.061
1525.5200, -39.016
1525.5400, -38.976
1525.5600, -38.937
1525.5800, -38.893
1525.6000, -38.854
1525.6200, -38.815
1525.6400, -38.774
1525.6600, -38.734
1525.6800, -38.693
1525.7000, -38.651
1525.7200, -38.607
1525.7400, -38.565
1525.7600, -38.523
1525.7800, -38.479
1525.8000, -38.440
1525.8200, -38.393
1525.8400, -38.351
1525.8600, -38.315
1525.8800, -38.273
1525.9000, -38.235
1525.9200, -38.193
1525.9400, -38.153
1525.9600, -38.109
1525.9800, -38.078
1526.0000, -38.042
1526.0200, -38.003
1526.0400, -37.965
1526.0600, -37.921
1526.0800, -37.876
1526.1000, -37.839
1526.1200, -37.800
1526.1400, -37.761
1526.1600, -37.718
1526.1800, -37.685
1526.2000, -37.640
1526.2200, -37.599
1526.2400, -37.558
1526.2600, -37.516
1526.2800, -37.479
1526.3000, -37.437
1526.3200, -37.401
1526.3400, -37.357
1526.3600, -37.320
1526.3800, -37.284
1526.4000, -37.244
1526.4200, -37.203
1526.4400, -37.166
1526.4600, -37.118
1526.4800, -37.092
1526.5000, -37.040
1526.5200, -36.998
1526.5400, -36.961
1526.5600, -36.926
1526.5800, -36.883
1526.6000, -36.841
1526.6200, -36.803
1526.6400, -36.759
1526.6600, -36.717
1526.6800, -36.680
1526.7000, -36.640
1526.7200, -36.614
1526.7400, -36.569
1526.7600, -36.531
1526.7800, -36.486
1526.8000, -36.453
1526.8200, -36.409
1526.8400, -36.372
1526.8600, -36.335
1526.8800, -36.289
1526.9000, -36.266
1526.9200, -36.232
1526.9400, -36.185
1526.9600, -36.147
1526.9800, -36.103
1527.0000, -36.059
1527.0200, -36.022
1527.0400, -35.977
1527.0600, -35.941
1527.0800, -35.907
1527.1000, -35.867
1527.1200, -35.827
1527.1400, -35.784
1527.1600, -35.735
1527.1800, -35.708
1527.2000, -35.667
1527.2200, -35.639
1527.2400, -35.597
1527.2600, -35.562
1527.2800, -35.526
1527.3000, -35.477
1527.3200, -35.428
1527.3400, -35.389
1527.3600, -35.348
1527.3800, -35.309
1527.4000, -35.269
1527.4200, -35.236
1527.4400, -35.168
1527.4600, -35.128
1527.4800, -35.088
1527.5000, -35.050
1527.5200, -34.999
1527.5400, -34.952
1527.5600, -34.907
1527.5800, -34.853
1527.6000, -34.801
1527.6200, -34.756
1527.6400, -34.719
1527.6600, -34.693
1527.6800, -34.623
1527.7000, -34.580
1527.7200, -34.535
1527.7400, -34.489
1527.7600, -34.441
1527.7800, -34.395
1527.8000, -34.338
1527.8200, -34.291
1527.8400, -34.279
1527.8600, -34.225
1527.8800, -34.172
1527.9000, -34.140
1527.9200, -34.083
1527.9400, -34.033
1527.9600, -33.989
1527.9800, -33.938
1528.0000, -33.903
1528.0200, -33.846
1528.0400, -33.791
1528.0600, -33.739
1528.0800, -33.693
1528.1000, -33.647
1528.1200, -33.611
1528.1400, -33.563
1528.1600, -33.493
1528.1800, -33.468
1528.2000, -33.384
1528.2200, -33.342
1528.2400, -33.282
1528.2600, -33.224
1528.2800, -33.189
1528.3000, -33.162
1528.3200, -33.102
1528.3400, -33.107
1528.3600, -33.031
1528.3800, -32.966
1528.4000, -32.908
1528.4200, -32.875
1528.4400, -32.827
1528.4600, -32.796
1528.4800, -32.774
1528.5000, -32.724
1528.5200, -32.668
1528.5400, -32.636
1528.5600, -32.583
1528.5800, -32.579
1528.6000, -32.512
1528.6200, -32.461
1528.6400, -32.436
1528.6600, -32.410
1528.6800, -32.364
1528.7000, -32.344
1528.7200, -32.287
1528.7400, -32.262
1528.7600, -32.236
1528.7800, -32.206
1528.8000, -32.144
1528.8200, -32.103
1528.8400, -32.067
1528.8600, -31.993
1528.8800, -31.963
1528.9000, -31.925
1528.9200, -31.888
1528.9400, -31.796
1528.9600, -31.771
1528.9800, -31.692
1529.0000, -31.642
1529.0200, -31.600
1529.0400, -31.567
1529.0600, -31.547
1529.0800, -31.472
1529.1000, -31.426
1529.1200, -31.398
1529.1400, -31.311
1529.1600, -31.293
1529.1800, -31.226
1529.2000, -31.179
1529.2200, -31.120
1529.2400, -31.066
1529.2600, -31.087
1529.2800, -31.051
1529.3000, -31.031
1529.3200, -30.933
1529.3400, -30.936
1529.3600, -30.879
1529.3800, -30.746
1529.4000, -30.669
1529.4200, -30.627
1529.4400, -30.555
1529.4600, -30.523
1529.4800, -30.536
1529.5000, -30.467
1529.5200, -30.487
1529.5400, -30.426
1529.5600, -30.501
1529.5800, -30.558
1529.6000, -30.270
1529.6200, -30.206
1529.6400, -30.164
1529.6600, -30.049
1529.6800, -30.044
1529.7000, -30.059
1529.7200, -30.050
1529.7400, -29.965
1529.7600, -30.001
1529.7800, -30.010
1529.8000, -29.891
1529.8200, -29.828
1529.8400, -29.794
1529.8600, -29.828
1529.8800, -29.707
1529.9000, -29.506
1529.9200, -29.508
1529.9400, -29.644
1529.9600, -29.356
1529.9800, -29.398
1530.0000, -29.418
1530.0200, -29.250
1530.0400, -29.385
1530.0600, -29.089
1530.0800, -29.143
1530.1000, -29.167
1530.1200, -29.099
1530.1400, -29.111
1530.1600, -29.022
1530.1800, -29.031
1530.2000, -29.059
1530.2200, -29.013
1530.2400, -28.946
1530.2600, -28.959
1530.2800, -28.985
1530.3000, -29.077
1530.3200, -28.956
1530.3400, -29.094
1530.3600, -29.027
1530.3800, -28.859
1530.4000, -28.888
1530.4200, -28.809
1530.4400, -28.734
1530.4600, -28.762
1530.4800, -28.528
1530.5000, -28.697
1530.5200, -28.658
1530.5400, -28.575
1530.5600, -28.372
1530.5800, -28.442
1530.6000, -28.437
1530.6200, -28.396
1530.6400, -28.540
1530.6600, -28.465
1530.6800, -28.270
1530.7000, -28.298
1530.7200, -28.386
1530.7400, -28.289
1530.7600, -28.316
1530.7800, -28.295
1530.8000, -28.391
1530.8200, -27.673
1530.8400, -27.685
1530.8600, -28.289
1530.8800, -28.340
1530.9000, -28.283
1530.9200, -28.255
1530.9400, -28.302
1530.9600, -28.196
1530.9800, -28.091
1531.0000, -28.204
1531.0200, -28.132
1531.0400, -28.320
1531.0600, -28.220
1531.0800, -28.176
1531.1000, -28.278
1531.1200, -28.215
1531.1400, -28.001
1531.1600, -28.060
1531.1800, -28.283
1531.2000, -28.157
1531.2200, -28.133
1531.2400, -27.973
1531.2600, -27.857
1531.2800, -28.017
1531.3000, -27.943
1531.3200, -27.582
1531.3400, -27.618
1531.3600, -27.408
1531.3800, -27.042
1531.4000, -27.482
1531.4200, -27.287
1531.4400, -27.088
1531.4600, -27.285
1531.4800, -26.896
1531.5000, -27.175
1531.5200, -27.471
1531.5400, -27.561
1531.5600, -26.918
1531.5800, -27.017
1531.6000, -26.976
1531.6200, -25.753
1531.6400, -26.575
1531.6600, -25.849
1531.6800, -26.353
1531.7000, -27.725
1531.7200, -27.330
1531.7400, -26.847
1531.7600, -27.171
1531.7800, -26.840
1531.8000, -27.144
1531.8200, -27.539
1531.8400, -27.297
1531.8600, -27.027
1531.8800, -27.012
1531.9000, -25.951
1531.9200, -25.685
1531.9400, -25.449
1531.9600, -25.843
1531.9800, -24.789
1532.0000, -23.286
1532.0200, -25.196
1532.0400, -25.205
1532.0600, -26.103
1532.0800, -25.087
1532.1000, -26.374
1532.1200, -26.702
1532.1400, -25.693
1532.1600, -26.238
1532.1800, -25.621
1532.2000, -27.649
1532.2200, -27.836
1532.2400, -27.722
1532.2600, -27.978
1532.2800, -27.093
1532.3000, -27.463
1532.3200, -27.544
1532.3400, -27.901
1532.3600, -26.938
1532.3800, -26.914
1532.4000, -26.775
1532.4200, -25.718
1532.4400, -25.034
1532.4600, -26.593
1532.4800, -27.402
1532.5000, -26.463
1532.5200, -25.623
1532.5400, -26.401
1532.5600, -26.697
1532.5800, -25.628
1532.6000, -24.793
1532.6200, -25.907
1532.6400, -27.198
1532.6600, -27.756
1532.6800, -26.826
1532.7000, -27.203
1532.7200, -27.909
1532.7400, -27.599
1532.7600, -26.722
1532.7800, -26.684
1532.8000, -26.688
1532.8200, -25.311
1532.8400, -27.120
1532.8600, -27.733
1532.8800, -27.370
1532.9000, -27.786
1532.9200, -27.283
1532.9400, -28.276
1532.9600, -28.258
1532.9800, -28.189
1533.0000, -25.389
1533.0200, -26.410
1533.0400, -27.657
1533.0600, -28.150
1533.0800, -28.044
1533.1000, -27.805
1533.1200, -28.471
1533.1400, -27.209
1533.1600, -28.364
1533.1800, -27.772
1533.2000, -27.411
1533.2200, -28.638
1533.2400, -27.370
1533.2600, -28.052
1533.2800, -28.701
1533.3000, -28.689
1533.3200, -28.229
1533.3400, -28.828
1533.3600, -29.051
1533.3800, -28.658
1533.4000, -28.066
1533.4200, -28.287
1533.4400, -28.101
1533.4600, -29.005
1533.4800, -28.998
1533.5000, -29.245
1533.5200, -29.145
1533.5400, -29.066
1533.5600, -29.214
1533.5800, -28.804
1533.6000, -29.336
1533.6200, -29.387
1533.6400, -29.466
1533.6600, -29.421
1533.6800, -29.559
1533.7000, -29.748
1533.7200, -29.793
1533.7400, -29.969
1533.7600, -30.021
1533.7800, -29.959
1533.8000, -29.922
1533.8200, -29.987
1533.8400, -30.316
1533.8600, -30.317
1533.8800, -30.381
1533.9000, -30.522
1533.9200, -30.528
1533.9400, -30.545
1533.9600, -30.644
1533.9800, -30.824
1534.0000, -30.720
1534.0200, -30.872
1534.0400, -30.846
1534.0600, -30.974
1534.0800, -31.021
1534.1000, -31.074
1534.1200, -31.187
1534.1400, -31.215
1534.1600, -31.197
1534.1800, -31.306
1534.2000, -31.428
1534.2200, -31.450
1534.2400, -31.546
1534.2600, -31.583
1534.2800, -31.585
1534.3000, -31.615
1534.3200, -31.776
1534.3400, -31.824
1534.3600, -31.946
1534.3800, -32.001
1534.4000, -32.137
1534.4200, -32.246
1534.4400, -32.307
1534.4600, -32.382
1534.4800, -32.378
1534.5000, -32.479
1534.5200, -32.523
1534.5400, -32.609
1534.5600, -32.639
1534.5800, -32.827
1534.6000, -32.828
1534.6200, -32.918
1534.6400, -32.949
1534.6600, -33.040
1534.6800, -33.141
1534.7000, -33.162
1534.7200, -33.162
1534.7400, -33.268
1534.7600, -33.344
1534.7800, -33.360
1534.8000, -33.456
1534.8200, -33.521
1534.8400, -33.606
1534.8600, -33.611
1534.8800, -33.687
1534.9000, -33.741
1534.9200, -33.787
1534.9400, -33.824
1534.9600, -33.932
1534.9800, -33.972
1535.0000, -34.017
1535.0200, -34.105
1535.0400, -34.141
1535.0600, -34.196
1535.0800, -34.278
1535.1000, -34.307
1535.1200, -34.390
1535.1400, -34.423
1535.1600, -34.495
1535.1800, -34.516
1535.2000, -34.565
1535.2200, -34.636
1535.2400, -34.656
1535.2600, -34.734
1535.2800, -34.780
1535.3000, -34.839
1535.3200, -34.900
1535.3400, -34.973
1535.3600, -34.980
1535.3800, -35.099
1535.4000, -35.113
1535.4200, -35.136
1535.4400, -35.201
1535.4600, -35.254
1535.4800, -35.309
1535.5000, -35.391
1535.5200, -35.441
1535.5400, -35.511
1535.5600, -35.529
1535.5800, -35.596
1535.6000, -35.650
1535.6200, -35.686
1535.6400, -35.738
1535.6600, -35.801
1535.6800, -35.868
1535.7000, -35.916
1535.7200, -35.986
1535.7400, -36.051
1535.7600, -36.117
1535.7800, -36.150
1535.8000, -36.213
1535.8200, -36.272
1535.8400, -36.320
1535.8600, -36.365
1535.8800, -36.425
1535.9000, -36.479
1535.9200, -36.530
1535.9400, -36.585
1535.9600, -36.644
1535.9800, -36.682
1536.0000, -36.745
1536.0200, -36.775
1536.0400, -36.822
1536.0600, -36.885
1536.0800, -36.918
1536.1000, -36.968
1536.1200, -37.020
1536.1400, -37.061
1536.1600, -37.099
1536.1800, -37.150
1536.2000, -37.215
1536.2200, -37.252
1536.2400, -37.295
1536.2600, -37.336
1536.2800, -37.385
1536.3000, -37.429
1536.3200, -37.462
1536.3400, -37.504
1536.3600, -37.543
1536.3800, -37.586
1536.4000, -37.638
1536.4200, -37.677
1536.4400, -37.717
1536.4600, -37.749
1536.4800, -37.785
1536.5000, -37.824
1536.5200, -37.866
1536.5400, -37.909
1536.5600, -37.944
1536.5800, -37.976
1536.6000, -38.026
1536.6200, -38.042
1536.6400, -38.090
1536.6600, -38.122
1536.6800, -38.167
1536.7000, -38.180
1536.7200, -38.219
1536.7400, -38.257
1536.7600, -38.286
1536.7800, -38.308
1536.8000, -38.348
1536.8200, -38.382
1536.8400, -38.418
1536.8600, -38.456
1536.8800, -38.489
1536.9000, -38.523
1536.9200, -38.563
1536.9400, -38.575
1536.9600, -38.607
1536.9800, -38.650
1537.0000, -38.673
1537.0200, -38.712
1537.0400, -38.758
1537.0600, -38.775
1537.0800, -38.803
1537.1000, -38.840
1537.1200, -38.886
1537.1400, -38.911
1537.1600, -38.947
1537.1800, -38.968
1537.2000, -39.001
1537.2200, -39.031
1537.2400, -39.057
1537.2600, -39.081
1537.2800, -39.102
1537.3000, -39.134
1537.3200, -39.162
1537.3400, -39.190
1537.3600, -39.220
1537.3800, -39.247
1537.4000, -39.266
1537.4200, -39.294
1537.4400, -39.322
1537.4600, -39.342
1537.4800, -39.365
1537.5000, -39.382
1537.5200, -39.415
1537.5400, -39.426
1537.5600, -39.459
1537.5800, -39.486
1537.6000, -39.518
1537.6200, -39.530
1537.6400, -39.555
1537.6600, -39.584
1537.6800, -39.599
1537.7000, -39.614
1537.7200, -39.637
1537.7400, -39.658
1537.7600, -39.680
1537.7800, -39.699
1537.8000, -39.722
1537.8200, -39.747
1537.8400, -39.771
1537.8600, -39.780
1537.8800, -39.794
1537.9000, -39.823
1537.9200, -39.833
1537.9400, -39.856
1537.9600, -39.881
1537.9800, -39.889
1538.0000, -39.925
1538.0200, -39.947
1538.0400, -39.963
1538.0600, -39.977
1538.0800, -39.994
1538.1000, -40.008
1538.1200, -40.035
1538.1400, -40.056
1538.1600, -40.073
1538.1800, -40.079
1538.2000, -40.083
1538.2200, -40.107
1538.2400, -40.133
1538.2600, -40.152
1538.2800, -40.170
1538.3000, -40.178
1538.3200, -40.191
1538.3400, -40.205
1538.3600, -40.219
1538.3800, -40.231
1538.4000, -40.242
1538.4200, -40.248
1538.4400, -40.265
1538.4600, -40.279
1538.4800, -40.296
1538.5000, -40.310
1538.5200, -40.320
1538.5400, -40.324
1538.5600, -40.333
1538.5800, -40.358
1538.6000, -40.362
1538.6200, -40.374
1538.6400, -40.392
1538.6600, -40.400
1538.6800, -40.409
1538.7000, -40.424
1538.7200, -40.435
1538.7400, -40.449
1538.7600, -40.455
1538.7800, -40.457
1538.8000, -40.466
1538.8200, -40.481
1538.8400, -40.480
1538.8600, -40.492
1538.8800, -40.510
1538.9000, -40.506
1538.9200, -40.514
1538.9400, -40.529
1538.9600, -40.549
1538.9800, -40.549
1539.0000, -40.561
1539.0200, -40.568
1539.0400, -40.582
1539.0600, -40.589
1539.0800, -40.593
1539.1000, -40.599
1539.1200, -40.609
1539.1400, -40.615
1539.1600, -40.627
1539.1800, -40.626
1539.2000, -40.638
1539.2200, -40.641
1539.2400, -40.646
1539.2600, -40.652
1539.2800, -40.659
1539.3000, -40.666
1539.3200, -40.662
1539.3400, -40.670
1539.3600, -40.672
1539.3800, -40.681
1539.4000, -40.684
1539.4200, -40.694
1539.4400, -40.695
1539.4600, -40.690
1539.4800, -40.692
1539.5000, -40.709
1539.5200, -40.703
1539.5400, -40.706
1539.5600, -40.723
1539.5800, -40.726
1539.6000, -40.728
1539.6200, -40.741
1539.6400, -40.748
1539.6600, -40.748
1539.6800, -40.752
1539.7000, -40.745
1539.7200, -40.747
1539.7400, -40.755
1539.7600, -40.748
1539.7800, -40.759
1539.8000, -40.763
1539.8200, -40.753
1539.8400, -40.756
1539.8600, -40.768
1539.8800, -40.780
1539.9000, -40.772
1539.9200, -40.785
1539.9400, -40.787
1539.9600, -40.799
1539.9800, -40.797
1540.0000, -40.794
1540.0200, -40.795
1540.0400, -40.789
1540.0600, -40.797
1540.0800, -40.808
1540.1000, -40.807
1540.1200, -40.812
1540.1400, -40.820
1540.1600, -40.825
1540.1800, -40.824
1540.2000, -40.825
1540.2200, -40.828
1540.2400, -40.810
1540.2600, -40.812
1540.2800, -40.808
1540.3000, -40.815
1540.3200, -40.811
1540.3400, -40.808
1540.3600, -40.797
1540.3800, -40.790
1540.4000, -40.788
1540.4200, -40.792
1540.4400, -40.786
1540.4600, -40.788
1540.4800, -40.784
1540.5000, -40.782
1540.5200, -40.786
1540.5400, -40.780
1540.5600, -40.785
1540.5800, -40.791
1540.6000, -40.777
1540.6200, -40.777
1540.6400, -40.775
1540.6600, -40.768
1540.6800, -40.771
1540.7000, -40.778
1540.7200, -40.767
1540.7400, -40.762
1540.7600, -40.775
1540.7800, -40.777
1540.8000, -40.770
1540.8200, -40.766
1540.8400, -40.771
1540.8600, -40.766
1540.8800, -40.770
1540.9000, -40.769
1540.9200, -40.758
1540.9400, -40.760
1540.9600, -40.762
1540.9800, -40.766
1541.0000, -40.767
1541.0200, -40.762
1541.0400, -40.757
1541.0600, -40.766
1541.0800, -40.764
1541.1000, -40.760
1541.1200, -40.755
1541.1400, -40.751
1541.1600, -40.724
1541.1800, -40.736
1541.2000, -40.718
1541.2200, -40.725
1541.2400, -40.725
1541.2600, -40.722
1541.2800, -40.711
1541.3000, -40.708
1541.3200, -40.708
1541.3400, -40.702
1541.3600, -40.694
1541.3800, -40.701
1541.4000, -40.698
1541.4200, -40.695
1541.4400, -40.693
1541.4600, -40.684
1541.4800, -40.686
1541.5000, -40.688
1541.5200, -40.676
1541.5400, -40.669
1541.5600, -40.669
1541.5800, -40.663
1541.6000, -40.662
1541.6200, -40.671
1541.6400, -40.662
1541.6600, -40.664
1541.6800, -40.662
1541.7000, -40.655
1541.7200, -40.652
1541.7400, -40.647
1541.7600, -40.635
1541.7800, -40.636
1541.8000, -40.640
1541.8200, -40.636
1541.8400, -40.637
1541.8600, -40.628
1541.8800, -40.629
1541.9000, -40.630
1541.9200, -40.631
1541.9400, -40.623
1541.9600, -40.613
1541.9800, -40.610
1542.0000, -40.608
1542.0200, -40.600
1542.0400, -40.593
1542.0600, -40.581
1542.0800, -40.570
1542.1000, -40.573
1542.1200, -40.563
1542.1400, -40.556
1542.1600, -40.562
1542.1800, -40.556
1542.2000, -40.543
1542.2200, -40.536
1542.2400, -40.536
1542.2600, -40.537
1542.2800, -40.526
1542.3000, -40.530
1542.3200, -40.525
1542.3400, -40.520
1542.3600, -40.518
1542.3800, -40.511
1542.4000, -40.514
1542.4200, -40.511
1542.4400, -40.493
1542.4600, -40.488
1542.4800, -40.490
1542.5000, -40.479
1542.5200, -40.481
1542.5400, -40.479
1542.5600, -40.481
1542.5800, -40.483
1542.6000, -40.481
1542.6200, -40.476
1542.6400, -40.466
1542.6600, -40.462
1542.6800, -40.451
1542.7000, -40.461
1542.7200, -40.462
1542.7400, -40.457
1542.7600, -40.445
1542.7800, -40.445
1542.8000, -40.442
1542.8200, -40.448
1542.8400, -40.444
1542.8600, -40.443
1542.8800, -40.443
1542.9000, -40.427
1542.9200, -40.424
1542.9400, -40.413
1542.9600, -40.412
1542.9800, -40.406
1543.0000, -40.406
1543.0200, -40.391
1543.0400, -40.388
1543.0600, -40.385
1543.0800, -40.384
1543.1000, -40.371
1543.1200, -40.359
1543.1400, -40.353
1543.1600, -40.356
1543.1800, -40.355
1543.2000, -40.349
1543.2200, -40.343
1543.2400, -40.338
1543.2600, -40.339
1543.2800, -40.336
1543.3000, -40.332
1543.3200, -40.334
1543.3400, -40.323
1543.3600, -40.318
1543.3800, -40.318
1543.4000, -40.311
1543.4200, -40.312
1543.4400, -40.313
1543.4600, -40.302
1543.4800, -40.300
1543.5000, -40.310
1543.5200, -40.305
1543.5400, -40.301
1543.5600, -40.281
1543.5800, -40.276
1543.6000, -40.288
1543.6200, -40.291
1543.6400, -40.289
1543.6600, -40.288
1543.6800, -40.283
1543.7000, -40.280
1543.7200, -40.275
1543.7400, -40.271
1543.7600, -40.272
1543.7800, -40.264
1543.8000, -40.256
1543.8200, -40.249
1543.8400, -40.249
1543.8600, -40.243
1543.8800, -40.249
1543.9000, -40.241
1543.9200, -40.242
1543.9400, -40.234
1543.9600, -40.235
1543.9800, -40.237
1544.0000, -40.235
1544.0200, -40.227
1544.0400, -40.223
1544.0600, -40.222
1544.0800, -40.216
1544.1000, -40.215
1544.1200, -40.216
1544.1400, -40.212
1544.1600, -40.213
1544.1800, -40.208
1544.2000, -40.220
1544.2200, -40.217
1544.2400, -40.219
1544.2600, -40.207
1544.2800, -40.198
1544.3000, -40.203
1544.3200, -40.200
1544.3400, -40.201
1544.3600, -40.202
1544.3800, -40.192
1544.4000, -40.204
1544.4200, -40.202
1544.4400, -40.197
1544.4600, -40.189
1544.4800, -40.182
1544.5000, -40.177
1544.5200, -40.190
1544.5400, -40.186
1544.5600, -40.190
1544.5800, -40.186
1544.6000, -40.175
1544.6200, -40.170
1544.6400, -40.180
1544.6600, -40.184
1544.6800, -40.188
1544.7000, -40.191
1544.7200, -40.184
1544.7400, -40.195
1544.7600, -40.191
1544.7800, -40.176
1544.8000, -40.183
1544.8200, -40.181
1544.8400, -40.177
1544.8600, -40.183
1544.8800, -40.175
1544.9000, -40.179
1544.9200, -40.164
1544.9400, -40.160
1544.9600, -40.156
1544.9800, -40.158
1545.0000, -40.157
1545.0200, -40.158
1545.0400, -40.151
1545.0600, -40.151
1545.0800, -40.153
1545.1000, -40.157
1545.1200, -40.152
1545.1400, -40.158
1545.1600, -40.161
1545.1800, -40.148
1545.2000, -40.146
1545.2200, -40.145
1545.2400, -40.145
1545.2600, -40.151
1545.2800, -40.151
1545.3000, -40.147
1545.3200, -40.149
1545.3400, -40.167
1545.3600, -40.154
1545.3800, -40.159
1545.4000, -40.154
1545.4200, -40.163
1545.4400, -40.169
1545.4600, -40.164
1545.4800, -40.157
1545.5000, -40.145
1545.5200, -40.142
1545.5400, -40.144
1545.5600, -40.146
1545.5800, -40.138
1545.6000, -40.143
1545.6200, -40.149
1545.6400, -40.159
1545.6600, -40.162
1545.6800, -40.149
1545.7000, -40.148
1545.7200, -40.141
1545.7400, -40.134
1545.7600, -40.139
1545.7800, -40.131
1545.8000, -40.142
1545.8200, -40.138
1545.8400, -40.133
1545.8600, -40.124
1545.8800, -40.118
1545.9000, -40.121
1545.9200, -40.125
1545.9400, -40.130
1545.9600, -40.126
1545.9800, -40.134
1546.0000, -40.128
1546.0200, -40.128
1546.0400, -40.126
1546.0600, -40.129
1546.0800, -40.119
1546.1000, -40.112
1546.1200, -40.112
1546.1400, -40.111
1546.1600, -40.118
1546.1800, -40.118
1546.2000, -40.116
1546.2200, -40.121
1546.2400, -40.135
1546.2600, -40.129
1546.2800, -40.125
1546.3000, -40.125
1546.3200, -40.127
1546.3400, -40.129
1546.3600, -40.128
1546.3800, -40.127
1546.4000, -40.126
1546.4200, -40.130
1546.4400, -40.135
1546.4600, -40.143
1546.4800, -40.143
1546.5000, -40.146
1546.5200, -40.139
1546.5400, -40.155
1546.5600, -40.159
1546.5800, -40.152
1546.6000, -40.143
1546.6200, -40.147
1546.6400, -40.138
1546.6600, -40.143
1546.6800, -40.153
1546.7000, -40.154
1546.7200, -40.157
1546.7400, -40.154
1546.7600, -40.148
1546.7800, -40.141
1546.8000, -40.134
1546.8200, -40.126
1546.8400, -40.129
1546.8600, -40.127
1546.8800, -40.130
1546.9000, -40.129
1546.9200, -40.140
1546.9400, -40.141
1546.9600, -40.141
1546.9800, -40.137
1547.0000, -40.127
1547.0200, -40.129
1547.0400, -40.124
1547.0600, -40.125
1547.0800, -40.128
1547.1000, -40.121
1547.1200, -40.118
1547.1400, -40.131
1547.1600, -40.142
1547.1800, -40.137
1547.2000, -40.148
1547.2200, -40.145
1547.2400, -40.155
1547.2600, -40.155
1547.2800, -40.151
1547.3000, -40.148
1547.3200, -40.148
1547.3400, -40.152
1547.3600, -40.162
1547.3800, -40.168
1547.4000, -40.165
1547.4200, -40.169
1547.4400, -40.170
1547.4600, -40.170
1547.4800, -40.172
1547.5000, -40.171
1547.5200, -40.157
1547.5400, -40.158
1547.5600, -40.155
1547.5800, -40.163
1547.6000, -40.153
1547.6200, -40.159
1547.6400, -40.154
1547.6600, -40.155
1547.6800, -40.154
1547.7000, -40.160
1547.7200, -40.161
1547.7400, -40.165
1547.7600, -40.165
1547.7800, -40.163
1547.8000, -40.170
1547.8200, -40.182
1547.8400, -40.178
1547.8600, -40.187
1547.8800, -40.173
1547.9000, -40.169
1547.9200, -40.175
1547.9400, -40.173
1547.9600, -40.174
1547.9800, -40.188
1548.0000, -40.197
1548.0200, -40.187
1548.0400, -40.201
1548.0600, -40.207
1548.0800, -40.199
1548.1000, -40.202
1548.1200, -40.192
1548.1400, -40.201
1548.1600, -40.204
1548.1800, -40.197
1548.2000, -40.199
1548.2200, -40.194
1548.2400, -40.196
1548.2600, -40.206
1548.2800, -40.216
1548.3000, -40.217
1548.3200, -40.216
1548.3400, -40.218
1548.3600, -40.220
1548.3800, -40.221
1548.4000, -40.223
1548.4200, -40.215
1548.4400, -40.206
1548.4600, -40.209
1548.4800, -40.227
1548.5000, -40.217
1548.5200, -40.228
1548.5400, -40.212
1548.5600, -40.213
1548.5800, -40.212
1548.6000, -40.225
1548.6200, -40.223
1548.6400, -40.223
1548.6600, -40.236
1548.6800, -40.238
1548.7000, -40.232
1548.7200, -40.238
1548.7400, -40.239
1548.7600, -40.256
1548.7800, -40.254
1548.8000, -40.247
1548.8200, -40.250
1548.8400, -40.251
1548.8600, -40.247
1548.8800, -40.250
1548.9000, -40.253
1548.9200, -40.269
1548.9400, -40.269
1548.9600, -40.271
1548.9800, -40.265
1549.0000, -40.271
1549.0200, -40.272
1549.0400, -40.272
1549.0600, -40.283
1549.0800, -40.285
1549.1000, -40.288
1549.1200, -40.273
1549.1400, -40.281
1549.1600, -40.292
1549.1800, -40.291
1549.2000, -40.300
1549.2200, -40.303
1549.2400, -40.315
1549.2600, -40.320
1549.2800, -40.320
1549.3000, -40.319
1549.3200, -40.306
1549.3400, -40.299
1549.3600, -40.298
1549.3800, -40.294
1549.4000, -40.296
1549.4200, -40.310
1549.4400, -40.305
1549.4600, -40.303
1549.4800, -40.301
1549.5000, -40.313
1549.5200, -40.314
1549.5400, -40.318
1549.5600, -40.326
1549.5800, -40.323
1549.6000, -40.326
1549.6200, -40.332
1549.6400, -40.332
1549.6600, -40.343
1549.6800, -40.341
1549.7000, -40.335
1549.7200, -40.341
1549.7400, -40.345
1549.7600, -40.341
1549.7800, -40.338
1549.8000, -40.353
1549.8200, -40.351
1549.8400, -40.359
1549.8600, -40.373
1549.8800, -40.372
1549.9000, -40.379
1549.9200, -40.378
1549.9400, -40.370
1549.9600, -40.377
1549.9800, -40.373
1550.0000, -40.373
1550.0200, -40.381
1550.0400, -40.384
1550.0600, -40.387
1550.0800, -40.392
1550.1000, -40.396
1550.1200, -40.399
1550.1400, -40.399
1550.1600, -40.409
1550.1800, -40.409
1550.2000, -40.397
1550.2200, -40.393
1550.2400, -40.400
1550.2600, -40.395
1550.2800, -40.413
1550.3000, -40.410
1550.3200, -40.428
1550.3400, -40.423
1550.3600, -40.422
1550.3800, -40.422
1550.4000, -40.430
1550.4200, -40.425
1550.4400, -40.429
1550.4600, -40.436
1550.4800, -40.443
1550.5000, -40.438
1550.5200, -40.446
1550.5400, -40.450
1550.5600, -40.456
1550.5800, -40.449
1550.6000, -40.447
1550.6200, -40.453
1550.6400, -40.460
1550.6600, -40.463
1550.6800, -40.465
1550.7000, -40.477
1550.7200, -40.478
1550.7400, -40.492
1550.7600, -40.497
1550.7800, -40.497
1550.8000, -40.506
1550.8200, -40.513
1550.8400, -40.514
1550.8600, -40.523
1550.8800, -40.520
1550.9000, -40.527
1550.9200, -40.525
1550.9400, -40.525
1550.9600, -40.526
1550.9800, -40.536
1551.0000, -40.535
1551.0200, -40.527
1551.0400, -40.545
1551.0600, -40.548
1551.0800, -40.552
1551.1000, -40.552
1551.1200, -40.549
1551.1400, -40.540
1551.1600, -40.540
1551.1800, -40.547
1551.2000, -40.557
1551.2200, -40.561
1551.2400, -40.558
1551.2600, -40.558
1551.2800, -40.562
1551.3000, -40.568
1551.3200, -40.565
1551.3400, -40.567
1551.3600, -40.577
1551.3800, -40.576
1551.4000, -40.582
1551.4200, -40.578
1551.4400, -40.581
1551.4600, -40.593
1551.4800, -40.584
1551.5000, -40.583
1551.5200, -40.585
1551.5400, -40.583
1551.5600, -40.585
1551.5800, -40.587
1551.6000, -40.597
1551.6200, -40.602
1551.6400, -40.609
1551.6600, -40.621
1551.6800, -40.619
1551.7000, -40.628
1551.7200, -40.632
1551.7400, -40.640
1551.7600, -40.644
1551.7800, -40.643
1551.8000, -40.645
1551.8200, -40.650
1551.8400, -40.656
1551.8600, -40.659
1551.8800, -40.669
1551.9000, -40.667
1551.9200, -40.671
1551.9400, -40.673
1551.9600, -40.675
1551.9800, -40.677
1552.0000, -40.681
1552.0200, -40.678
1552.0400, -40.676
1552.0600, -40.672
1552.0800, -40.684
1552.1000, -40.685
1552.1200, -40.701
1552.1400, -40.699
1552.1600, -40.693
1552.1800, -40.701
1552.2000, -40.708
1552.2200, -40.705
1552.2400, -40.709
1552.2600, -40.715
1552.2800, -40.715
1552.3000, -40.717
1552.3200, -40.720
1552.3400, -40.729
1552.3600, -40.735
1552.3800, -40.729
1552.4000, -40.725
1552.4200, -40.730
1552.4400, -40.730
1552.4600, -40.732
1552.4800, -40.731
1552.5000, -40.740
1552.5200, -40.739
1552.5400, -40.744
1552.5600, -40.756
1552.5800, -40.755
1552.6000, -40.758
1552.6200, -40.764
1552.6400, -40.764
1552.6600, -40.776
1552.6800, -40.771
1552.7000, -40.781
1552.7200, -40.782
1552.7400, -40.787
1552.7600, -40.790
1552.7800, -40.799
1552.8000, -40.789
1552.8200, -40.802
1552.8400, -40.804
1552.8600, -40.806
1552.8800, -40.809
1552.9000, -40.810
1552.9200, -40.805
1552.9400, -40.801
1552.9600, -40.800
1552.9800, -40.809
1553.0000, -40.815
1553.0200, -40.822
1553.0400, -40.823
1553.0600, -40.816
1553.0800, -40.824
1553.1000, -40.828
1553.1200, -40.828
1553.1400, -40.828
1553.1600, -40.835
1553.1800, -40.839
1553.2000, -40.841
1553.2200, -40.845
1553.2400, -40.851
1553.2600, -40.863
1553.2800, -40.863
1553.3000, -40.864
1553.3200, -40.869
1553.3400, -40.872
1553.3600, -40.869
1553.3800, -40.867
1553.4000, -40.866
1553.4200, -40.870
1553.4400, -40.879
1553.4600, -40.870
1553.4800, -40.874
1553.5000, -40.877
1553.5200, -40.874
1553.5400, -40.877
1553.5600, -40.881
1553.5800, -40.882
1553.6000, -40.889
1553.6200, -40.893
1553.6400, -40.896
1553.6600, -40.907
1553.6800, -40.903
1553.7000, -40.903
1553.7200, -40.913
1553.7400, -40.922
1553.7600, -40.927
1553.7800, -40.930
1553.8000, -40.929
1553.8200, -40.927
1553.8400, -40.921
1553.8600, -40.920
1553.8800, -40.925
1553.9000, -40.935
1553.9200, -40.943
1553.9400, -40.937
1553.9600, -40.929
1553.9800, -40.935
1554.0000, -40.944
1554.0200, -40.942
1554.0400, -40.944
1554.0600, -40.959
1554.0800, -40.956
1554.1000, -40.956
1554.1200, -40.961
1554.1400, -40.972
1554.1600, -40.983
1554.1800, -40.974
1554.2000, -40.976
1554.2200, -40.985
1554.2400, -40.987
1554.2600, -40.986
1554.2800, -40.989
1554.3000, -40.989
1554.3200, -41.003
1554.3400, -41.005
1554.3600, -41.001
1554.3800, -40.987
1554.4000, -41.001
1554.4200, -41.002
1554.4400, -41.003
1554.4600, -40.996
1554.4800, -41.000
1554.5000, -40.998
1554.5200, -40.999
1554.5400, -41.004
1554.5600, -41.013
1554.5800, -41.002
1554.6000, -41.009
1554.6200, -41.017
1554.6400, -41.004
1554.6600, -41.003
1554.6800, -41.008
1554.7000, -41.017
1554.7200, -41.021
1554.7400, -41.016
1554.7600, -41.019
1554.7800, -41.016
1554.8000, -41.029
1554.8200, -41.038
1554.8400, -41.030
1554.8600, -41.029
1554.8800, -41.039
1554.9000, -41.038
1554.9200, -41.045
1554.9400, -41.046
1554.9600, -41.048
1554.9800, -41.048
1555.0000, -41.046
1555.0200, -41.044
1555.0400, -41.051
1555.0600, -41.058
1555.0800, -41.047
1555.1000, -41.051
1555.1200, -41.059
1555.1400, -41.054
1555.1600, -41.054
1555.1800, -41.058
1555.2000, -41.061
1555.2200, -41.063
1555.2400, -41.071
1555.2600, -41.084
1555.2800, -41.091
1555.3000, -41.094
1555.3200, -41.087
1555.3400, -41.101
1555.3600, -41.091
1555.3800, -41.099
1555.4000, -41.101
1555.4200, -41.098
1555.4400, -41.102
1555.4600, -41.113
1555.4800, -41.109
1555.5000, -41.113
1555.5200, -41.120
1555.5400, -41.119
1555.5600, -41.124
1555.5800, -41.124
1555.6000, -41.124
1555.6200, -41.121
1555.6400, -41.125
1555.6600, -41.126
1555.6800, -41.130
1555.7000, -41.142
1555.7200, -41.140
1555.7400, -41.135
1555.7600, -41.134
1555.7800, -41.136
1555.8000, -41.143
1555.8200, -41.144
1555.8400, -41.150
1555.8600, -41.149
1555.8800, -41.149
1555.9000, -41.151
1555.9200, -41.155
1555.9400, -41.164
1555.9600, -41.162
1555.9800, -41.160
1556.0000, -41.161
1556.0200, -41.171
1556.0400, -41.177
1556.0600, -41.181
1556.0800, -41.186
1556.1000, -41.192
1556.1200, -41.196
1556.1400, -41.203
1556.1600, -41.205
1556.1800, -41.210
1556.2000, -41.202
1556.2200, -41.199
1556.2400, -41.218
1556.2600, -41.216
1556.2800, -41.217
1556.3000, -41.219
1556.3200, -41.223
1556.3400, -41.227
1556.3600, -41.223
1556.3800, -41.222
1556.4000, -41.224
1556.4200, -41.224
1556.4400, -41.239
1556.4600, -41.233
1556.4800, -41.232
1556.5000, -41.240
1556.5200, -41.240
1556.5400, -41.241
1556.5600, -41.240
1556.5800, -41.247
1556.6000, -41.254
1556.6200, -41.249
1556.6400, -41.249
1556.6600, -41.252
1556.6800, -41.258
1556.7000, -41.266
1556.7200, -41.271
1556.7400, -41.275
1556.7600, -41.275
1556.7800, -41.279
1556.8000, -41.281
1556.8200, -41.291
1556.8400, -41.297
1556.8600, -41.291
1556.8800, -41.295
1556.9000, -41.298
1556.9200, -41.308
1556.9400, -41.312
1556.9600, -41.316
1556.9800, -41.319
1557.0000, -41.329
1557.0200, -41.330
1557.0400, -41.329
1557.0600, -41.331
1557.0800, -41.333
1557.1000, -41.331
1557.1200, -41.340
1557.1400, -41.338
1557.1600, -41.343
1557.1800, -41.345
1557.2000, -41.355
1557.2200, -41.356
1557.2400, -41.363
1557.2600, -41.363
1557.2800, -41.372
1557.3000, -41.374
1557.3200, -41.372
1557.3400, -41.378
1557.3600, -41.377
1557.3800, -41.384
1557.4000, -41.390
1557.4200, -41.395
1557.4400, -41.404
1557.4600, -41.405
1557.4800, -41.421
1557.5000, -41.424
1557.5200, -41.422
1557.5400, -41.425
1557.5600, -41.428
1557.5800, -41.437
1557.6000, -41.444
1557.6200, -41.444
1557.6400, -41.445
1557.6600, -41.453
1557.6800, -41.458
1557.7000, -41.464
1557.7200, -41.476
1557.7400, -41.477
1557.7600, -41.482
1557.7800, -41.482
1557.8000, -41.494
1557.8200, -41.499
1557.8400, -41.497
1557.8600, -41.504
1557.8800, -41.499
1557.9000, -41.500
1557.9200, -41.514
1557.9400, -41.518
1557.9600, -41.524
1557.9800, -41.518
1558.0000, -41.529
1558.0200, -41.538
1558.0400, -41.538
1558.0600, -41.549
1558.0800, -41.558
1558.1000, -41.560
1558.1200, -41.574
1558.1400, -41.580
1558.1600, -41.581
1558.1800, -41.591
1558.2000, -41.597
1558.2200, -41.605
1558.2400, -41.613
1558.2600, -41.606
1558.2800, -41.610
1558.3000, -41.613
1558.3200, -41.619
1558.3400, -41.623
1558.3600, -41.636
1558.3800, -41.645
1558.4000, -41.645
1558.4200, -41.652
1558.4400, -41.651
1558.4600, -41.659
1558.4800, -41.666
1558.5000, -41.667
1558.5200, -41.677
1558.5400, -41.674
1558.5600, -41.684
1558.5800, -41.685
1558.6000, -41.698
1558.6200, -41.705
1558.6400, -41.711
1558.6600, -41.713
1558.6800, -41.719
1558.7000, -41.730
1558.7200, -41.741
1558.7400, -41.741
1558.7600, -41.747
1558.7800, -41.758
1558.8000, -41.769
1558.8200, -41.768
1558.8400, -41.786
1558.8600, -41.790
1558.8800, -41.793
1558.9000, -41.802
1558.9200, -41.809
1558.9400, -41.820
1558.9600, -41.827
1558.9800, -41.838
1559.0000, -41.846
1559.0200, -41.859
1559.0400, -41.861
1559.0600, -41.875
1559.0800, -41.883
1559.1000, -41.889
1559.1200, -41.885
1559.1400, -41.902
1559.1600, -41.907
1559.1800, -41.921
1559.2000, -41.931
1559.2200, -41.933
1559.2400, -41.947
1559.2600, -41.955
1559.2800, -41.963
1559.3000, -41.965
1559.3200, -41.969
1559.3400, -41.977
1559.3600, -41.989
1559.3800, -41.995
1559.4000, -41.999
1559.4200, -42.005
1559.4400, -42.014
1559.4600, -42.024
1559.4800, -42.036
1559.5000, -42.045
1559.5200, -42.055
1559.5400, -42.067
1559.5600, -42.073
1559.5800, -42.084
1559.6000, -42.094
1559.6200, -42.100
1559.6400, -42.108
1559.6600, -42.117
1559.6800, -42.130
1559.7000, -42.139
1559.7200, -42.148
1559.7400, -42.158
1559.7600, -42.165
1559.7800, -42.181
1559.8000, -42.184
1559.8200, -42.189
1559.8400, -42.196
1559.8600, -42.204
1559.8800, -42.217
1559.9000, -42.229
1559.9200, -42.236
1559.9400, -42.243
1559.9600, -42.254
1559.9800, -42.262
1560.0000, -42.268
1560.0200, -42.286
1560.0400, -42.289
1560.0600, -42.299
1560.0800, -42.310
1560.1000, -42.321
1560.1200, -42.330
1560.1400, -42.344
1560.1600, -42.352
1560.1800, -42.363
1560.2000, -42.378
1560.2200, -42.388
1560.2400, -42.397
1560.2600, -42.412
1560.2800, -42.426
1560.3000, -42.441
1560.3200, -42.449
1560.3400, -42.458
1560.3600, -42.464
1560.3800, -42.479
1560.4000, -42.493
1560.4200, -42.499
1560.4400, -42.510
1560.4600, -42.519
1560.4800, -42.536
1560.5000, -42.548
1560.5200, -42.561
1560.5400, -42.571
1560.5600, -42.591
1560.5800, -42.609
1560.6000, -42.617
1560.6200, -42.631
1560.6400, -42.644
1560.6600, -42.659
1560.6800, -42.672
1560.7000, -42.688
1560.7200, -42.694
1560.7400, -42.706
1560.7600, -42.718
1560.7800, -42.732
1560.8000, -42.741
1560.8200, -42.747
1560.8400, -42.761
1560.8600, -42.772
1560.8800, -42.792
1560.9000, -42.807
1560.9200, -42.808
1560.9400, -42.813
1560.9600, -42.827
1560.9800, -42.835
1561.0000, -42.848
1561.0200, -42.864
1561.0400, -42.874
1561.0600, -42.885
1561.0800, -42.899
1561.1000, -42.908
1561.1200, -42.922
1561.1400, -42.937
1561.1600, -42.952
1561.1800, -42.956
1561.2000, -42.969
1561.2200, -42.982
1561.2400, -42.995
1561.2600, -43.006
1561.2800, -43.025
1561.3000, -43.035
1561.3200, -43.046
1561.3400, -43.058
1561.3600, -43.080
1561.3800, -43.097
1561.4000, -43.114
1561.4200, -43.117
1561.4400, -43.133
1561.4600, -43.151
1561.4800, -43.175
1561.5000, -43.191
1561.5200, -43.207
1561.5400, -43.215
1561.5600, -43.230
1561.5800, -43.245
1561.6000, -43.258
1561.6200, -43.273
1561.6400, -43.291
1561.6600, -43.312
1561.6800, -43.328
1561.7000, -43.338
1561.7200, -43.354
1561.7400, -43.375
1561.7600, -43.391
1561.7800, -43.412
1561.8000, -43.416
1561.8200, -43.416
1561.8400, -43.438
1561.8600, -43.449
1561.8800, -43.458
1561.9000, -43.478
1561.9200, -43.496
1561.9400, -43.509
1561.9600, -43.525
1561.9800, -43.534
1562.0000, -43.547
1562.0200, -43.569
1562.0400, -43.583
1562.0600, -43.594
1562.0800, -43.613
1562.1000, -43.629
1562.1200, -43.646
1562.1400, -43.659
1562.1600, -43.678
1562.1800, -43.692
1562.2000, -43.709
1562.2200, -43.726
1562.2400, -43.749
1562.2600, -43.766
1562.2800, -43.783
1562.3000, -43.792
1562.3200, -43.805
1562.3400, -43.832
1562.3600, -43.846
1562.3800, -43.868
1562.4000, -43.884
1562.4200, -43.901
1562.4400, -43.916
1562.4600, -43.936
1562.4800, -43.945
1562.5000, -43.960
1562.5200, -43.978
1562.5400, -43.995
1562.5600, -44.016
1562.5800, -44.030
1562.6000, -44.043
1562.6200, -44.063
1562.6400, -44.085
1562.6600, -44.101
1562.6800, -44.115
1562.7000, -44.117
1562.7200, -44.139
1562.7400, -44.152
1562.7600, -44.165
1562.7800, -44.184
1562.8000, -44.204
1562.8200, -44.219
1562.8400, -44.231
1562.8600, -44.251
1562.8800, -44.270
1562.9000, -44.289
1562.9200, -44.304
1562.9400, -44.317
1562.9600, -44.335
1562.9800, -44.349
1563.0000, -44.370
1563.0200, -44.392
1563.0400, -44.410
1563.0600, -44.422
1563.0800, -44.445
1563.1000, -44.462
1563.1200, -44.481
1563.1400, -44.501
1563.1600, -44.514
1563.1800, -44.530
1563.2000, -44.550
1563.2200, -44.578
1563.2400, -44.592
1563.2600, -44.607
1563.2800, -44.620
1563.3000, -44.637
1563.3200, -44.655
1563.3400, -44.668
1563.3600, -44.687
1563.3800, -44.701
1563.4000, -44.726
1563.4200, -44.745
1563.4400, -44.764
1563.4600, -44.780
1563.4800, -44.801
1563.5000, -44.817
1563.5200, -44.839
1563.5400, -44.860
1563.5600, -44.874
1563.5800, -44.879
1563.6000, -44.895
1563.6200, -44.914
1563.6400, -44.935
1563.6600, -44.953
1563.6800, -44.973
1563.7000, -44.990
1563.7200, -45.010
1563.7400, -45.030
1563.7600, -45.050
1563.7800, -45.071
1563.8000, -45.088
1563.8200, -45.099
1563.8400, -45.113
1563.8600, -45.134
1563.8800, -45.154
1563.9000, -45.174
1563.9200, -45.196
1563.9400, -45.213
1563.9600, -45.237
1563.9800, -45.254
1564.0000, -45.275
1564.0200, -45.291
1564.0400, -45.308
1564.0600, -45.324
1564.0800, -45.338
1564.1000, -45.360
1564.1200, -45.386
1564.1400, -45.406
1564.1600, -45.422
1564.1800, -45.440
1564.2000, -45.463
1564.2200, -45.484
1564.2400, -45.497
1564.2600, -45.513
1564.2800, -45.535
1564.3000, -45.556
1564.3200, -45.576
1564.3400, -45.594
1564.3600, -45.609
1564.3800, -45.635
1564.4000, -45.661
1564.4200, -45.680
1564.4400, -45.700
1564.4600, -45.704
1564.4800, -45.728
1564.5000, -45.745
1564.5200, -45.765
1564.5400, -45.787
1564.5600, -45.806
1564.5800, -45.824
1564.6000, -45.843
1564.6200, -45.861
1564.6400, -45.880
1564.6600, -45.903
1564.6800, -45.924
1564.7000, -45.941
1564.7200, -45.957
1564.7400, -45.977
1564.7600, -45.996
1564.7800, -46.014
1564.8000, -46.039
1564.8200, -46.053
1564.8400, -46.073
1564.8600, -46.093
1564.8800, -46.115
1564.9000, -46.134
1564.9200, -46.147
1564.9400, -46.166
1564.9600, -46.187
1564.9800, -46.207
1565.0000, -46.232
1565.0200, -46.254
1565.0400, -46.276
1565.0600, -46.298
1565.0800, -46.315
1565.1000, -46.330
1565.1200, -46.345
1565.1400, -46.371
1565.1600, -46.393
1565.1800, -46.414
1565.2000, -46.439
1565.2200, -46.458
1565.2400, -46.470
1565.2600, -46.497
1565.2800, -46.517
1565.3000, -46.526
1565.3200, -46.549
1565.3400, -46.568
1565.3600, -46.595
1565.3800, -46.613
1565.4000, -46.630
1565.4200, -46.645
1565.4400, -46.674
1565.4600, -46.690
1565.4800, -46.710
1565.5000, -46.731
1565.5200, -46.752
1565.5400, -46.773
1565.5600, -46.787
1565.5800, -46.805
1565.6000, -46.827
1565.6200, -46.847
1565.6400, -46.863
1565.6600, -46.884
1565.6800, -46.905
1565.7000, -46.922
1565.7200, -46.944
1565.7400, -46.965
1565.7600, -46.988
1565.7800, -47.008
1565.8000, -47.028
1565.8200, -47.044
1565.8400, -47.056
1565.8600, -47.086
1565.8800, -47.114
1565.9000, -47.130
1565.9200, -47.154
1565.9400, -47.171
1565.9600, -47.200
1565.9800, -47.214
1566.0000, -47.232
1566.0200, -47.251
1566.0400, -47.274
1566.0600, -47.296
1566.0800, -47.319
1566.1000, -47.342
1566.1200, -47.356
1566.1400, -47.376
1566.1600, -47.400
1566.1800, -47.423
1566.2000, -47.441
1566.2200, -47.451
1566.2400, -47.472
1566.2600, -47.495
1566.2800, -47.510
1566.3000, -47.530
1566.3200, -47.549
1566.3400, -47.574
1566.3600, -47.589
1566.3800, -47.608
1566.4000, -47.629
1566.4200, -47.658
1566.4400, -47.670
1566.4600, -47.688
1566.4800, -47.710
1566.5000, -47.730
1566.5200, -47.749
1566.5400, -47.770
1566.5600, -47.791
1566.5800, -47.810
1566.6000, -47.829
1566.6200, -47.846
1566.6400, -47.869
1566.6600, -47.890
1566.6800, -47.913
1566.7000, -47.930
1566.7200, -47.947
1566.7400, -47.977
1566.7600, -47.997
1566.7800, -48.016
1566.8000, -48.036
1566.8200, -48.055
1566.8400, -48.079
1566.8600, -48.091
1566.8800, -48.110
1566.9000, -48.132
1566.9200, -48.153
1566.9400, -48.173
1566.9600, -48.195
1566.9800, -48.211
1567.0000, -48.232
1567.0200, -48.251
1567.0400, -48.280
1567.0600, -48.304
1567.0800, -48.318
1567.1000, -48.333
1567.1200, -48.348
1567.1400, -48.377
1567.1600, -48.389
1567.1800, -48.408
1567.2000, -48.431
1567.2200, -48.455
1567.2400, -48.467
1567.2600, -48.489
1567.2800, -48.511
1567.3000, -48.533
1567.3200, -48.548
1567.3400, -48.570
1567.3600, -48.587
1567.3800, -48.608
1567.4000, -48.627
1567.4200, -48.650
1567.4400, -48.668
1567.4600, -48.687
1567.4800, -48.705
1567.5000, -48.722
1567.5200, -48.750
1567.5400, -48.772
1567.5600, -48.788
1567.5800, -48.812
1567.6000, -48.837
1567.6200, -48.863
1567.6400, -48.878
1567.6600, -48.897
1567.6800, -48.917
1567.7000, -48.935
1567.7200, -48.965
1567.7400, -48.980
1567.7600, -48.998
1567.7800, -49.017
1567.8000, -49.040
1567.8200, -49.051
1567.8400, -49.080
1567.8600, -49.094
1567.8800, -49.117
1567.9000, -49.140
1567.9200, -49.162
1567.9400, -49.180
1567.9600, -49.196
1567.9800, -49.213
1568.0000, -49.229
1568.0200, -49.244
1568.0400, -49.265
1568.0600, -49.288
1568.0800, -49.314
1568.1000, -49.338
1568.1200, -49.345
1568.1400, -49.363
1568.1600, -49.382
1568.1800, -49.405
1568.2000, -49.422
1568.2200, -49.449
1568.2400, -49.465
1568.2600, -49.482
1568.2800, -49.499
1568.3000, -49.528
1568.3200, -49.552
1568.3400, -49.569
1568.3600, -49.586
1568.3800, -49.600
1568.4000, -49.626
1568.4200, -49.644
1568.4400, -49.666
1568.4600, -49.684
1568.4800, -49.717
1568.5000, -49.736
1568.5200, -49.749
1568.5400, -49.769
1568.5600, -49.787
1568.5800, -49.800
1568.6000, -49.829
1568.6200, -49.847
1568.6400, -49.867
1568.6600, -49.887
1568.6800, -49.908
1568.7000, -49.918
1568.7200, -49.948
1568.7400, -49.966
1568.7600, -49.980
1568.7800, -50.009
1568.8000, -50.015
1568.8200, -50.040
1568.8400, -50.054
1568.8600, -50.080
1568.8800, -50.097
1568.9000, -50.111
1568.9200, -50.132
1568.9400, -50.157
1568.9600, -50.179
1568.9800, -50.194
1569.0000, -50.212
1569.0200, -50.233
1569.0400, -50.253
1569.0600, -50.274
1569.0800, -50.296
1569.1000, -50.312
1569.1200, -50.334
1569.1400, -50.349
1569.1600, -50.371
1569.1800, -50.388
1569.2000, -50.414
1569.2200, -50.427
1569.2400, -50.449
1569.2600, -50.464
1569.2800, -50.486
1569.3000, -50.503
1569.3200, -50.525
1569.3400, -50.541
1569.3600, -50.558
1569.3800, -50.590
1569.4000, -50.608
1569.4200, -50.627
1569.4400, -50.641
1569.4600, -50.660
1569.4800, -50.683
1569.5000, -50.702
1569.5200, -50.718
1569.5400, -50.743
1569.5600, -50.752
1569.5800, -50.772
1569.6000, -50.798
1569.6200, -50.815
1569.6400, -50.837
1569.6600, -50.862
1569.6800, -50.877
1569.7000, -50.900
1569.7200, -50.913
1569.7400, -50.931
1569.7600, -50.947
1569.7800, -50.962
1569.8000, -50.979
1569.8200, -51.005
1569.8400, -51.026
1569.8600, -51.041
1569.8800, -51.055
1569.9000, -51.072
1569.9200, -51.095
1569.9400, -51.114
1569.9600, -51.129
1569.9800, -51.152
1570.0000, -51.171
1570.0200, -51.186
1570.0400, -51.207
1570.0600, -51.234
1570.0800, -51.248
1570.1000, -51.264
1570.1200, -51.278
1570.1400, -51.300
1570.1600, -51.319
1570.1800, -51.335
1570.2000, -51.356
1570.2200, -51.375
1570.2400, -51.394
1570.2600, -51.414
1570.2800, -51.441
1570.3000, -51.459
1570.3200, -51.476
1570.3400, -51.493
1570.3600, -51.511
1570.3800, -51.528
1570.4000, -51.553
1570.4200, -51.565
1570.4400, -51.584
1570.4600, -51.607
1570.4800, -51.631
1570.5000, -51.639
1570.5200, -51.661
1570.5400, -51.674
1570.5600, -51.701
1570.5800, -51.722
1570.6000, -51.734
1570.6200, -51.750
1570.6400, -51.766
1570.6600, -51.787
1570.6800, -51.801
1570.7000, -51.826
1570.7200, -51.846
1570.7400, -51.857
1570.7600, -51.882
1570.7800, -51.901
1570.8000, -51.918
1570.8200, -51.936
1570.8400, -51.956
1570.8600, -51.970
1570.8800, -51.986
1570.9000, -52.003
1570.9200, -52.029
1570.9400, -52.055
1570.9600, -52.061
1570.9800, -52.076
1571.0000, -52.098
1571.0200, -52.116
1571.0400, -52.130
1571.0600, -52.153
1571.0800, -52.167
1571.1000, -52.198
1571.1200, -52.209
1571.1400, -52.222
1571.1600, -52.245
1571.1800, -52.264
1571.2000, -52.279
1571.2200, -52.307
1571.2400, -52.313
1571.2600, -52.337
1571.2800, -52.357
1571.3000, -52.373
1571.3200, -52.390
1571.3400, -52.408
1571.3600, -52.425
1571.3800, -52.448
1571.4000, -52.464
1571.4200, -52.486
1571.4400, -52.503
1571.4600, -52.526
1571.4800, -52.533
1571.5000, -52.547
1571.5200, -52.564
1571.5400, -52.592
1571.5600, -52.608
1571.5800, -52.631
1571.6000, -52.649
1571.6200, -52.653
1571.6400, -52.676
1571.6600, -52.694
1571.6800, -52.709
1571.7000, -52.728
1571.7200, -52.747
1571.7400, -52.761
1571.7600, -52.776
1571.7800, -52.794
1571.8000, -52.821
1571.8200, -52.837
1571.8400, -52.850
1571.8600, -52.869
1571.8800, -52.886
1571.9000, -52.900
1571.9200, -52.913
1571.9400, -52.938
1571.9600, -52.952
1571.9800, -52.977
1572.0000, -52.998
1572.0200, -53.016
1572.0400, -53.028
1572.0600, -53.048
1572.0800, -53.060
1572.1000, -53.089
1572.1200, -53.091
1572.1400, -53.120
1572.1600, -53.134
1572.1800, -53.145
1572.2000, -53.165
1572.2200, -53.182
1572.2400, -53.201
1572.2600, -53.219
1572.2800, -53.241
1572.3000, -53.261
1572.3200, -53.271
1572.3400, -53.284
1572.3600, -53.296
1572.3800, -53.316
1572.4000, -53.327
1572.4200, -53.351
1572.4400, -53.369
1572.4600, -53.387
1572.4800, -53.396
1572.5000, -53.410
1572.5200, -53.433
1572.5400, -53.449
1572.5600, -53.468
1572.5800, -53.488
1572.6000, -53.500
1572.6200, -53.510
1572.6400, -53.534
1572.6600, -53.548
1572.6800, -53.569
1572.7000, -53.578
1572.7200, -53.586
1572.7400, -53.618
1572.7600, -53.622
1572.7800, -53.641
1572.8000, -53.660
1572.8200, -53.679
1572.8400, -53.700
1572.8600, -53.717
1572.8800, -53.728
1572.9000, -53.749
1572.9200, -53.765
1572.9400, -53.776
1572.9600, -53.797
1572.9800, -53.816
1573.0000, -53.829
1573.0200, -53.844
1573.0400, -53.863
1573.0600, -53.877
1573.0800, -53.900
1573.1000, -53.915
1573.1200, -53.932
1573.1400, -53.949
1573.1600, -53.955
1573.1800, -53.967
1573.2000, -53.989
1573.2200, -54.008
1573.2400, -54.024
1573.2600, -54.028
1573.2800, -54.058
1573.3000, -54.075
1573.3200, -54.093
1573.3400, -54.105
1573.3600, -54.105
1573.3800, -54.125
1573.4000, -54.146
1573.4200, -54.157
1573.4400, -54.181
1573.4600, -54.184
1573.4800, -54.206
1573.5000, -54.223
1573.5200, -54.247
1573.5400, -54.263
1573.5600, -54.270
1573.5800, -54.283
1573.6000, -54.303
1573.6200, -54.316
1573.6400, -54.330
1573.6600, -54.353
1573.6800, -54.365
1573.7000, -54.383
1573.7200, -54.398
1573.7400, -54.415
1573.7600, -54.430
1573.7800, -54.444
1573.8000, -54.452
1573.8200, -54.477
1573.8400, -54.496
1573.8600, -54.503
1573.8800, -54.519
1573.9000, -54.526
1573.9200, -54.547
1573.9400, -54.567
1573.9600, -54.582
1573.9800, -54.592
1574.0000, -54.612
1574.0200, -54.629
1574.0400, -54.650
1574.0600, -54.659
1574.0800, -54.672
1574.1000, -54.678
1574.1200, -54.699
1574.1400, -54.720
1574.1600, -54.726
1574.1800, -54.744
1574.2000, -54.761
1574.2200, -54.769
1574.2400, -54.793
1574.2600, -54.798
1574.2800, -54.811
1574.3000, -54.833
1574.3200, -54.843
1574.3400, -54.859
1574.3600, -54.872
1574.3800, -54.892
1574.4000, -54.912
1574.4200, -54.913
1574.4400, -54.935
1574.4600, -54.941
1574.4800, -54.965
1574.5000, -54.964
1574.5200, -54.993
1574.5400, -55.005
1574.5600, -55.017
1574.5800, -55.030
1574.6000, -55.055
1574.6200, -55.063
1574.6400, -55.081
1574.6600, -55.099
1574.6800, -55.117
1574.7000, -55.125
1574.7200, -55.150
1574.7400, -55.152
1574.7600, -55.167
1574.7800, -55.182
1574.8000, -55.198
1574.8200, -55.216
1574.8400, -55.218
1574.8600, -55.245
1574.8800, -55.274
1574.9000, -55.273
1574.9200, -55.283
1574.9400, -55.309
1574.9600, -55.314
1574.9800, -55.326
1575.0000, -55.333
1575.0200, -55.350
1575.0400, -55.367
1575.0600, -55.374
1575.0800, -55.406
1575.1000, -55.398
1575.1200, -55.417
1575.1400, -55.430
1575.1600, -55.448
1575.1800, -55.462
1575.2000, -55.475
1575.2200, -55.491
1575.2400, -55.517
1575.2600, -55.509
1575.2800, -55.541
1575.3000, -55.545
1575.3200, -55.563
1575.3400, -55.565
1575.3600, -55.592
1575.3800, -55.595
1575.4000, -55.608
1575.4200, -55.626
1575.4400, -55.638
1575.4600, -55.658
1575.4800, -55.677
1575.5000, -55.677
1575.5200, -55.698
1575.5400, -55.705
1575.5600, -55.727
1575.5800, -55.743
1575.6000, -55.746
1575.6200, -55.764
1575.6400, -55.772
1575.6600, -55.789
1575.6800, -55.810
1575.7000, -55.822
1575.7200, -55.825
1575.7400, -55.856
1575.7600, -55.861
1575.7800, -55.876
1575.8000, -55.877
1575.8200, -55.890
1575.8400, -55.909
1575.8600, -55.913
1575.8800, -55.939
1575.9000, -55.949
1575.9200, -55.963
1575.9400, -55.985
1575.9600, -55.978
1575.9800, -55.996
1576.0000, -56.015
1576.0200, -56.019
1576.0400, -56.045
1576.0600, -56.040
1576.0800, -56.061
1576.1000, -56.076
1576.1200, -56.094
1576.1400, -56.106
1576.1600, -56.107
1576.1800, -56.120
1576.2000, -56.140
1576.2200, -56.142
1576.2400, -56.164
1576.2600, -56.173
1576.2800, -56.193
1576.3000, -56.207
1576.3200, -56.204
1576.3400, -56.225
1576.3600, -56.253
1576.3800, -56.252
1576.4000, -56.253
1576.4200, -56.276
1576.4400, -56.285
1576.4600, -56.311
1576.4800, -56.294
1576.5000, -56.334
1576.5200, -56.328
1576.5400, -56.353
1576.5600, -56.362
1576.5800, -56.361
1576.6000, -56.383
1576.6200, -56.380
1576.6400, -56.401
1576.6600, -56.413
1576.6800, -56.437
1576.7000, -56.423
1576.7200, -56.449
1576.7400, -56.463
1576.7600, -56.487
1576.7800, -56.482
1576.8000, -56.506
1576.8200, -56.510
1576.8400, -56.528
1576.8600, -56.534
1576.8800, -56.556
1576.9000, -56.547
1576.9200, -56.572
1576.9400, -56.572
1576.9600, -56.591
1576.9800, -56.614
1577.0000, -56.620
1577.0200, -56.615
1577.0400, -56.637
1577.0600, -56.649
1577.0800, -56.668
1577.1000, -56.664
1577.1200, -56.686
1577.1400, -56.687
1577.1600, -56.709
1577.1800, -56.722
1577.2000, -56.729
1577.2200, -56.739
1577.2400, -56.742
1577.2600, -56.771
1577.2800, -56.772
1577.3000, -56.786
1577.3200, -56.802
1577.3400, -56.808
1577.3600, -56.815
1577.3800, -56.842
1577.4000, -56.843
1577.4200, -56.864
1577.4400, -56.878
1577.4600, -56.876
1577.4800, -56.894
1577.5000, -56.900
1577.5200, -56.924
1577.5400, -56.927
1577.5600, -56.941
1577.5800, -56.939
1577.6000, -56.954
1577.6200, -56.979
1577.6400, -56.983
1577.6600, -56.984
1577.6800, -57.001
1577.7000, -57.005
1577.7200, -57.021
1577.7400, -57.036
1577.7600, -57.040
1577.7800, -57.047
1577.8000, -57.059
1577.8200, -57.077
1577.8400, -57.087
1577.8600, -57.098
1577.8800, -57.113
1577.9000, -57.120
1577.9200, -57.128
1577.9400, -57.136
1577.9600, -57.144
1577.9800, -57.163
1578.0000, -57.170
1578.0200, -57.173
1578.0400, -57.193
1578.0600, -57.210
1578.0800, -57.208
1578.1000, -57.216
1578.1200, -57.231
1578.1400, -57.246
1578.1600, -57.272
1578.1800, -57.266
1578.2000, -57.273
1578.2200, -57.290
1578.2400, -57.292
1578.2600, -57.312
1578.2800, -57.330
1578.3000, -57.327
1578.3200, -57.336
1578.3400, -57.340
1578.3600, -57.357
1578.3800, -57.366
1578.4000, -57.375
1578.4200, -57.387
1578.4400, -57.405
1578.4600, -57.418
1578.4800, -57.396
1578.5000, -57.429
1578.5200, -57.439
1578.5400, -57.454
1578.5600, -57.454
1578.5800, -57.474
1578.6000, -57.473
1578.6200, -57.485
1578.6400, -57.490
1578.6600, -57.504
1578.6800, -57.528
1578.7000, -57.531
1578.7200, -57.536
1578.7400, -57.545
1578.7600, -57.557
1578.7800, -57.571
1578.8000, -57.575
1578.8200, -57.592
1578.8400, -57.589
1578.8600, -57.611
1578.8800, -57.616
1578.9000, -57.641
1578.9200, -57.643
1578.9400, -57.650
1578.9600, -57.662
1578.9800, -57.682
1579.0000, -57.688
1579.0200, -57.686
1579.0400, -57.707
1579.0600, -57.707
1579.0800, -57.723
1579.1000, -57.738
1579.1200, -57.730
1579.1400, -57.746
1579.1600, -57.761
1579.1800, -57.760
1579.2000, -57.767
1579.2200, -57.781
1579.2400, -57.786
1579.2600, -57.802
1579.2800, -57.808
1579.3000, -57.811
1579.3200, -57.826
1579.3400, -57.844
1579.3600, -57.861
1579.3800, -57.865
1579.4000, -57.861
1579.4200, -57.891
1579.4400, -57.882
1579.4600, -57.907
1579.4800, -57.905
1579.5000, -57.911
1579.5200, -57.912
1579.5400, -57.930
1579.5600, -57.946
1579.5800, -57.958
1579.6000, -57.952
1579.6200, -57.970
1579.6400, -57.979
1579.6600, -57.998
1579.6800, -58.006
1579.7000, -57.998
1579.7200, -58.009
1579.7400, -58.051
1579.7600, -58.019
1579.7800, -58.054
1579.8000, -58.049
1579.8200, -58.069
1579.8400, -58.073
1579.8600, -58.086
1579.8800, -58.092
1579.9000, -58.097
1579.9200, -58.104
1579.9400, -58.123
1579.9600, -58.112
1579.9800, -58.137
1580.0000, -58.154
1580.0200, -58.141
1580.0400, -58.152
1580.0600, -58.168
1580.0800, -58.192
1580.1000, -58.190
1580.1200, -58.193
1580.1400, -58.198
1580.1600, -58.207
1580.1800, -58.219
1580.2000, -58.212
1580.2200, -58.237
1580.2400, -58.237
1580.2600, -58.246
1580.2800, -58.276
1580.3000, -58.263
1580.3200, -58.274
1580.3400, -58.289
1580.3600, -58.291
1580.3800, -58.301
1580.4000, -58.306
1580.4200, -58.317
1580.4400, -58.324
1580.4600, -58.350
1580.4800, -58.330
1580.5000, -58.346
1580.5200, -58.363
1580.5400, -58.360
1580.5600, -58.382
1580.5800, -58.373
1580.6000, -58.395
1580.6200, -58.414
1580.6400, -58.418
1580.6600, -58.430
1580.6800, -58.435
1580.7000, -58.428
1580.7200, -58.454
1580.7400, -58.453
1580.7600, -58.464
1580.7800, -58.470
1580.8000, -58.476
1580.8200, -58.483
1580.8400, -58.488
1580.8600, -58.510
1580.8800, -58.512
1580.9000, -58.510
1580.9200, -58.532
1580.9400, -58.542
1580.9600, -58.537
1580.9800, -58.550
1581.0000, -58.553
1581.0200, -58.550
1581.0400, -58.575
1581.0600, -58.584
1581.0800, -58.593
1581.1000, -58.583
1581.1200, -58.608
1581.1400, -58.605
1581.1600, -58.637
1581.1800, -58.622
1581.2000, -58.619
1581.2200, -58.645
1581.2400, -58.658
1581.2600, -58.662
1581.2800, -58.661
1581.3000, -58.680
1581.3200, -58.666
1581.3400, -58.689
1581.3600, -58.690
1581.3800, -58.702
1581.4000, -58.714
1581.4200, -58.719
1581.4400, -58.715
1581.4600, -58.751
1581.4800, -58.721
1581.5000, -58.747
1581.5200, -58.754
1581.5400, -58.747
1581.5600, -58.775
1581.5800, -58.783
1581.6000, -58.777
1581.6200, -58.825
1581.6400, -58.799
1581.6600, -58.817
1581.6800, -58.806
1581.7000, -58.838
1581.7200, -58.805
1581.7400, -58.845
1581.7600, -58.853
1581.7800, -58.833
1581.8000, -58.858
1581.8200, -58.865
1581.8400, -58.888
1581.8600, -58.883
1581.8800, -58.893
1581.9000, -58.882
1581.9200, -58.923
1581.9400, -58.903
1581.9600, -58.912
1581.9800, -58.912
1582.0000, -58.929
1582.0200, -58.933
1582.0400, -58.933
1582.0600, -58.987
1582.0800, -58.938
1582.1000, -58.988
1582.1200, -58.952
1582.1400, -58.986
1582.1600, -59.019
1582.1800, -59.001
1582.2000, -58.991
1582.2200, -59.016
1582.2400, -59.017
1582.2600, -59.015
1582.2800, -59.038
1582.3000, -59.029
1582.3200, -59.063
1582.3400, -59.042
1582.3600, -59.062
1582.3800, -59.054
1582.4000, -59.067
1582.4200, -59.069
1582.4400, -59.097
1582.4600, -59.082
1582.4800, -59.102
1582.5000, -59.115
1582.5200, -59.124
1582.5400, -59.128
1582.5600, -59.129
1582.5800, -59.137
1582.6000, -59.162
1582.6200, -59.155
1582.6400, -59.148
1582.6600, -59.145
1582.6800, -59.167
1582.7000, -59.166
1582.7200, -59.171
1582.7400, -59.201
1582.7600, -59.197
1582.7800, -59.208
1582.8000, -59.222
1582.8200, -59.225
1582.8400, -59.222
1582.8600, -59.209
1582.8800, -59.233
1582.9000, -59.259
1582.9200, -59.253
1582.9400, -59.253
1582.9600, -59.287
1582.9800, -59.288
1583.0000, -59.284
1583.0200, -59.274
1583.0400, -59.316
1583.0600, -59.284
1583.0800, -59.317
1583.1000, -59.320
1583.1200, -59.319
1583.1400, -59.321
1583.1600, -59.334
1583.1800, -59.356
1583.2000, -59.353
1583.2200, -59.336
1583.2400, -59.370
1583.2600, -59.358
1583.2800, -59.374
1583.3000, -59.376
1583.3200, -59.395
1583.3400, -59.399
1583.3600, -59.401
1583.3800, -59.417
1583.4000, -59.421
1583.4200, -59.418
1583.4400, -59.431
1583.4600, -59.428
1583.4800, -59.447
1583.5000, -59.450
1583.5200, -59.458
1583.5400, -59.464
1583.5600, -59.475
1583.5800, -59.490
1583.6000, -59.458
1583.6200, -59.486
1583.6400, -59.501
1583.6600, -59.500
1583.6800, -59.504
1583.7000, -59.493
1583.7200, -59.509
1583.7400, -59.528
1583.7600, -59.529
1583.7800, -59.524
1583.8000, -59.529
1583.8200, -59.560
1583.8400, -59.555
1583.8600, -59.546
1583.8800, -59.576
1583.9000, -59.572
1583.9200, -59.581
1583.9400, -59.597
1583.9600, -59.618
1583.9800, -59.611
1584.0000, -59.579
1584.0200, -59.613
1584.0400, -59.631
1584.0600, -59.617
1584.0800, -59.620
1584.1000, -59.623
1584.1200, -59.660
1584.1400, -59.668
1584.1600, -59.644
1584.1800, -59.655
1584.2000, -59.662
1584.2200, -59.659
1584.2400, -59.678
1584.2600, -59.668
1584.2800, -59.690
1584.3000, -59.718
1584.3200, -59.687
1584.3400, -59.692
1584.3600, -59.717
1584.3800, -59.705
1584.4000, -59.719
1584.4200, -59.721
1584.4400, -59.741
1584.4600, -59.741
1584.4800, -59.728
1584.5000, -59.771
1584.5200, -59.745
1584.5400, -59.761
1584.5600, -59.772
1584.5800, -59.780
1584.6000, -59.770
1584.6200, -59.762
1584.6400, -59.794
1584.6600, -59.781
1584.6800, -59.786
1584.7000, -59.812
1584.7200, -59.807
1584.7400, -59.817
1584.7600, -59.824
1584.7800, -59.835
1584.8000, -59.819
1584.8200, -59.850
1584.8400, -59.859
1584.8600, -59.829
1584.8800, -59.872
1584.9000, -59.841
1584.9200, -59.860
1584.9400, -59.876
1584.9600, -59.904
1584.9800, -59.892
1585.0000, -59.891
1585.0200, -59.886
1585.0400, -59.911
1585.0600, -59.903
1585.0800, -59.890
1585.1000, -59.932
1585.1200, -59.913
1585.1400, -59.935
1585.1600, -59.938
1585.1800, -59.928
1585.2000, -59.937
1585.2200, -59.967
1585.2400, -59.958
1585.2600, -59.950
1585.2800, -59.965
1585.3000, -59.969
1585.3200, -59.965
1585.3400, -59.982
1585.3600, -59.979
1585.3800, -59.983
1585.4000, -59.973
1585.4200, -60.003
1585.4400, -59.986
1585.4600, -60.004
1585.4800, -60.009
1585.5000, -60.017
1585.5200, -60.013
1585.5400, -60.044
1585.5600, -60.043
1585.5800, -60.043
1585.6000, -60.054
1585.6200, -60.063
1585.6400, -60.047
1585.6600, -60.076
1585.6800, -60.051
1585.7000, -60.083
1585.7200, -60.078
1585.7400, -60.091
1585.7600, -60.101
1585.7800, -60.086
1585.8000, -60.116
1585.8200, -60.103
1585.8400, -60.131
1585.8600, -60.118
1585.8800, -60.123
1585.9000, -60.125
1585.9200, -60.107
1585.9400, -60.124
1585.9600, -60.140
1585.9800, -60.159
1586.0000, -60.166
1586.0200, -60.160
1586.0400, -60.157
1586.0600, -60.175
1586.0800, -60.173
1586.1000, -60.179
1586.1200, -60.179
1586.1400, -60.189
1586.1600, -60.183
1586.1800, -60.186
1586.2000, -60.191
1586.2200, -60.218
1586.2400, -60.221
1586.2600, -60.214
1586.2800, -60.219
1586.3000, -60.205
1586.3200, -60.239
1586.3400, -60.233
1586.3600, -60.247
1586.3800, -60.254
1586.4000, -60.263
1586.4200, -60.254
1586.4400, -60.268
1586.4600, -60.280
1586.4800, -60.257
1586.5000, -60.281
1586.5200, -60.283
1586.5400, -60.289
1586.5600, -60.315
1586.5800, -60.291
1586.6000, -60.308
1586.6200, -60.292
1586.6400, -60.313
1586.6600, -60.323
1586.6800, -60.336
1586.7000, -60.363
1586.7200, -60.351
1586.7400, -60.314
1586.7600, -60.354
1586.7800, -60.359
1586.8000, -60.370
1586.8200, -60.360
1586.8400, -60.382
1586.8600, -60.363
1586.8800, -60.389
1586.9000, -60.400
1586.9200, -60.387
1586.9400, -60.405
1586.9600, -60.393
1586.9800, -60.408
1587.0000, -60.422
1587.0200, -60.393
1587.0400, -60.430
1587.0600, -60.427
1587.0800, -60.416
1587.1000, -60.440
1587.1200, -60.454
1587.1400, -60.461
1587.1600, -60.457
1587.1800, -60.448
1587.2000, -60.474
1587.2200, -60.452
1587.2400, -60.473
1587.2600, -60.472
1587.2800, -60.480
1587.3000, -60.472
1587.3200, -60.499
1587.3400, -60.473
1587.3600, -60.491
1587.3800, -60.513
1587.4000, -60.488
1587.4200, -60.470
1587.4400, -60.551
1587.4600, -60.513
1587.4800, -60.520
1587.5000, -60.570
1587.5200, -60.529
1587.5400, -60.521
1587.5600, -60.532
1587.5800, -60.553
1587.6000, -60.572
1587.6200, -60.554
1587.6400, -60.555
1587.6600, -60.592
1587.6800, -60.576
1587.7000, -60.576
1587.7200, -60.594
1587.7400, -60.585
1587.7600, -60.578
1587.7800, -60.616
1587.8000, -60.606
1587.8200, -60.616
1587.8400, -60.586
1587.8600, -60.624
1587.8800, -60.624
1587.9000, -60.631
1587.9200, -60.644
1587.9400, -60.649
1587.9600, -60.659
1587.9800, -60.632
1588.0000, -60.675
1588.0200, -60.670
1588.0400, -60.683
1588.0600, -60.671
1588.0800, -60.692
1588.1000, -60.683
1588.1200, -60.671
1588.1400, -60.690
1588.1600, -60.684
1588.1800, -60.719
1588.2000, -60.719
1588.2200, -60.671
1588.2400, -60.686
1588.2600, -60.729
1588.2800, -60.765
1588.3000, -60.697
1588.3200, -60.718
1588.3400, -60.741
1588.3600, -60.758
1588.3800, -60.741
1588.4000, -60.769
1588.4200, -60.736
1588.4400, -60.754
1588.4600, -60.738
1588.4800, -60.778
1588.5000, -60.802
1588.5200, -60.791
1588.5400, -60.757
1588.5600, -60.785
1588.5800, -60.755
1588.6000, -60.773
1588.6200, -60.826
1588.6400, -60.794
1588.6600, -60.818
1588.6800, -60.798
1588.7000, -60.801
1588.7200, -60.794
1588.7400, -60.831
1588.7600, -60.841
1588.7800, -60.843
1588.8000, -60.828
1588.8200, -60.792
1588.8400, -60.857
1588.8600, -60.826
1588.8800, -60.866
1588.9000, -60.841
1588.9200, -60.868
1588.9400, -60.887
1588.9600, -60.869
1588.9800, -60.862
1589.0000, -60.897
1589.0200, -60.910
1589.0400, -60.878
1589.0600, -60.883
1589.0800, -60.926
1589.1000, -60.868
1589.1200, -60.927
1589.1400, -60.920
1589.1600, -60.927
1589.1800, -60.926
1589.2000, -60.911
1589.2200, -60.956
1589.2400, -60.949
1589.2600, -60.952
1589.2800, -60.952
1589.3000, -60.949
1589.3200, -60.949
1589.3400, -60.933
1589.3600, -61.004
1589.3800, -60.952
1589.4000, -60.934
1589.4200, -60.990
1589.4400, -60.973
1589.4600, -60.991
1589.4800, -60.979
1589.5000, -61.003
1589.5200, -61.001
1589.5400, -61.003
1589.5600, -61.040
1589.5800, -60.972
1589.6000, -60.997
1589.6200, -61.032
1589.6400, -61.012
1589.6600, -61.013
1589.6800, -61.024
1589.7000, -61.037
1589.7200, -61.036
1589.7400, -61.034
1589.7600, -61.049
1589.7800, -61.058
1589.8000, -61.074
1589.8200, -61.075
1589.8400, -61.091
1589.8600, -61.023
1589.8800, -61.043
1589.9000, -61.099
1589.9200, -61.096
1589.9400, -61.067
1589.9600, -61.114
1589.9800, -61.090
1590.0000, -61.115
1590.0200, -61.120
1590.0400, -61.104
1590.0600, -61.139
1590.0800, -61.092
1590.1000, -61.151
1590.1200, -61.103
1590.1400, -61.143
1590.1600, -61.110
1590.1800, -61.146
1590.2000, -61.190
1590.2200, -61.176
1590.2400, -61.136
1590.2600, -61.114
1590.2800, -61.148
1590.3000, -61.148
1590.3200, -61.165
1590.3400, -61.185
1590.3600, -61.173
1590.3800, -61.181
1590.4000, -61.180
1590.4200, -61.213
1590.4400, -61.201
1590.4600, -61.191
1590.4800, -61.210
1590.5000, -61.210
1590.5200, -61.206
1590.5400, -61.221
1590.5600, -61.235
1590.5800, -61.201
1590.6000, -61.253
1590.6200, -61.266
1590.6400, -61.216
1590.6600, -61.269
1590.6800, -61.247
1590.7000, -61.270
1590.7200, -61.271
1590.7400, -61.258
1590.7600, -61.263
1590.7800, -61.273
1590.8000, -61.281
1590.8200, -61.267
1590.8400, -61.285
1590.8600, -61.295
1590.8800, -61.284
1590.9000, -61.317
1590.9200, -61.303
1590.9400, -61.308
1590.9600, -61.317
1590.9800, -61.341
1591.0000, -61.305
1591.0200, -61.331
1591.0400, -61.320
1591.0600, -61.351
1591.0800, -61.338
1591.1000, -61.339
1591.1200, -61.356
1591.1400, -61.363
1591.1600, -61.345
1591.1800, -61.380
1591.2000, -61.380
1591.2200, -61.396
1591.2400, -61.374
1591.2600, -61.377
1591.2800, -61.374
1591.3000, -61.416
1591.3200, -61.380
1591.3400, -61.378
1591.3600, -61.409
1591.3800, -61.431
1591.4000, -61.384
1591.4200, -61.399
1591.4400, -61.438
1591.4600, -61.432
1591.4800, -61.433
1591.5000, -61.446
1591.5200, -61.446
1591.5400, -61.418
1591.5600, -61.447
1591.5800, -61.452
1591.6000, -61.450
1591.6200, -61.510
1591.6400, -61.446
1591.6600, -61.483
1591.6800, -61.473
1591.7000, -61.481
1591.7200, -61.503
1591.7400, -61.459
1591.7600, -61.511
1591.7800, -61.489
1591.8000, -61.488
1591.8200, -61.513
1591.8400, -61.503
1591.8600, -61.516
1591.8800, -61.518
1591.9000, -61.539
1591.9200, -61.538
1591.9400, -61.503
1591.9600, -61.534
1591.9800, -61.542
1592.0000, -61.559
1592.0200, -61.547
1592.0400, -61.550
1592.0600, -61.574
1592.0800, -61.564
1592.1000, -61.595
1592.1200, -61.552
1592.1400, -61.577
1592.1600, -61.579
1592.1800, -61.574
1592.2000, -61.593
1592.2200, -61.600
1592.2400, -61.586
1592.2600, -61.624
1592.2800, -61.611
1592.3000, -61.602
1592.3200, -61.614
1592.3400, -61.623
1592.3600, -61.637
1592.3800, -61.600
1592.4000, -61.684
1592.4200, -61.638
1592.4400, -61.576
1592.4600, -61.651
1592.4800, -61.622
1592.5000, -61.653
1592.5200, -61.674
1592.5400, -61.654
1592.5600, -61.653
1592.5800, -61.680
1592.6000, -61.656
1592.6200, -61.680
1592.6400, -61.654
1592.6600, -61.636
1592.6800, -61.726
1592.7000, -61.679
1592.7200, -61.698
1592.7400, -61.694
1592.7600, -61.727
1592.7800, -61.707
1592.8000, -61.705
1592.8200, -61.725
1592.8400, -61.693
1592.8600, -61.771
1592.8800, -61.717
1592.9000, -61.750
1592.9200, -61.738
1592.9400, -61.716
1592.9600, -61.729
1592.9800, -61.734
1593.0000, -61.771
1593.0200, -61.747
1593.0400, -61.763
1593.0600, -61.763
1593.0800, -61.746
1593.1000, -61.788
1593.1200, -61.781
1593.1400, -61.794
1593.1600, -61.791
1593.1800, -61.790
1593.2000, -61.785
1593.2200, -61.809
1593.2400, -61.775
1593.2600, -61.831
1593.2800, -61.804
1593.3000, -61.806
1593.3200, -61.802
1593.3400, -61.834
1593.3600, -61.817
1593.3800, -61.855
1593.4000, -61.829
1593.4200, -61.873
1593.4400, -61.816
1593.4600, -61.851
1593.4800, -61.835
1593.5000, -61.836
1593.5200, -61.832
1593.5400, -61.877
1593.5600, -61.865
1593.5800, -61.918
1593.6000, -61.883
1593.6200, -61.893
1593.6400, -61.901
1593.6600, -61.863
1593.6800, -61.924
1593.7000, -61.889
1593.7200, -61.931
1593.7400, -61.876
1593.7600, -61.896
1593.7800, -61.926
1593.8000, -61.951
1593.8200, -61.919
1593.8400, -61.881
1593.8600, -61.916
1593.8800, -61.947
1593.9000, -61.928
1593.9200, -61.931
1593.9400, -61.938
1593.9600, -61.979
1593.9800, -61.942
1594.0000, -61.960
1594.0200, -61.964
1594.0400, -61.985
1594.0600, -61.931
1594.0800, -61.953
1594.1000, -62.004
1594.1200, -61.981
1594.1400, -61.965
1594.1600, -62.031
1594.1800, -62.014
1594.2000, -62.003
1594.2200, -61.991
1594.2400, -62.008
1594.2600, -62.026
1594.2800, -62.025
1594.3000, -62.024
1594.3200, -62.019
1594.3400, -62.049
1594.3600, -62.054
1594.3800, -62.037
1594.4000, -62.082
1594.4200, -62.041
1594.4400, -62.025
1594.4600, -62.048
1594.4800, -62.042
1594.5000, -62.051
1594.5200, -62.059
1594.5400, -62.041
1594.5600, -62.077
1594.5800, -62.090
1594.6000, -62.130
1594.6200, -62.054
1594.6400, -62.099
1594.6600, -62.090
1594.6800, -62.091
1594.7000, -62.109
1594.7200, -62.098
1594.7400, -62.118
1594.7600, -62.089
1594.7800, -62.130
1594.8000, -62.138
1594.8200, -62.154
1594.8400, -62.161
1594.8600, -62.131
1594.8800, -62.149
1594.9000, -62.095
1594.9200, -62.130
1594.9400, -62.158
1594.9600, -62.132
1594.9800, -62.215
1595.0000, -62.145
1595.0200, -62.183
1595.0400, -62.155
1595.0600, -62.159
1595.0800, -62.179
1595.1000, -62.190
1595.1200, -62.229
1595.1400, -62.217
1595.1600, -62.187
1595.1800, -62.247
1595.2000, -62.202
1595.2200, -62.205
1595.2400, -62.219
1595.2600, -62.230
1595.2800, -62.221
1595.3000, -62.231
1595.3200, -62.238
1595.3400, -62.250
1595.3600, -62.229
1595.3800, -62.207
1595.4000, -62.255
1595.4200, -62.253
1595.4400, -62.273
1595.4600, -62.263
1595.4800, -62.282
1595.5000, -62.276
1595.5200, -62.285
1595.5400, -62.284
1595.5600, -62.257
1595.5800, -62.299
1595.6000, -62.292
1595.6200, -62.273
1595.6400, -62.321
1595.6600, -62.320
1595.6800, -62.323
1595.7000, -62.323
1595.7200, -62.311
1595.7400, -62.344
1595.7600, -62.302
1595.7800, -62.333
1595.8000, -62.282
1595.8200, -62.322
1595.8400, -62.379
1595.8600, -62.363
1595.8800, -62.393
1595.9000, -62.335
1595.9200, -62.367
1595.9400, -62.375
1595.9600, -62.354
1595.9800, -62.385
1596.0000, -62.366
1596.0200, -62.389
1596.0400, -62.391
1596.0600, -62.398
1596.0800, -62.392
1596.1000, -62.417
1596.1200, -62.397
1596.1400, -62.373
1596.1600, -62.416
1596.1800, -62.388
1596.2000, -62.450
1596.2200, -62.486
1596.2400, -62.376
1596.2600, -62.450
1596.2800, -62.406
1596.3000, -62.464
1596.3200, -62.442
1596.3400, -62.468
1596.3600, -62.531
1596.3800, -62.414
1596.4000, -62.413
1596.4200, -62.497
1596.4400, -62.470
1596.4600, -62.466
1596.4800, -62.464
1596.5000, -62.487
1596.5200, -62.450
1596.5400, -62.501
1596.5600, -62.470
1596.5800, -62.512
1596.6000, -62.544
1596.6200, -62.467
1596.6400, -62.543
1596.6600, -62.505
1596.6800, -62.471
1596.7000, -62.541
1596.7200, -62.526
1596.7400, -62.528
1596.7600, -62.493
1596.7800, -62.530
1596.8000, -62.559
1596.8200, -62.559
1596.8400, -62.528
1596.8600, -62.581
1596.8800, -62.547
1596.9000, -62.566
1596.9200, -62.556
1596.9400, -62.556
1596.9600, -62.609
1596.9800, -62.584
1597.0000, -62.547
1597.0200, -62.590
1597.0400, -62.594
1597.0600, -62.592
1597.0800, -62.586
1597.1000, -62.618
1597.1200, -62.563
1597.1400, -62.607
1597.1600, -62.633
1597.1800, -62.632
1597.2000, -62.642
1597.2200, -62.591
1597.2400, -62.648
1597.2600, -62.643
1597.2800, -62.644
1597.3000, -62.640
1597.3200, -62.678
1597.3400, -62.685
1597.3600, -62.660
1597.3800, -62.600
1597.4000, -62.661
1597.4200, -62.730
1597.4400, -62.640
1597.4600, -62.661
1597.4800, -62.633
1597.5000, -62.689
1597.5200, -62.659
1597.5400, -62.724
1597.5600, -62.662
1597.5800, -62.697
1597.6000, -62.728
1597.6200, -62.662
1597.6400, -62.710
1597.6600, -62.715
1597.6800, -62.707
1597.7000, -62.752
1597.7200, -62.693
1597.7400, -62.739
1597.7600, -62.671
1597.7800, -62.774
1597.8000, -62.713
1597.8200, -62.769
1597.8400, -62.761
1597.8600, -62.718
1597.8800, -62.742
1597.9000, -62.768
1597.9200, -62.721
1597.9400, -62.789
1597.9600, -62.764
1597.9800, -62.755
1598.0000, -62.812
1598.0200, -62.783
1598.0400, -62.786
1598.0600, -62.785
1598.0800, -62.794
1598.1000, -62.780
1598.1200, -62.775
1598.1400, -62.806
1598.1600, -62.786
1598.1800, -62.862
1598.2000, -62.810
1598.2200, -62.821
1598.2400, -62.827
1598.2600, -62.824
1598.2800, -62.772
1598.3000, -62.794
1598.3200, -62.859
1598.3400, -62.886
1598.3600, -62.889
1598.3800, -62.851
1598.4000, -62.885
1598.4200, -62.857
1598.4400, -62.885
1598.4600, -62.887
1598.4800, -62.869
1598.5000, -62.909
1598.5200, -62.881
1598.5400, -62.946
1598.5600, -62.840
1598.5800, -62.912
1598.6000, -62.885
1598.6200, -62.934
1598.6400, -62.872
1598.6600, -62.934
1598.6800, -62.926
1598.7000, -62.917
1598.7200, -62.921
1598.7400, -62.944
1598.7600, -62.895
1598.7800, -62.926
1598.8000, -62.968
1598.8200, -62.884
1598.8400, -62.998
1598.8600, -62.948
1598.8800, -62.950
1598.9000, -62.986
1598.9200, -62.939
1598.9400, -63.018
1598.9600, -62.962
1598.9800, -62.974
1599.0000, -62.973
1599.0200, -62.989
1599.0400, -62.971
1599.0600, -63.004
1599.0800, -63.035
1599.1000, -63.028
1599.1200, -63.000
1599.1400, -63.054
1599.1600, -63.013
1599.1800, -62.984
1599.2000, -63.008
1599.2200, -63.060
1599.2400, -63.006
1599.2600, -63.087
1599.2800, -63.044
1599.3000, -63.025
1599.3200, -63.092
1599.3400, -63.060
1599.3600, -63.039
1599.3800, -63.102
1599.4000, -63.030
1599.4200, -63.047
1599.4400, -63.109
1599.4600, -63.067
1599.4800, -63.083
1599.5000, -63.073
1599.5200, -63.097
1599.5400, -63.098
1599.5600, -63.081
1599.5800, -63.104
1599.6000, -63.094
1599.6200, -63.112
1599.6400, -63.098
1599.6600, -63.125
1599.6800, -63.184
1599.7000, -63.112
1599.7200, -63.122
1599.7400, -63.157
1599.7600, -63.155
1599.7800, -63.127
1599.8000, -63.154
1599.8200, -63.196
1599.8400, -63.171
1599.8600, -63.159
1599.8800, -63.106
1599.9000, -63.162
1599.9200, -63.192
1599.9400, -63.157
1599.9600, -63.175
1599.9800, -63.135
1600.0000, -63.176
