70BCSV 	
// AQ6370B OPTICAL SPECTRUM ANALYZER //                 
25
"CTRWL",1550.000000
"SPAN", 100.000000
"START WL",1500.000000
"STOP WL",1600.000000
"WLFREQ", 0
"REFL",-28.8
"LSCL", 5.0
"RESLN",0.100
"AVG",   1
"SMPLAUTO",      0
"SMPL",       5001
"SMPLINTVL",0.0200
"HIGH1"
"MEAS"
"LSUNT",0
"NMSKH","OFF"
"RESCOR",0
"RESPARM", 9050
"FREQPARM", 9050






"[TRACE DATA]"
1500.0000, -61.653
1500.0200, -61.628
1500.0400, -61.621
1500.0600, -61.667
1500.0800, -61.609
1500.1000, -61.580
1500.1200, -61.612
1500.1400, -61.608
1500.1600, -61.610
1500.1800, -61.612
1500.2000, -61.561
1500.2200, -61.595
1500.2400, -61.549
1500.2600, -61.588
1500.2800, -61.563
1500.3000, -61.544
1500.3200, -61.558
1500.3400, -61.533
1500.3600, -61.526
1500.3800, -61.533
1500.4000, -61.541
1500.4200, -61.554
1500.4400, -61.511
1500.4600, -61.532
1500.4800, -61.521
1500.5000, -61.520
1500.5200, -61.452
1500.5400, -61.474
1500.5600, -61.513
1500.5800, -61.511
1500.6000, -61.468
1500.6200, -61.472
1500.6400, -61.448
1500.6600, -61.469
1500.6800, -61.472
1500.7000, -61.458
1500.7200, -61.444
1500.7400, -61.438
1500.7600, -61.449
1500.7800, -61.433
1500.8000, -61.425
1500.8200, -61.473
1500.8400, -61.379
1500.8600, -61.470
1500.8800, -61.426
1500.9000, -61.412
1500.9200, -61.401
1500.9400, -61.389
1500.9600, -61.410
1500.9800, -61.392
1501.0000, -61.382
1501.0200, -61.388
1501.0400, -61.344
1501.0600, -61.341
1501.0800, -61.354
1501.1000, -61.328
1501.1200, -61.336
1501.1400, -61.333
1501.1600, -61.331
1501.1800, -61.298
1501.2000, -61.309
1501.2200, -61.294
1501.2400, -61.310
1501.2600, -61.276
1501.2800, -61.274
1501.3000, -61.303
1501.3200, -61.275
1501.3400, -61.260
1501.3600, -61.267
1501.3800, -61.274
1501.4000, -61.239
1501.4200, -61.246
1501.4400, -61.236
1501.4600, -61.221
1501.4800, -61.205
1501.5000, -61.228
1501.5200, -61.195
1501.5400, -61.208
1501.5600, -61.213
1501.5800, -61.209
1501.6000, -61.186
1501.6200, -61.189
1501.6400, -61.198
1501.6600, -61.194
1501.6800, -61.159
1501.7000, -61.176
1501.7200, -61.170
1501.7400, -61.158
1501.7600, -61.145
1501.7800, -61.146
1501.8000, -61.176
1501.8200, -61.150
1501.8400, -61.131
1501.8600, -61.174
1501.8800, -61.140
1501.9000, -61.131
1501.9200, -61.128
1501.9400, -61.114
1501.9600, -61.087
1501.9800, -61.094
1502.0000, -61.063
1502.0200, -61.057
1502.0400, -61.067
1502.0600, -61.066
1502.0800, -61.057
1502.1000, -61.042
1502.1200, -61.028
1502.1400, -61.039
1502.1600, -61.033
1502.1800, -61.023
1502.2000, -61.011
1502.2200, -61.002
1502.2400, -60.999
1502.2600, -61.010
1502.2800, -61.005
1502.3000, -60.969
1502.3200, -60.964
1502.3400, -60.969
1502.3600, -60.956
1502.3800, -60.966
1502.4000, -60.951
1502.4200, -60.936
1502.4400, -60.933
1502.4600, -60.929
1502.4800, -60.891
1502.5000, -60.953
1502.5200, -60.914
1502.5400, -60.907
1502.5600, -60.910
1502.5800, -60.895
1502.6000, -60.874
1502.6200, -60.903
1502.6400, -60.875
1502.6600, -60.867
1502.6800, -60.868
1502.7000, -60.833
1502.7200, -60.853
1502.7400, -60.849
1502.7600, -60.855
1502.7800, -60.829
1502.8000, -60.853
1502.8200, -60.834
1502.8400, -60.817
1502.8600, -60.791
1502.8800, -60.789
1502.9000, -60.807
1502.9200, -60.775
1502.9400, -60.757
1502.9600, -60.764
1502.9800, -60.741
1503.0000, -60.738
1503.0200, -60.768
1503.0400, -60.748
1503.0600, -60.713
1503.0800, -60.702
1503.1000, -60.744
1503.1200, -60.686
1503.1400, -60.700
1503.1600, -60.706
1503.1800, -60.692
1503.2000, -60.693
1503.2200, -60.655
1503.2400, -60.658
1503.2600, -60.656
1503.2800, -60.646
1503.3000, -60.663
1503.3200, -60.647
1503.3400, -60.639
1503.3600, -60.621
1503.3800, -60.612
1503.4000, -60.613
1503.4200, -60.595
1503.4400, -60.612
1503.4600, -60.586
1503.4800, -60.617
1503.5000, -60.594
1503.5200, -60.569
1503.5400, -60.581
1503.5600, -60.567
1503.5800, -60.567
1503.6000, -60.584
1503.6200, -60.528
1503.6400, -60.549
1503.6600, -60.554
1503.6800, -60.493
1503.7000, -60.525
1503.7200, -60.536
1503.7400, -60.511
1503.7600, -60.513
1503.7800, -60.518
1503.8000, -60.462
1503.8200, -60.504
1503.8400, -60.477
1503.8600, -60.490
1503.8800, -60.464
1503.9000, -60.454
1503.9200, -60.418
1503.9400, -60.447
1503.9600, -60.434
1503.9800, -60.408
1504.0000, -60.415
1504.0200, -60.440
1504.0400, -60.403
1504.0600, -60.437
1504.0800, -60.375
1504.1000, -60.365
1504.1200, -60.373
1504.1400, -60.363
1504.1600, -60.358
1504.1800, -60.350
1504.2000, -60.287
1504.2200, -60.327
1504.2400, -60.336
1504.2600, -60.319
1504.2800, -60.309
1504.3000, -60.276
1504.3200, -60.308
1504.3400, -60.265
1504.3600, -60.309
1504.3800, -60.266
1504.4000, -60.266
1504.4200, -60.268
1504.4400, -60.260
1504.4600, -60.229
1504.4800, -60.238
1504.5000, -60.242
1504.5200, -60.212
1504.5400, -60.189
1504.5600, -60.240
1504.5800, -60.214
1504.6000, -60.188
1504.6200, -60.160
1504.6400, -60.193
1504.6600, -60.165
1504.6800, -60.168
1504.7000, -60.155
1504.7200, -60.167
1504.7400, -60.152
1504.7600, -60.148
1504.7800, -60.146
1504.8000, -60.145
1504.8200, -60.115
1504.8400, -60.101
1504.8600, -60.135
1504.8800, -60.069
1504.9000, -60.083
1504.9200, -60.070
1504.9400, -60.072
1504.9600, -60.074
1504.9800, -60.050
1505.0000, -60.046
1505.0200, -60.041
1505.0400, -60.012
1505.0600, -60.013
1505.0800, -59.999
1505.1000, -60.014
1505.1200, -59.988
1505.1400, -60.005
1505.1600, -59.963
1505.1800, -59.963
1505.2000, -59.967
1505.2200, -59.983
1505.2400, -59.956
1505.2600, -59.946
1505.2800, -59.926
1505.3000, -59.909
1505.3200, -59.910
1505.3400, -59.912
1505.3600, -59.889
1505.3800, -59.883
1505.4000, -59.871
1505.4200, -59.873
1505.4400, -59.888
1505.4600, -59.890
1505.4800, -59.834
1505.5000, -59.847
1505.5200, -59.831
1505.5400, -59.831
1505.5600, -59.834
1505.5800, -59.819
1505.6000, -59.808
1505.6200, -59.800
1505.6400, -59.801
1505.6600, -59.796
1505.6800, -59.788
1505.7000, -59.775
1505.7200, -59.767
1505.7400, -59.771
1505.7600, -59.763
1505.7800, -59.766
1505.8000, -59.740
1505.8200, -59.723
1505.8400, -59.715
1505.8600, -59.715
1505.8800, -59.673
1505.9000, -59.724
1505.9200, -59.671
1505.9400, -59.678
1505.9600, -59.673
1505.9800, -59.644
1506.0000, -59.646
1506.0200, -59.648
1506.0400, -59.661
1506.0600, -59.617
1506.0800, -59.603
1506.1000, -59.608
1506.1200, -59.606
1506.1400, -59.588
1506.1600, -59.598
1506.1800, -59.607
1506.2000, -59.549
1506.2200, -59.568
1506.2400, -59.545
1506.2600, -59.539
1506.2800, -59.555
1506.3000, -59.536
1506.3200, -59.509
1506.3400, -59.516
1506.3600, -59.526
1506.3800, -59.512
1506.4000, -59.503
1506.4200, -59.492
1506.4400, -59.476
1506.4600, -59.470
1506.4800, -59.463
1506.5000, -59.454
1506.5200, -59.453
1506.5400, -59.425
1506.5600, -59.436
1506.5800, -59.436
1506.6000, -59.430
1506.6200, -59.422
1506.6400, -59.430
1506.6600, -59.396
1506.6800, -59.372
1506.7000, -59.372
1506.7200, -59.377
1506.7400, -59.377
1506.7600, -59.366
1506.7800, -59.360
1506.8000, -59.323
1506.8200, -59.330
1506.8400, -59.299
1506.8600, -59.321
1506.8800, -59.311
1506.9000, -59.303
1506.9200, -59.280
1506.9400, -59.271
1506.9600, -59.265
1506.9800, -59.259
1507.0000, -59.257
1507.0200, -59.238
1507.0400, -59.242
1507.0600, -59.210
1507.0800, -59.228
1507.1000, -59.193
1507.1200, -59.194
1507.1400, -59.198
1507.1600, -59.181
1507.1800, -59.177
1507.2000, -59.155
1507.2200, -59.156
1507.2400, -59.174
1507.2600, -59.159
1507.2800, -59.140
1507.3000, -59.137
1507.3200, -59.121
1507.3400, -59.128
1507.3600, -59.108
1507.3800, -59.113
1507.4000, -59.088
1507.4200, -59.080
1507.4400, -59.072
1507.4600, -59.057
1507.4800, -59.075
1507.5000, -59.059
1507.5200, -59.044
1507.5400, -59.037
1507.5600, -59.025
1507.5800, -59.009
1507.6000, -59.007
1507.6200, -59.012
1507.6400, -58.987
1507.6600, -58.988
1507.6800, -58.992
1507.7000, -58.970
1507.7200, -58.954
1507.7400, -58.956
1507.7600, -58.961
1507.7800, -58.892
1507.8000, -58.904
1507.8200, -58.900
1507.8400, -58.910
1507.8600, -58.927
1507.8800, -58.869
1507.9000, -58.880
1507.9200, -58.856
1507.9400, -58.864
1507.9600, -58.866
1507.9800, -58.837
1508.0000, -58.840
1508.0200, -58.818
1508.0400, -58.816
1508.0600, -58.795
1508.0800, -58.808
1508.1000, -58.798
1508.1200, -58.787
1508.1400, -58.765
1508.1600, -58.763
1508.1800, -58.759
1508.2000, -58.745
1508.2200, -58.732
1508.2400, -58.741
1508.2600, -58.729
1508.2800, -58.745
1508.3000, -58.719
1508.3200, -58.716
1508.3400, -58.730
1508.3600, -58.690
1508.3800, -58.707
1508.4000, -58.665
1508.4200, -58.671
1508.4400, -58.669
1508.4600, -58.640
1508.4800, -58.640
1508.5000, -58.643
1508.5200, -58.628
1508.5400, -58.631
1508.5600, -58.631
1508.5800, -58.584
1508.6000, -58.605
1508.6200, -58.580
1508.6400, -58.570
1508.6600, -58.568
1508.6800, -58.555
1508.7000, -58.549
1508.7200, -58.540
1508.7400, -58.549
1508.7600, -58.528
1508.7800, -58.508
1508.8000, -58.509
1508.8200, -58.507
1508.8400, -58.494
1508.8600, -58.467
1508.8800, -58.473
1508.9000, -58.493
1508.9200, -58.429
1508.9400, -58.441
1508.9600, -58.420
1508.9800, -58.412
1509.0000, -58.405
1509.0200, -58.399
1509.0400, -58.398
1509.0600, -58.405
1509.0800, -58.377
1509.1000, -58.355
1509.1200, -58.377
1509.1400, -58.350
1509.1600, -58.330
1509.1800, -58.319
1509.2000, -58.303
1509.2200, -58.318
1509.2400, -58.302
1509.2600, -58.297
1509.2800, -58.293
1509.3000, -58.259
1509.3200, -58.267
1509.3400, -58.255
1509.3600, -58.249
1509.3800, -58.257
1509.4000, -58.230
1509.4200, -58.241
1509.4400, -58.197
1509.4600, -58.220
1509.4800, -58.193
1509.5000, -58.188
1509.5200, -58.187
1509.5400, -58.184
1509.5600, -58.183
1509.5800, -58.154
1509.6000, -58.158
1509.6200, -58.125
1509.6400, -58.122
1509.6600, -58.092
1509.6800, -58.113
1509.7000, -58.088
1509.7200, -58.075
1509.7400, -58.089
1509.7600, -58.064
1509.7800, -58.073
1509.8000, -58.047
1509.8200, -58.029
1509.8400, -58.032
1509.8600, -58.024
1509.8800, -58.002
1509.9000, -57.984
1509.9200, -57.988
1509.9400, -57.974
1509.9600, -57.963
1509.9800, -57.965
1510.0000, -57.971
1510.0200, -57.951
1510.0400, -57.955
1510.0600, -57.916
1510.0800, -57.932
1510.1000, -57.915
1510.1200, -57.896
1510.1400, -57.876
1510.1600, -57.878
1510.1800, -57.867
1510.2000, -57.851
1510.2200, -57.854
1510.2400, -57.834
1510.2600, -57.833
1510.2800, -57.807
1510.3000, -57.806
1510.3200, -57.799
1510.3400, -57.792
1510.3600, -57.779
1510.3800, -57.773
1510.4000, -57.743
1510.4200, -57.750
1510.4400, -57.744
1510.4600, -57.732
1510.4800, -57.712
1510.5000, -57.704
1510.5200, -57.704
1510.5400, -57.683
1510.5600, -57.655
1510.5800, -57.657
1510.6000, -57.651
1510.6200, -57.620
1510.6400, -57.624
1510.6600, -57.612
1510.6800, -57.611
1510.7000, -57.606
1510.7200, -57.580
1510.7400, -57.564
1510.7600, -57.558
1510.7800, -57.547
1510.8000, -57.536
1510.8200, -57.526
1510.8400, -57.501
1510.8600, -57.489
1510.8800, -57.479
1510.9000, -57.467
1510.9200, -57.461
1510.9400, -57.460
1510.9600, -57.455
1510.9800, -57.443
1511.0000, -57.420
1511.0200, -57.403
1511.0400, -57.408
1511.0600, -57.397
1511.0800, -57.366
1511.1000, -57.358
1511.1200, -57.354
1511.1400, -57.342
1511.1600, -57.325
1511.1800, -57.329
1511.2000, -57.325
1511.2200, -57.303
1511.2400, -57.293
1511.2600, -57.286
1511.2800, -57.274
1511.3000, -57.273
1511.3200, -57.259
1511.3400, -57.244
1511.3600, -57.222
1511.3800, -57.213
1511.4000, -57.209
1511.4200, -57.202
1511.4400, -57.192
1511.4600, -57.183
1511.4800, -57.159
1511.5000, -57.154
1511.5200, -57.142
1511.5400, -57.134
1511.5600, -57.127
1511.5800, -57.093
1511.6000, -57.091
1511.6200, -57.086
1511.6400, -57.069
1511.6600, -57.058
1511.6800, -57.049
1511.7000, -57.027
1511.7200, -57.037
1511.7400, -56.995
1511.7600, -56.988
1511.7800, -56.975
1511.8000, -56.985
1511.8200, -56.970
1511.8400, -56.941
1511.8600, -56.919
1511.8800, -56.932
1511.9000, -56.892
1511.9200, -56.915
1511.9400, -56.898
1511.9600, -56.882
1511.9800, -56.877
1512.0000, -56.850
1512.0200, -56.827
1512.0400, -56.831
1512.0600, -56.823
1512.0800, -56.796
1512.1000, -56.798
1512.1200, -56.796
1512.1400, -56.793
1512.1600, -56.750
1512.1800, -56.763
1512.2000, -56.739
1512.2200, -56.746
1512.2400, -56.731
1512.2600, -56.731
1512.2800, -56.705
1512.3000, -56.679
1512.3200, -56.695
1512.3400, -56.663
1512.3600, -56.656
1512.3800, -56.654
1512.4000, -56.645
1512.4200, -56.629
1512.4400, -56.633
1512.4600, -56.603
1512.4800, -56.602
1512.5000, -56.574
1512.5200, -56.563
1512.5400, -56.537
1512.5600, -56.541
1512.5800, -56.517
1512.6000, -56.515
1512.6200, -56.518
1512.6400, -56.495
1512.6600, -56.484
1512.6800, -56.447
1512.7000, -56.461
1512.7200, -56.450
1512.7400, -56.435
1512.7600, -56.409
1512.7800, -56.403
1512.8000, -56.378
1512.8200, -56.376
1512.8400, -56.371
1512.8600, -56.356
1512.8800, -56.359
1512.9000, -56.332
1512.9200, -56.326
1512.9400, -56.331
1512.9600, -56.310
1512.9800, -56.288
1513.0000, -56.268
1513.0200, -56.268
1513.0400, -56.234
1513.0600, -56.222
1513.0800, -56.223
1513.1000, -56.217
1513.1200, -56.215
1513.1400, -56.192
1513.1600, -56.190
1513.1800, -56.190
1513.2000, -56.182
1513.2200, -56.154
1513.2400, -56.131
1513.2600, -56.134
1513.2800, -56.120
1513.3000, -56.113
1513.3200, -56.102
1513.3400, -56.095
1513.3600, -56.089
1513.3800, -56.039
1513.4000, -56.050
1513.4200, -56.036
1513.4400, -56.025
1513.4600, -55.988
1513.4800, -55.988
1513.5000, -55.975
1513.5200, -55.965
1513.5400, -55.948
1513.5600, -55.935
1513.5800, -55.940
1513.6000, -55.911
1513.6200, -55.909
1513.6400, -55.893
1513.6600, -55.883
1513.6800, -55.876
1513.7000, -55.839
1513.7200, -55.822
1513.7400, -55.818
1513.7600, -55.794
1513.7800, -55.809
1513.8000, -55.783
1513.8200, -55.781
1513.8400, -55.764
1513.8600, -55.737
1513.8800, -55.731
1513.9000, -55.737
1513.9200, -55.701
1513.9400, -55.690
1513.9600, -55.674
1513.9800, -55.652
1514.0000, -55.636
1514.0200, -55.629
1514.0400, -55.633
1514.0600, -55.620
1514.0800, -55.610
1514.1000, -55.597
1514.1200, -55.592
1514.1400, -55.578
1514.1600, -55.563
1514.1800, -55.553
1514.2000, -55.529
1514.2200, -55.520
1514.2400, -55.514
1514.2600, -55.515
1514.2800, -55.480
1514.3000, -55.467
1514.3200, -55.448
1514.3400, -55.447
1514.3600, -55.435
1514.3800, -55.422
1514.4000, -55.406
1514.4200, -55.367
1514.4400, -55.366
1514.4600, -55.365
1514.4800, -55.343
1514.5000, -55.328
1514.5200, -55.321
1514.5400, -55.316
1514.5600, -55.292
1514.5800, -55.280
1514.6000, -55.264
1514.6200, -55.257
1514.6400, -55.229
1514.6600, -55.213
1514.6800, -55.205
1514.7000, -55.189
1514.7200, -55.172
1514.7400, -55.173
1514.7600, -55.156
1514.7800, -55.151
1514.8000, -55.116
1514.8200, -55.114
1514.8400, -55.101
1514.8600, -55.086
1514.8800, -55.057
1514.9000, -55.049
1514.9200, -55.046
1514.9400, -55.022
1514.9600, -55.024
1514.9800, -55.010
1515.0000, -55.000
1515.0200, -54.985
1515.0400, -54.966
1515.0600, -54.949
1515.0800, -54.943
1515.1000, -54.923
1515.1200, -54.910
1515.1400, -54.890
1515.1600, -54.882
1515.1800, -54.869
1515.2000, -54.853
1515.2200, -54.838
1515.2400, -54.815
1515.2600, -54.818
1515.2800, -54.785
1515.3000, -54.782
1515.3200, -54.768
1515.3400, -54.757
1515.3600, -54.716
1515.3800, -54.716
1515.4000, -54.692
1515.4200, -54.690
1515.4400, -54.666
1515.4600, -54.672
1515.4800, -54.649
1515.5000, -54.610
1515.5200, -54.601
1515.5400, -54.606
1515.5600, -54.590
1515.5800, -54.558
1515.6000, -54.545
1515.6200, -54.529
1515.6400, -54.517
1515.6600, -54.496
1515.6800, -54.488
1515.7000, -54.470
1515.7200, -54.464
1515.7400, -54.453
1515.7600, -54.426
1515.7800, -54.415
1515.8000, -54.413
1515.8200, -54.386
1515.8400, -54.375
1515.8600, -54.355
1515.8800, -54.331
1515.9000, -54.307
1515.9200, -54.297
1515.9400, -54.303
1515.9600, -54.288
1515.9800, -54.270
1516.0000, -54.265
1516.0200, -54.241
1516.0400, -54.228
1516.0600, -54.217
1516.0800, -54.188
1516.1000, -54.175
1516.1200, -54.160
1516.1400, -54.146
1516.1600, -54.132
1516.1800, -54.119
1516.2000, -54.096
1516.2200, -54.060
1516.2400, -54.062
1516.2600, -54.055
1516.2800, -54.038
1516.3000, -54.017
1516.3200, -53.991
1516.3400, -53.973
1516.3600, -53.975
1516.3800, -53.941
1516.4000, -53.939
1516.4200, -53.927
1516.4400, -53.897
1516.4600, -53.866
1516.4800, -53.859
1516.5000, -53.852
1516.5200, -53.825
1516.5400, -53.810
1516.5600, -53.787
1516.5800, -53.769
1516.6000, -53.753
1516.6200, -53.743
1516.6400, -53.730
1516.6600, -53.708
1516.6800, -53.698
1516.7000, -53.660
1516.7200, -53.657
1516.7400, -53.643
1516.7600, -53.619
1516.7800, -53.604
1516.8000, -53.580
1516.8200, -53.565
1516.8400, -53.533
1516.8600, -53.518
1516.8800, -53.517
1516.9000, -53.503
1516.9200, -53.489
1516.9400, -53.468
1516.9600, -53.457
1516.9800, -53.437
1517.0000, -53.418
1517.0200, -53.401
1517.0400, -53.373
1517.0600, -53.367
1517.0800, -53.348
1517.1000, -53.333
1517.1200, -53.312
1517.1400, -53.295
1517.1600, -53.256
1517.1800, -53.247
1517.2000, -53.233
1517.2200, -53.218
1517.2400, -53.196
1517.2600, -53.161
1517.2800, -53.144
1517.3000, -53.147
1517.3200, -53.127
1517.3400, -53.097
1517.3600, -53.081
1517.3800, -53.072
1517.4000, -53.033
1517.4200, -53.015
1517.4400, -53.007
1517.4600, -52.987
1517.4800, -52.955
1517.5000, -52.939
1517.5200, -52.922
1517.5400, -52.889
1517.5600, -52.875
1517.5800, -52.869
1517.6000, -52.859
1517.6200, -52.834
1517.6400, -52.804
1517.6600, -52.779
1517.6800, -52.774
1517.7000, -52.747
1517.7200, -52.716
1517.7400, -52.699
1517.7600, -52.679
1517.7800, -52.658
1517.8000, -52.624
1517.8200, -52.622
1517.8400, -52.597
1517.8600, -52.585
1517.8800, -52.576
1517.9000, -52.556
1517.9200, -52.511
1517.9400, -52.519
1517.9600, -52.472
1517.9800, -52.457
1518.0000, -52.438
1518.0200, -52.437
1518.0400, -52.409
1518.0600, -52.395
1518.0800, -52.381
1518.1000, -52.357
1518.1200, -52.315
1518.1400, -52.308
1518.1600, -52.286
1518.1800, -52.261
1518.2000, -52.215
1518.2200, -52.191
1518.2400, -52.182
1518.2600, -52.181
1518.2800, -52.143
1518.3000, -52.134
1518.3200, -52.109
1518.3400, -52.063
1518.3600, -52.049
1518.3800, -52.030
1518.4000, -52.020
1518.4200, -51.982
1518.4400, -51.956
1518.4600, -51.925
1518.4800, -51.905
1518.5000, -51.878
1518.5200, -51.874
1518.5400, -51.853
1518.5600, -51.831
1518.5800, -51.795
1518.6000, -51.773
1518.6200, -51.762
1518.6400, -51.736
1518.6600, -51.691
1518.6800, -51.672
1518.7000, -51.659
1518.7200, -51.637
1518.7400, -51.616
1518.7600, -51.610
1518.7800, -51.586
1518.8000, -51.553
1518.8200, -51.541
1518.8400, -51.514
1518.8600, -51.484
1518.8800, -51.469
1518.9000, -51.453
1518.9200, -51.412
1518.9400, -51.395
1518.9600, -51.366
1518.9800, -51.349
1519.0000, -51.324
1519.0200, -51.308
1519.0400, -51.285
1519.0600, -51.223
1519.0800, -51.229
1519.1000, -51.202
1519.1200, -51.175
1519.1400, -51.121
1519.1600, -51.088
1519.1800, -51.085
1519.2000, -51.074
1519.2200, -51.026
1519.2400, -51.024
1519.2600, -50.991
1519.2800, -50.944
1519.3000, -50.930
1519.3200, -50.900
1519.3400, -50.880
1519.3600, -50.839
1519.3800, -50.799
1519.4000, -50.777
1519.4200, -50.746
1519.4400, -50.715
1519.4600, -50.722
1519.4800, -50.687
1519.5000, -50.665
1519.5200, -50.631
1519.5400, -50.605
1519.5600, -50.578
1519.5800, -50.550
1519.6000, -50.508
1519.6200, -50.466
1519.6400, -50.462
1519.6600, -50.419
1519.6800, -50.379
1519.7000, -50.362
1519.7200, -50.364
1519.7400, -50.341
1519.7600, -50.301
1519.7800, -50.273
1519.8000, -50.253
1519.8200, -50.227
1519.8400, -50.204
1519.8600, -50.151
1519.8800, -50.137
1519.9000, -50.112
1519.9200, -50.086
1519.9400, -50.053
1519.9600, -50.027
1519.9800, -50.003
1520.0000, -49.934
1520.0200, -49.935
1520.0400, -49.910
1520.0600, -49.881
1520.0800, -49.819
1520.1000, -49.771
1520.1200, -49.753
1520.1400, -49.745
1520.1600, -49.693
1520.1800, -49.692
1520.2000, -49.654
1520.2200, -49.605
1520.2400, -49.574
1520.2600, -49.553
1520.2800, -49.528
1520.3000, -49.473
1520.3200, -49.427
1520.3400, -49.414
1520.3600, -49.377
1520.3800, -49.337
1520.4000, -49.325
1520.4200, -49.284
1520.4400, -49.281
1520.4600, -49.230
1520.4800, -49.192
1520.5000, -49.178
1520.5200, -49.136
1520.5400, -49.085
1520.5600, -49.039
1520.5800, -49.021
1520.6000, -49.003
1520.6200, -48.938
1520.6400, -48.920
1520.6600, -48.914
1520.6800, -48.879
1520.7000, -48.827
1520.7200, -48.815
1520.7400, -48.784
1520.7600, -48.755
1520.7800, -48.711
1520.8000, -48.649
1520.8200, -48.629
1520.8400, -48.601
1520.8600, -48.565
1520.8800, -48.536
1520.9000, -48.511
1520.9200, -48.462
1520.9400, -48.423
1520.9600, -48.399
1520.9800, -48.364
1521.0000, -48.328
1521.0200, -48.295
1521.0400, -48.244
1521.0600, -48.175
1521.0800, -48.165
1521.1000, -48.106
1521.1200, -48.105
1521.1400, -48.072
1521.1600, -48.020
1521.1800, -47.977
1521.2000, -47.932
1521.2200, -47.911
1521.2400, -47.865
1521.2600, -47.805
1521.2800, -47.771
1521.3000, -47.737
1521.3200, -47.708
1521.3400, -47.665
1521.3600, -47.629
1521.3800, -47.620
1521.4000, -47.571
1521.4200, -47.521
1521.4400, -47.492
1521.4600, -47.461
1521.4800, -47.419
1521.5000, -47.356
1521.5200, -47.333
1521.5400, -47.309
1521.5600, -47.254
1521.5800, -47.220
1521.6000, -47.199
1521.6200, -47.153
1521.6400, -47.107
1521.6600, -47.080
1521.6800, -47.037
1521.7000, -46.994
1521.7200, -46.960
1521.7400, -46.901
1521.7600, -46.868
1521.7800, -46.844
1521.8000, -46.806
1521.8200, -46.765
1521.8400, -46.721
1521.8600, -46.675
1521.8800, -46.640
1521.9000, -46.612
1521.9200, -46.567
1521.9400, -46.525
1521.9600, -46.488
1521.9800, -46.431
1522.0000, -46.381
1522.0200, -46.334
1522.0400, -46.301
1522.0600, -46.289
1522.0800, -46.240
1522.1000, -46.186
1522.1200, -46.136
1522.1400, -46.107
1522.1600, -46.062
1522.1800, -46.021
1522.2000, -45.965
1522.2200, -45.936
1522.2400, -45.883
1522.2600, -45.848
1522.2800, -45.805
1522.3000, -45.761
1522.3200, -45.742
1522.3400, -45.692
1522.3600, -45.636
1522.3800, -45.602
1522.4000, -45.568
1522.4200, -45.512
1522.4400, -45.456
1522.4600, -45.426
1522.4800, -45.391
1522.5000, -45.332
1522.5200, -45.306
1522.5400, -45.278
1522.5600, -45.222
1522.5800, -45.186
1522.6000, -45.148
1522.6200, -45.108
1522.6400, -45.070
1522.6600, -45.027
1522.6800, -44.970
1522.7000, -44.931
1522.7200, -44.889
1522.7400, -44.850
1522.7600, -44.808
1522.7800, -44.763
1522.8000, -44.713
1522.8200, -44.683
1522.8400, -44.643
1522.8600, -44.600
1522.8800, -44.557
1522.9000, -44.514
1522.9200, -44.459
1522.9400, -44.413
1522.9600, -44.366
1522.9800, -44.325
1523.0000, -44.306
1523.0200, -44.261
1523.0400, -44.214
1523.0600, -44.153
1523.0800, -44.121
1523.1000, -44.076
1523.1200, -44.041
1523.1400, -43.986
1523.1600, -43.947
1523.1800, -43.901
1523.2000, -43.860
1523.2200, -43.812
1523.2400, -43.775
1523.2600, -43.744
1523.2800, -43.696
1523.3000, -43.645
1523.3200, -43.609
1523.3400, -43.564
1523.3600, -43.510
1523.3800, -43.458
1523.4000, -43.421
1523.4200, -43.388
1523.4400, -43.340
1523.4600, -43.310
1523.4800, -43.261
1523.5000, -43.218
1523.5200, -43.172
1523.5400, -43.135
1523.5600, -43.092
1523.5800, -43.054
1523.6000, -43.006
1523.6200, -42.964
1523.6400, -42.918
1523.6600, -42.877
1523.6800, -42.841
1523.7000, -42.800
1523.7200, -42.750
1523.7400, -42.714
1523.7600, -42.670
1523.7800, -42.628
1523.8000, -42.588
1523.8200, -42.544
1523.8400, -42.504
1523.8600, -42.457
1523.8800, -42.408
1523.9000, -42.363
1523.9200, -42.322
1523.9400, -42.288
1523.9600, -42.247
1523.9800, -42.200
1524.0000, -42.155
1524.0200, -42.116
1524.0400, -42.078
1524.0600, -42.031
1524.0800, -41.985
1524.1000, -41.944
1524.1200, -41.902
1524.1400, -41.859
1524.1600, -41.818
1524.1800, -41.774
1524.2000, -41.738
1524.2200, -41.693
1524.2400, -41.645
1524.2600, -41.606
1524.2800, -41.565
1524.3000, -41.523
1524.3200, -41.479
1524.3400, -41.440
1524.3600, -41.397
1524.3800, -41.352
1524.4000, -41.314
1524.4200, -41.277
1524.4400, -41.231
1524.4600, -41.192
1524.4800, -41.152
1524.5000, -41.110
1524.5200, -41.067
1524.5400, -41.024
1524.5600, -40.984
1524.5800, -40.948
1524.6000, -40.910
1524.6200, -40.870
1524.6400, -40.829
1524.6600, -40.783
1524.6800, -40.744
1524.7000, -40.703
1524.7200, -40.662
1524.7400, -40.623
1524.7600, -40.585
1524.7800, -40.546
1524.8000, -40.501
1524.8200, -40.456
1524.8400, -40.416
1524.8600, -40.375
1524.8800, -40.338
1524.9000, -40.295
1524.9200, -40.255
1524.9400, -40.214
1524.9600, -40.173
1524.9800, -40.134
1525.0000, -40.091
1525.0200, -40.050
1525.0400, -40.009
1525.0600, -39.967
1525.0800, -39.922
1525.1000, -39.879
1525.1200, -39.842
1525.1400, -39.801
1525.1600, -39.761
1525.1800, -39.719
1525.2000, -39.678
1525.2200, -39.640
1525.2400, -39.601
1525.2600, -39.561
1525.2800, -39.520
1525.3000, -39.480
1525.3200, -39.439
1525.3400, -39.399
1525.3600, -39.364
1525.3800, -39.323
1525.4000, -39.285
1525.4200, -39.247
1525.4400, -39.204
1525.4600, -39.163
1525.4800, -39.120
1525.5000, -39.080
1525.5200, -39.036
1525.5400, -38.995
1525.5600, -38.957
1525.5800, -38.914
1525.6000, -38.871
1525.6200, -38.832
1525.6400, -38.794
1525.6600, -38.754
1525.6800, -38.714
1525.7000, -38.670
1525.7200, -38.629
1525.7400, -38.581
1525.7600, -38.538
1525.7800, -38.497
1525.8000, -38.461
1525.8200, -38.416
1525.8400, -38.374
1525.8600, -38.334
1525.8800, -38.293
1525.9000, -38.258
1525.9200, -38.213
1525.9400, -38.170
1525.9600, -38.127
1525.9800, -38.092
1526.0000, -38.056
1526.0200, -38.016
1526.0400, -37.978
1526.0600, -37.944
1526.0800, -37.903
1526.1000, -37.862
1526.1200, -37.827
1526.1400, -37.784
1526.1600, -37.741
1526.1800, -37.697
1526.2000, -37.660
1526.2200, -37.620
1526.2400, -37.570
1526.2600, -37.528
1526.2800, -37.497
1526.3000, -37.460
1526.3200, -37.422
1526.3400, -37.390
1526.3600, -37.356
1526.3800, -37.323
1526.4000, -37.281
1526.4200, -37.236
1526.4400, -37.199
1526.4600, -37.162
1526.4800, -37.126
1526.5000, -37.092
1526.5200, -37.045
1526.5400, -37.009
1526.5600, -36.971
1526.5800, -36.932
1526.6000, -36.893
1526.6200, -36.851
1526.6400, -36.798
1526.6600, -36.755
1526.6800, -36.723
1526.7000, -36.683
1526.7200, -36.645
1526.7400, -36.623
1526.7600, -36.576
1526.7800, -36.530
1526.8000, -36.486
1526.8200, -36.455
1526.8400, -36.422
1526.8600, -36.374
1526.8800, -36.329
1526.9000, -36.292
1526.9200, -36.252
1526.9400, -36.213
1526.9600, -36.163
1526.9800, -36.129
1527.0000, -36.102
1527.0200, -36.058
1527.0400, -36.009
1527.0600, -35.973
1527.0800, -35.941
1527.1000, -35.895
1527.1200, -35.841
1527.1400, -35.801
1527.1600, -35.765
1527.1800, -35.736
1527.2000, -35.708
1527.2200, -35.669
1527.2400, -35.613
1527.2600, -35.580
1527.2800, -35.549
1527.3000, -35.499
1527.3200, -35.470
1527.3400, -35.416
1527.3600, -35.382
1527.3800, -35.332
1527.4000, -35.302
1527.4200, -35.250
1527.4400, -35.213
1527.4600, -35.157
1527.4800, -35.120
1527.5000, -35.070
1527.5200, -35.030
1527.5400, -34.977
1527.5600, -34.928
1527.5800, -34.854
1527.6000, -34.812
1527.6200, -34.757
1527.6400, -34.725
1527.6600, -34.684
1527.6800, -34.658
1527.7000, -34.600
1527.7200, -34.531
1527.7400, -34.480
1527.7600, -34.456
1527.7800, -34.406
1527.8000, -34.355
1527.8200, -34.284
1527.8400, -34.254
1527.8600, -34.202
1527.8800, -34.150
1527.9000, -34.100
1527.9200, -34.092
1527.9400, -34.046
1527.9600, -33.976
1527.9800, -33.928
1528.0000, -33.901
1528.0200, -33.837
1528.0400, -33.769
1528.0600, -33.702
1528.0800, -33.689
1528.1000, -33.654
1528.1200, -33.596
1528.1400, -33.586
1528.1600, -33.531
1528.1800, -33.466
1528.2000, -33.449
1528.2200, -33.407
1528.2400, -33.360
1528.2600, -33.309
1528.2800, -33.263
1528.3000, -33.233
1528.3200, -33.186
1528.3400, -33.169
1528.3600, -33.119
1528.3800, -33.084
1528.4000, -33.027
1528.4200, -32.936
1528.4400, -32.929
1528.4600, -32.907
1528.4800, -32.875
1528.5000, -32.804
1528.5200, -32.738
1528.5400, -32.705
1528.5600, -32.689
1528.5800, -32.647
1528.6000, -32.637
1528.6200, -32.597
1528.6400, -32.525
1528.6600, -32.505
1528.6800, -32.462
1528.7000, -32.434
1528.7200, -32.367
1528.7400, -32.309
1528.7600, -32.263
1528.7800, -32.211
1528.8000, -32.158
1528.8200, -32.101
1528.8400, -32.057
1528.8600, -32.050
1528.8800, -31.972
1528.9000, -31.911
1528.9200, -31.882
1528.9400, -31.848
1528.9600, -31.761
1528.9800, -31.672
1529.0000, -31.643
1529.0200, -31.592
1529.0400, -31.510
1529.0600, -31.521
1529.0800, -31.475
1529.1000, -31.398
1529.1200, -31.381
1529.1400, -31.353
1529.1600, -31.286
1529.1800, -31.238
1529.2000, -31.177
1529.2200, -31.078
1529.2400, -31.097
1529.2600, -31.038
1529.2800, -31.028
1529.3000, -30.994
1529.3200, -30.945
1529.3400, -30.901
1529.3600, -30.832
1529.3800, -30.739
1529.4000, -30.650
1529.4200, -30.623
1529.4400, -30.496
1529.4600, -30.518
1529.4800, -30.554
1529.5000, -30.509
1529.5200, -30.430
1529.5400, -30.446
1529.5600, -30.349
1529.5800, -30.301
1529.6000, -30.262
1529.6200, -30.159
1529.6400, -30.133
1529.6600, -30.100
1529.6800, -29.981
1529.7000, -29.916
1529.7200, -29.908
1529.7400, -29.993
1529.7600, -29.838
1529.7800, -29.944
1529.8000, -29.893
1529.8200, -29.797
1529.8400, -29.773
1529.8600, -29.683
1529.8800, -29.589
1529.9000, -29.489
1529.9200, -29.490
1529.9400, -29.695
1529.9600, -29.486
1529.9800, -29.404
1530.0000, -29.517
1530.0200, -29.353
1530.0400, -29.362
1530.0600, -29.264
1530.0800, -29.387
1530.1000, -29.321
1530.1200, -29.285
1530.1400, -29.330
1530.1600, -29.284
1530.1800, -29.356
1530.2000, -29.331
1530.2200, -29.360
1530.2400, -29.247
1530.2600, -29.156
1530.2800, -29.068
1530.3000, -29.251
1530.3200, -29.303
1530.3400, -29.284
1530.3600, -29.225
1530.3800, -29.032
1530.4000, -29.076
1530.4200, -28.906
1530.4400, -28.973
1530.4600, -28.949
1530.4800, -28.815
1530.5000, -28.833
1530.5200, -28.729
1530.5400, -28.725
1530.5600, -28.474
1530.5800, -28.533
1530.6000, -28.630
1530.6200, -28.513
1530.6400, -28.493
1530.6600, -28.476
1530.6800, -28.352
1530.7000, -28.464
1530.7200, -28.407
1530.7400, -28.339
1530.7600, -28.355
1530.7800, -28.321
1530.8000, -28.429
1530.8200, -28.374
1530.8400, -28.347
1530.8600, -28.227
1530.8800, -28.357
1530.9000, -28.314
1530.9200, -28.275
1530.9400, -28.352
1530.9600, -28.264
1530.9800, -28.257
1531.0000, -27.902
1531.0200, -28.287
1531.0400, -28.289
1531.0600, -28.244
1531.0800, -28.213
1531.1000, -27.799
1531.1200, -28.084
1531.1400, -28.097
1531.1600, -28.142
1531.1800, -28.069
1531.2000, -27.574
1531.2200, -27.891
1531.2400, -27.931
1531.2600, -27.688
1531.2800, -27.769
1531.3000, -27.657
1531.3200, -27.324
1531.3400, -27.423
1531.3600, -26.735
1531.3800, -26.512
1531.4000, -26.432
1531.4200, -26.924
1531.4400, -25.556
1531.4600, -25.900
1531.4800, -25.403
1531.5000, -26.277
1531.5200, -26.442
1531.5400, -26.935
1531.5600, -25.303
1531.5800, -25.873
1531.6000, -26.698
1531.6200, -26.401
1531.6400, -26.336
1531.6600, -25.874
1531.6800, -27.042
1531.7000, -26.936
1531.7200, -27.112
1531.7400, -27.673
1531.7600, -27.662
1531.7800, -26.717
1531.8000, -27.480
1531.8200, -27.456
1531.8400, -27.659
1531.8600, -27.644
1531.8800, -26.119
1531.9000, -25.799
1531.9200, -26.445
1531.9400, -26.404
1531.9600, -26.705
1531.9800, -25.173
1532.0000, -25.336
1532.0200, -26.557
1532.0400, -25.476
1532.0600, -26.597
1532.0800, -26.502
1532.1000, -25.291
1532.1200, -24.569
1532.1400, -26.765
1532.1600, -27.543
1532.1800, -27.087
1532.2000, -27.803
1532.2200, -26.729
1532.2400, -27.438
1532.2600, -27.990
1532.2800, -27.855
1532.3000, -26.971
1532.3200, -27.332
1532.3400, -27.458
1532.3600, -26.780
1532.3800, -27.033
1532.4000, -26.116
1532.4200, -25.275
1532.4400, -25.914
1532.4600, -27.221
1532.4800, -27.708
1532.5000, -27.023
1532.5200, -24.878
1532.5400, -26.334
1532.5600, -25.757
1532.5800, -25.392
1532.6000, -25.533
1532.6200, -26.744
1532.6400, -25.626
1532.6600, -26.708
1532.6800, -27.470
1532.7000, -26.514
1532.7200, -27.727
1532.7400, -27.388
1532.7600, -26.085
1532.7800, -26.659
1532.8000, -25.301
1532.8200, -25.782
1532.8400, -26.155
1532.8600, -26.050
1532.8800, -26.477
1532.9000, -27.802
1532.9200, -27.890
1532.9400, -28.206
1532.9600, -27.900
1532.9800, -27.559
1533.0000, -27.698
1533.0200, -27.465
1533.0400, -28.366
1533.0600, -27.461
1533.0800, -28.249
1533.1000, -27.229
1533.1200, -28.375
1533.1400, -28.355
1533.1600, -28.426
1533.1800, -27.965
1533.2000, -27.934
1533.2200, -27.445
1533.2400, -27.610
1533.2600, -28.749
1533.2800, -28.666
1533.3000, -27.660
1533.3200, -26.886
1533.3400, -28.548
1533.3600, -28.482
1533.3800, -27.903
1533.4000, -28.048
1533.4200, -28.700
1533.4400, -28.113
1533.4600, -28.704
1533.4800, -28.021
1533.5000, -29.001
1533.5200, -28.979
1533.5400, -28.321
1533.5600, -29.376
1533.5800, -29.331
1533.6000, -29.411
1533.6200, -29.528
1533.6400, -29.647
1533.6600, -29.316
1533.6800, -29.713
1533.7000, -29.841
1533.7200, -29.776
1533.7400, -29.986
1533.7600, -30.049
1533.7800, -29.965
1533.8000, -30.162
1533.8200, -30.237
1533.8400, -30.393
1533.8600, -30.396
1533.8800, -30.382
1533.9000, -30.488
1533.9200, -30.664
1533.9400, -30.758
1533.9600, -30.793
1533.9800, -30.875
1534.0000, -30.881
1534.0200, -31.046
1534.0400, -31.024
1534.0600, -31.094
1534.0800, -31.173
1534.1000, -31.228
1534.1200, -31.300
1534.1400, -31.229
1534.1600, -31.488
1534.1800, -31.511
1534.2000, -31.563
1534.2200, -31.535
1534.2400, -31.569
1534.2600, -31.654
1534.2800, -31.734
1534.3000, -31.769
1534.3200, -31.823
1534.3400, -31.926
1534.3600, -32.060
1534.3800, -32.146
1534.4000, -32.250
1534.4200, -32.286
1534.4400, -32.387
1534.4600, -32.441
1534.4800, -32.443
1534.5000, -32.576
1534.5200, -32.609
1534.5400, -32.712
1534.5600, -32.721
1534.5800, -32.873
1534.6000, -32.908
1534.6200, -32.922
1534.6400, -33.015
1534.6600, -33.102
1534.6800, -33.094
1534.7000, -33.190
1534.7200, -33.197
1534.7400, -33.310
1534.7600, -33.383
1534.7800, -33.402
1534.8000, -33.506
1534.8200, -33.553
1534.8400, -33.665
1534.8600, -33.669
1534.8800, -33.771
1534.9000, -33.784
1534.9200, -33.870
1534.9400, -33.929
1534.9600, -33.969
1534.9800, -34.070
1535.0000, -34.106
1535.0200, -34.150
1535.0400, -34.187
1535.0600, -34.210
1535.0800, -34.367
1535.1000, -34.358
1535.1200, -34.463
1535.1400, -34.476
1535.1600, -34.502
1535.1800, -34.597
1535.2000, -34.592
1535.2200, -34.639
1535.2400, -34.692
1535.2600, -34.689
1535.2800, -34.751
1535.3000, -34.834
1535.3200, -34.894
1535.3400, -34.972
1535.3600, -35.012
1535.3800, -35.087
1535.4000, -35.111
1535.4200, -35.168
1535.4400, -35.212
1535.4600, -35.268
1535.4800, -35.334
1535.5000, -35.387
1535.5200, -35.457
1535.5400, -35.516
1535.5600, -35.563
1535.5800, -35.617
1535.6000, -35.674
1535.6200, -35.735
1535.6400, -35.791
1535.6600, -35.851
1535.6800, -35.918
1535.7000, -35.971
1535.7200, -36.032
1535.7400, -36.090
1535.7600, -36.152
1535.7800, -36.215
1535.8000, -36.280
1535.8200, -36.311
1535.8400, -36.377
1535.8600, -36.429
1535.8800, -36.479
1535.9000, -36.530
1535.9200, -36.578
1535.9400, -36.624
1535.9600, -36.677
1535.9800, -36.728
1536.0000, -36.788
1536.0200, -36.828
1536.0400, -36.870
1536.0600, -36.914
1536.0800, -36.948
1536.1000, -37.012
1536.1200, -37.053
1536.1400, -37.096
1536.1600, -37.141
1536.1800, -37.181
1536.2000, -37.222
1536.2200, -37.276
1536.2400, -37.317
1536.2600, -37.360
1536.2800, -37.394
1536.3000, -37.429
1536.3200, -37.465
1536.3400, -37.511
1536.3600, -37.547
1536.3800, -37.589
1536.4000, -37.630
1536.4200, -37.675
1536.4400, -37.718
1536.4600, -37.765
1536.4800, -37.801
1536.5000, -37.840
1536.5200, -37.880
1536.5400, -37.926
1536.5600, -37.966
1536.5800, -38.013
1536.6000, -38.048
1536.6200, -38.070
1536.6400, -38.108
1536.6600, -38.141
1536.6800, -38.179
1536.7000, -38.222
1536.7200, -38.256
1536.7400, -38.284
1536.7600, -38.317
1536.7800, -38.356
1536.8000, -38.389
1536.8200, -38.420
1536.8400, -38.442
1536.8600, -38.479
1536.8800, -38.525
1536.9000, -38.555
1536.9200, -38.599
1536.9400, -38.624
1536.9600, -38.653
1536.9800, -38.680
1537.0000, -38.713
1537.0200, -38.742
1537.0400, -38.783
1537.0600, -38.813
1537.0800, -38.844
1537.1000, -38.870
1537.1200, -38.899
1537.1400, -38.940
1537.1600, -38.965
1537.1800, -38.993
1537.2000, -39.019
1537.2200, -39.044
1537.2400, -39.068
1537.2600, -39.099
1537.2800, -39.126
1537.3000, -39.140
1537.3200, -39.174
1537.3400, -39.208
1537.3600, -39.238
1537.3800, -39.270
1537.4000, -39.290
1537.4200, -39.323
1537.4400, -39.343
1537.4600, -39.373
1537.4800, -39.395
1537.5000, -39.418
1537.5200, -39.445
1537.5400, -39.466
1537.5600, -39.490
1537.5800, -39.520
1537.6000, -39.541
1537.6200, -39.574
1537.6400, -39.593
1537.6600, -39.613
1537.6800, -39.634
1537.7000, -39.658
1537.7200, -39.679
1537.7400, -39.701
1537.7600, -39.717
1537.7800, -39.724
1537.8000, -39.755
1537.8200, -39.766
1537.8400, -39.802
1537.8600, -39.823
1537.8800, -39.836
1537.9000, -39.843
1537.9200, -39.873
1537.9400, -39.887
1537.9600, -39.907
1537.9800, -39.923
1538.0000, -39.936
1538.0200, -39.956
1538.0400, -39.978
1538.0600, -40.000
1538.0800, -40.016
1538.1000, -40.027
1538.1200, -40.044
1538.1400, -40.062
1538.1600, -40.089
1538.1800, -40.105
1538.2000, -40.112
1538.2200, -40.127
1538.2400, -40.143
1538.2600, -40.164
1538.2800, -40.184
1538.3000, -40.200
1538.3200, -40.212
1538.3400, -40.227
1538.3600, -40.244
1538.3800, -40.258
1538.4000, -40.253
1538.4200, -40.281
1538.4400, -40.287
1538.4600, -40.305
1538.4800, -40.324
1538.5000, -40.344
1538.5200, -40.338
1538.5400, -40.364
1538.5600, -40.377
1538.5800, -40.391
1538.6000, -40.406
1538.6200, -40.418
1538.6400, -40.432
1538.6600, -40.443
1538.6800, -40.453
1538.7000, -40.447
1538.7200, -40.466
1538.7400, -40.467
1538.7600, -40.489
1538.7800, -40.498
1538.8000, -40.500
1538.8200, -40.509
1538.8400, -40.519
1538.8600, -40.530
1538.8800, -40.536
1538.9000, -40.545
1538.9200, -40.548
1538.9400, -40.556
1538.9600, -40.563
1538.9800, -40.583
1539.0000, -40.587
1539.0200, -40.606
1539.0400, -40.597
1539.0600, -40.603
1539.0800, -40.619
1539.1000, -40.623
1539.1200, -40.631
1539.1400, -40.630
1539.1600, -40.640
1539.1800, -40.646
1539.2000, -40.646
1539.2200, -40.665
1539.2400, -40.668
1539.2600, -40.667
1539.2800, -40.683
1539.3000, -40.687
1539.3200, -40.690
1539.3400, -40.704
1539.3600, -40.703
1539.3800, -40.706
1539.4000, -40.711
1539.4200, -40.722
1539.4400, -40.723
1539.4600, -40.734
1539.4800, -40.738
1539.5000, -40.738
1539.5200, -40.746
1539.5400, -40.753
1539.5600, -40.758
1539.5800, -40.766
1539.6000, -40.769
1539.6200, -40.763
1539.6400, -40.779
1539.6600, -40.773
1539.6800, -40.791
1539.7000, -40.787
1539.7200, -40.776
1539.7400, -40.778
1539.7600, -40.785
1539.7800, -40.789
1539.8000, -40.794
1539.8200, -40.791
1539.8400, -40.789
1539.8600, -40.795
1539.8800, -40.794
1539.9000, -40.799
1539.9200, -40.812
1539.9400, -40.811
1539.9600, -40.805
1539.9800, -40.805
1540.0000, -40.816
1540.0200, -40.815
1540.0400, -40.819
1540.0600, -40.813
1540.0800, -40.821
1540.1000, -40.831
1540.1200, -40.832
1540.1400, -40.836
1540.1600, -40.835
1540.1800, -40.838
1540.2000, -40.836
1540.2200, -40.842
1540.2400, -40.839
1540.2600, -40.844
1540.2800, -40.840
1540.3000, -40.834
1540.3200, -40.835
1540.3400, -40.834
1540.3600, -40.831
1540.3800, -40.832
1540.4000, -40.830
1540.4200, -40.825
1540.4400, -40.828
1540.4600, -40.829
1540.4800, -40.828
1540.5000, -40.819
1540.5200, -40.805
1540.5400, -40.813
1540.5600, -40.816
1540.5800, -40.824
1540.6000, -40.823
1540.6200, -40.819
1540.6400, -40.804
1540.6600, -40.802
1540.6800, -40.809
1540.7000, -40.802
1540.7200, -40.809
1540.7400, -40.799
1540.7600, -40.798
1540.7800, -40.795
1540.8000, -40.788
1540.8200, -40.795
1540.8400, -40.801
1540.8600, -40.799
1540.8800, -40.782
1540.9000, -40.779
1540.9200, -40.782
1540.9400, -40.776
1540.9600, -40.775
1540.9800, -40.780
1541.0000, -40.783
1541.0200, -40.781
1541.0400, -40.783
1541.0600, -40.782
1541.0800, -40.778
1541.1000, -40.771
1541.1200, -40.769
1541.1400, -40.767
1541.1600, -40.762
1541.1800, -40.759
1541.2000, -40.753
1541.2200, -40.753
1541.2400, -40.756
1541.2600, -40.751
1541.2800, -40.749
1541.3000, -40.752
1541.3200, -40.745
1541.3400, -40.744
1541.3600, -40.741
1541.3800, -40.735
1541.4000, -40.733
1541.4200, -40.717
1541.4400, -40.712
1541.4600, -40.716
1541.4800, -40.722
1541.5000, -40.721
1541.5200, -40.707
1541.5400, -40.704
1541.5600, -40.697
1541.5800, -40.698
1541.6000, -40.702
1541.6200, -40.697
1541.6400, -40.682
1541.6600, -40.679
1541.6800, -40.675
1541.7000, -40.671
1541.7200, -40.672
1541.7400, -40.670
1541.7600, -40.670
1541.7800, -40.661
1541.8000, -40.654
1541.8200, -40.659
1541.8400, -40.648
1541.8600, -40.647
1541.8800, -40.643
1541.9000, -40.642
1541.9200, -40.633
1541.9400, -40.626
1541.9600, -40.632
1541.9800, -40.636
1542.0000, -40.626
1542.0200, -40.625
1542.0400, -40.616
1542.0600, -40.614
1542.0800, -40.610
1542.1000, -40.599
1542.1200, -40.598
1542.1400, -40.593
1542.1600, -40.597
1542.1800, -40.590
1542.2000, -40.594
1542.2200, -40.587
1542.2400, -40.579
1542.2600, -40.578
1542.2800, -40.575
1542.3000, -40.571
1542.3200, -40.565
1542.3400, -40.546
1542.3600, -40.552
1542.3800, -40.557
1542.4000, -40.541
1542.4200, -40.550
1542.4400, -40.541
1542.4600, -40.526
1542.4800, -40.525
1542.5000, -40.518
1542.5200, -40.516
1542.5400, -40.515
1542.5600, -40.508
1542.5800, -40.505
1542.6000, -40.494
1542.6200, -40.491
1542.6400, -40.493
1542.6600, -40.494
1542.6800, -40.492
1542.7000, -40.481
1542.7200, -40.480
1542.7400, -40.481
1542.7600, -40.470
1542.7800, -40.468
1542.8000, -40.464
1542.8200, -40.461
1542.8400, -40.457
1542.8600, -40.462
1542.8800, -40.457
1542.9000, -40.453
1542.9200, -40.442
1542.9400, -40.437
1542.9600, -40.440
1542.9800, -40.433
1543.0000, -40.435
1543.0200, -40.415
1543.0400, -40.416
1543.0600, -40.415
1543.0800, -40.411
1543.1000, -40.407
1543.1200, -40.406
1543.1400, -40.392
1543.1600, -40.384
1543.1800, -40.387
1543.2000, -40.385
1543.2200, -40.381
1543.2400, -40.371
1543.2600, -40.377
1543.2800, -40.370
1543.3000, -40.366
1543.3200, -40.358
1543.3400, -40.363
1543.3600, -40.359
1543.3800, -40.344
1543.4000, -40.345
1543.4200, -40.344
1543.4400, -40.337
1543.4600, -40.329
1543.4800, -40.334
1543.5000, -40.322
1543.5200, -40.315
1543.5400, -40.311
1543.5600, -40.315
1543.5800, -40.317
1543.6000, -40.313
1543.6200, -40.305
1543.6400, -40.304
1543.6600, -40.308
1543.6800, -40.304
1543.7000, -40.295
1543.7200, -40.292
1543.7400, -40.291
1543.7600, -40.283
1543.7800, -40.285
1543.8000, -40.281
1543.8200, -40.276
1543.8400, -40.270
1543.8600, -40.278
1543.8800, -40.277
1543.9000, -40.280
1543.9200, -40.279
1543.9400, -40.270
1543.9600, -40.268
1543.9800, -40.271
1544.0000, -40.272
1544.0200, -40.277
1544.0400, -40.277
1544.0600, -40.272
1544.0800, -40.265
1544.1000, -40.265
1544.1200, -40.261
1544.1400, -40.258
1544.1600, -40.246
1544.1800, -40.244
1544.2000, -40.239
1544.2200, -40.252
1544.2400, -40.253
1544.2600, -40.250
1544.2800, -40.244
1544.3000, -40.244
1544.3200, -40.248
1544.3400, -40.238
1544.3600, -40.226
1544.3800, -40.226
1544.4000, -40.229
1544.4200, -40.219
1544.4400, -40.221
1544.4600, -40.218
1544.4800, -40.218
1544.5000, -40.217
1544.5200, -40.210
1544.5400, -40.210
1544.5600, -40.208
1544.5800, -40.206
1544.6000, -40.201
1544.6200, -40.202
1544.6400, -40.201
1544.6600, -40.196
1544.6800, -40.194
1544.7000, -40.209
1544.7200, -40.208
1544.7400, -40.201
1544.7600, -40.209
1544.7800, -40.211
1544.8000, -40.211
1544.8200, -40.209
1544.8400, -40.196
1544.8600, -40.202
1544.8800, -40.197
1544.9000, -40.202
1544.9200, -40.198
1544.9400, -40.199
1544.9600, -40.199
1544.9800, -40.191
1545.0000, -40.191
1545.0200, -40.189
1545.0400, -40.186
1545.0600, -40.184
1545.0800, -40.184
1545.1000, -40.176
1545.1200, -40.183
1545.1400, -40.186
1545.1600, -40.180
1545.1800, -40.180
1545.2000, -40.174
1545.2200, -40.180
1545.2400, -40.178
1545.2600, -40.172
1545.2800, -40.178
1545.3000, -40.173
1545.3200, -40.172
1545.3400, -40.177
1545.3600, -40.180
1545.3800, -40.184
1545.4000, -40.175
1545.4200, -40.174
1545.4400, -40.173
1545.4600, -40.169
1545.4800, -40.167
1545.5000, -40.163
1545.5200, -40.156
1545.5400, -40.160
1545.5600, -40.154
1545.5800, -40.139
1545.6000, -40.146
1545.6200, -40.161
1545.6400, -40.160
1545.6600, -40.168
1545.6800, -40.174
1545.7000, -40.170
1545.7200, -40.168
1545.7400, -40.169
1545.7600, -40.171
1545.7800, -40.164
1545.8000, -40.166
1545.8200, -40.165
1545.8400, -40.171
1545.8600, -40.166
1545.8800, -40.175
1545.9000, -40.174
1545.9200, -40.155
1545.9400, -40.153
1545.9600, -40.161
1545.9800, -40.167
1546.0000, -40.176
1546.0200, -40.172
1546.0400, -40.167
1546.0600, -40.161
1546.0800, -40.160
1546.1000, -40.151
1546.1200, -40.147
1546.1400, -40.150
1546.1600, -40.148
1546.1800, -40.150
1546.2000, -40.147
1546.2200, -40.155
1546.2400, -40.150
1546.2600, -40.160
1546.2800, -40.159
1546.3000, -40.158
1546.3200, -40.146
1546.3400, -40.143
1546.3600, -40.146
1546.3800, -40.145
1546.4000, -40.145
1546.4200, -40.153
1546.4400, -40.149
1546.4600, -40.165
1546.4800, -40.162
1546.5000, -40.166
1546.5200, -40.171
1546.5400, -40.171
1546.5600, -40.167
1546.5800, -40.174
1546.6000, -40.173
1546.6200, -40.167
1546.6400, -40.171
1546.6600, -40.171
1546.6800, -40.168
1546.7000, -40.175
1546.7200, -40.176
1546.7400, -40.175
1546.7600, -40.176
1546.7800, -40.175
1546.8000, -40.169
1546.8200, -40.165
1546.8400, -40.164
1546.8600, -40.166
1546.8800, -40.157
1546.9000, -40.161
1546.9200, -40.157
1546.9400, -40.161
1546.9600, -40.155
1546.9800, -40.151
1547.0000, -40.151
1547.0200, -40.149
1547.0400, -40.150
1547.0600, -40.144
1547.0800, -40.143
1547.1000, -40.140
1547.1200, -40.144
1547.1400, -40.145
1547.1600, -40.149
1547.1800, -40.152
1547.2000, -40.161
1547.2200, -40.158
1547.2400, -40.155
1547.2600, -40.166
1547.2800, -40.166
1547.3000, -40.161
1547.3200, -40.161
1547.3400, -40.165
1547.3600, -40.174
1547.3800, -40.173
1547.4000, -40.170
1547.4200, -40.179
1547.4400, -40.180
1547.4600, -40.178
1547.4800, -40.176
1547.5000, -40.180
1547.5200, -40.174
1547.5400, -40.181
1547.5600, -40.180
1547.5800, -40.181
1547.6000, -40.179
1547.6200, -40.176
1547.6400, -40.188
1547.6600, -40.196
1547.6800, -40.193
1547.7000, -40.194
1547.7200, -40.203
1547.7400, -40.206
1547.7600, -40.208
1547.7800, -40.203
1547.8000, -40.206
1547.8200, -40.206
1547.8400, -40.206
1547.8600, -40.210
1547.8800, -40.203
1547.9000, -40.201
1547.9200, -40.208
1547.9400, -40.216
1547.9600, -40.208
1547.9800, -40.210
1548.0000, -40.211
1548.0200, -40.218
1548.0400, -40.218
1548.0600, -40.222
1548.0800, -40.227
1548.1000, -40.223
1548.1200, -40.227
1548.1400, -40.212
1548.1600, -40.207
1548.1800, -40.211
1548.2000, -40.212
1548.2200, -40.212
1548.2400, -40.205
1548.2600, -40.222
1548.2800, -40.220
1548.3000, -40.216
1548.3200, -40.230
1548.3400, -40.232
1548.3600, -40.229
1548.3800, -40.233
1548.4000, -40.240
1548.4200, -40.238
1548.4400, -40.242
1548.4600, -40.243
1548.4800, -40.244
1548.5000, -40.247
1548.5200, -40.245
1548.5400, -40.251
1548.5600, -40.255
1548.5800, -40.256
1548.6000, -40.262
1548.6200, -40.263
1548.6400, -40.263
1548.6600, -40.265
1548.6800, -40.265
1548.7000, -40.266
1548.7200, -40.262
1548.7400, -40.265
1548.7600, -40.274
1548.7800, -40.280
1548.8000, -40.281
1548.8200, -40.276
1548.8400, -40.279
1548.8600, -40.279
1548.8800, -40.277
1548.9000, -40.285
1548.9200, -40.279
1548.9400, -40.286
1548.9600, -40.283
1548.9800, -40.290
1549.0000, -40.290
1549.0200, -40.294
1549.0400, -40.290
1549.0600, -40.290
1549.0800, -40.294
1549.1000, -40.291
1549.1200, -40.289
1549.1400, -40.291
1549.1600, -40.301
1549.1800, -40.307
1549.2000, -40.307
1549.2200, -40.315
1549.2400, -40.321
1549.2600, -40.316
1549.2800, -40.320
1549.3000, -40.328
1549.3200, -40.320
1549.3400, -40.318
1549.3600, -40.322
1549.3800, -40.319
1549.4000, -40.315
1549.4200, -40.325
1549.4400, -40.328
1549.4600, -40.332
1549.4800, -40.338
1549.5000, -40.344
1549.5200, -40.346
1549.5400, -40.351
1549.5600, -40.354
1549.5800, -40.356
1549.6000, -40.352
1549.6200, -40.352
1549.6400, -40.354
1549.6600, -40.360
1549.6800, -40.360
1549.7000, -40.361
1549.7200, -40.359
1549.7400, -40.367
1549.7600, -40.365
1549.7800, -40.367
1549.8000, -40.373
1549.8200, -40.379
1549.8400, -40.382
1549.8600, -40.385
1549.8800, -40.398
1549.9000, -40.392
1549.9200, -40.394
1549.9400, -40.388
1549.9600, -40.390
1549.9800, -40.388
1550.0000, -40.391
1550.0200, -40.392
1550.0400, -40.395
1550.0600, -40.402
1550.0800, -40.403
1550.1000, -40.408
1550.1200, -40.418
1550.1400, -40.421
1550.1600, -40.420
1550.1800, -40.413
1550.2000, -40.425
1550.2200, -40.426
1550.2400, -40.431
1550.2600, -40.436
1550.2800, -40.438
1550.3000, -40.438
1550.3200, -40.449
1550.3400, -40.455
1550.3600, -40.460
1550.3800, -40.464
1550.4000, -40.460
1550.4200, -40.466
1550.4400, -40.467
1550.4600, -40.469
1550.4800, -40.473
1550.5000, -40.468
1550.5200, -40.470
1550.5400, -40.471
1550.5600, -40.479
1550.5800, -40.481
1550.6000, -40.484
1550.6200, -40.477
1550.6400, -40.487
1550.6600, -40.486
1550.6800, -40.491
1550.7000, -40.496
1550.7200, -40.513
1550.7400, -40.504
1550.7600, -40.504
1550.7800, -40.512
1550.8000, -40.521
1550.8200, -40.530
1550.8400, -40.530
1550.8600, -40.528
1550.8800, -40.534
1550.9000, -40.536
1550.9200, -40.534
1550.9400, -40.536
1550.9600, -40.543
1550.9800, -40.540
1551.0000, -40.532
1551.0200, -40.547
1551.0400, -40.555
1551.0600, -40.560
1551.0800, -40.564
1551.1000, -40.566
1551.1200, -40.566
1551.1400, -40.570
1551.1600, -40.574
1551.1800, -40.569
1551.2000, -40.578
1551.2200, -40.583
1551.2400, -40.589
1551.2600, -40.595
1551.2800, -40.602
1551.3000, -40.605
1551.3200, -40.601
1551.3400, -40.607
1551.3600, -40.610
1551.3800, -40.614
1551.4000, -40.606
1551.4200, -40.608
1551.4400, -40.609
1551.4600, -40.616
1551.4800, -40.617
1551.5000, -40.618
1551.5200, -40.612
1551.5400, -40.617
1551.5600, -40.615
1551.5800, -40.619
1551.6000, -40.616
1551.6200, -40.620
1551.6400, -40.628
1551.6600, -40.631
1551.6800, -40.642
1551.7000, -40.645
1551.7200, -40.652
1551.7400, -40.652
1551.7600, -40.654
1551.7800, -40.656
1551.8000, -40.662
1551.8200, -40.668
1551.8400, -40.669
1551.8600, -40.674
1551.8800, -40.673
1551.9000, -40.669
1551.9200, -40.680
1551.9400, -40.688
1551.9600, -40.688
1551.9800, -40.689
1552.0000, -40.693
1552.0200, -40.695
1552.0400, -40.698
1552.0600, -40.698
1552.0800, -40.696
1552.1000, -40.705
1552.1200, -40.716
1552.1400, -40.719
1552.1600, -40.729
1552.1800, -40.736
1552.2000, -40.740
1552.2200, -40.737
1552.2400, -40.728
1552.2600, -40.730
1552.2800, -40.741
1552.3000, -40.748
1552.3200, -40.750
1552.3400, -40.752
1552.3600, -40.753
1552.3800, -40.755
1552.4000, -40.762
1552.4200, -40.752
1552.4400, -40.760
1552.4600, -40.754
1552.4800, -40.760
1552.5000, -40.767
1552.5200, -40.767
1552.5400, -40.764
1552.5600, -40.763
1552.5800, -40.767
1552.6000, -40.776
1552.6200, -40.786
1552.6400, -40.790
1552.6600, -40.792
1552.6800, -40.793
1552.7000, -40.803
1552.7200, -40.805
1552.7400, -40.808
1552.7600, -40.813
1552.7800, -40.810
1552.8000, -40.814
1552.8200, -40.826
1552.8400, -40.828
1552.8600, -40.825
1552.8800, -40.831
1552.9000, -40.835
1552.9200, -40.834
1552.9400, -40.833
1552.9600, -40.832
1552.9800, -40.837
1553.0000, -40.841
1553.0200, -40.845
1553.0400, -40.847
1553.0600, -40.847
1553.0800, -40.849
1553.1000, -40.855
1553.1200, -40.851
1553.1400, -40.845
1553.1600, -40.849
1553.1800, -40.856
1553.2000, -40.870
1553.2200, -40.866
1553.2400, -40.877
1553.2600, -40.883
1553.2800, -40.890
1553.3000, -40.892
1553.3200, -40.889
1553.3400, -40.892
1553.3600, -40.899
1553.3800, -40.895
1553.4000, -40.900
1553.4200, -40.892
1553.4400, -40.889
1553.4600, -40.891
1553.4800, -40.897
1553.5000, -40.900
1553.5200, -40.902
1553.5400, -40.901
1553.5600, -40.904
1553.5800, -40.910
1553.6000, -40.910
1553.6200, -40.911
1553.6400, -40.919
1553.6600, -40.924
1553.6800, -40.928
1553.7000, -40.922
1553.7200, -40.936
1553.7400, -40.939
1553.7600, -40.938
1553.7800, -40.945
1553.8000, -40.950
1553.8200, -40.949
1553.8400, -40.955
1553.8600, -40.950
1553.8800, -40.950
1553.9000, -40.954
1553.9200, -40.963
1553.9400, -40.962
1553.9600, -40.971
1553.9800, -40.968
1554.0000, -40.972
1554.0200, -40.964
1554.0400, -40.966
1554.0600, -40.977
1554.0800, -40.976
1554.1000, -40.980
1554.1200, -40.984
1554.1400, -40.997
1554.1600, -41.003
1554.1800, -41.006
1554.2000, -41.006
1554.2200, -41.008
1554.2400, -41.009
1554.2600, -41.012
1554.2800, -41.013
1554.3000, -41.017
1554.3200, -41.018
1554.3400, -41.009
1554.3600, -41.007
1554.3800, -41.014
1554.4000, -41.018
1554.4200, -41.018
1554.4400, -41.010
1554.4600, -41.014
1554.4800, -41.018
1554.5000, -41.014
1554.5200, -41.013
1554.5400, -41.019
1554.5600, -41.019
1554.5800, -41.025
1554.6000, -41.023
1554.6200, -41.032
1554.6400, -41.030
1554.6600, -41.032
1554.6800, -41.034
1554.7000, -41.044
1554.7200, -41.049
1554.7400, -41.047
1554.7600, -41.051
1554.7800, -41.049
1554.8000, -41.056
1554.8200, -41.059
1554.8400, -41.062
1554.8600, -41.067
1554.8800, -41.069
1554.9000, -41.067
1554.9200, -41.079
1554.9400, -41.079
1554.9600, -41.080
1554.9800, -41.069
1555.0000, -41.072
1555.0200, -41.080
1555.0400, -41.080
1555.0600, -41.089
1555.0800, -41.088
1555.1000, -41.083
1555.1200, -41.085
1555.1400, -41.085
1555.1600, -41.090
1555.1800, -41.094
1555.2000, -41.096
1555.2200, -41.094
1555.2400, -41.097
1555.2600, -41.097
1555.2800, -41.108
1555.3000, -41.119
1555.3200, -41.124
1555.3400, -41.114
1555.3600, -41.122
1555.3800, -41.122
1555.4000, -41.118
1555.4200, -41.117
1555.4400, -41.122
1555.4600, -41.121
1555.4800, -41.132
1555.5000, -41.137
1555.5200, -41.140
1555.5400, -41.135
1555.5600, -41.144
1555.5800, -41.144
1555.6000, -41.145
1555.6200, -41.155
1555.6400, -41.157
1555.6600, -41.156
1555.6800, -41.161
1555.7000, -41.167
1555.7200, -41.163
1555.7400, -41.166
1555.7600, -41.165
1555.7800, -41.167
1555.8000, -41.171
1555.8200, -41.175
1555.8400, -41.179
1555.8600, -41.177
1555.8800, -41.171
1555.9000, -41.177
1555.9200, -41.180
1555.9400, -41.180
1555.9600, -41.192
1555.9800, -41.195
1556.0000, -41.188
1556.0200, -41.189
1556.0400, -41.199
1556.0600, -41.208
1556.0800, -41.206
1556.1000, -41.204
1556.1200, -41.208
1556.1400, -41.217
1556.1600, -41.219
1556.1800, -41.225
1556.2000, -41.234
1556.2200, -41.232
1556.2400, -41.228
1556.2600, -41.235
1556.2800, -41.239
1556.3000, -41.231
1556.3200, -41.234
1556.3400, -41.241
1556.3600, -41.234
1556.3800, -41.244
1556.4000, -41.256
1556.4200, -41.259
1556.4400, -41.264
1556.4600, -41.262
1556.4800, -41.269
1556.5000, -41.263
1556.5200, -41.272
1556.5400, -41.272
1556.5600, -41.274
1556.5800, -41.273
1556.6000, -41.279
1556.6200, -41.280
1556.6400, -41.288
1556.6600, -41.288
1556.6800, -41.292
1556.7000, -41.302
1556.7200, -41.307
1556.7400, -41.309
1556.7600, -41.302
1556.7800, -41.304
1556.8000, -41.316
1556.8200, -41.320
1556.8400, -41.328
1556.8600, -41.331
1556.8800, -41.327
1556.9000, -41.329
1556.9200, -41.334
1556.9400, -41.340
1556.9600, -41.339
1556.9800, -41.338
1557.0000, -41.343
1557.0200, -41.352
1557.0400, -41.348
1557.0600, -41.352
1557.0800, -41.358
1557.1000, -41.360
1557.1200, -41.350
1557.1400, -41.352
1557.1600, -41.366
1557.1800, -41.365
1557.2000, -41.373
1557.2200, -41.371
1557.2400, -41.377
1557.2600, -41.382
1557.2800, -41.392
1557.3000, -41.398
1557.3200, -41.396
1557.3400, -41.401
1557.3600, -41.411
1557.3800, -41.409
1557.4000, -41.419
1557.4200, -41.428
1557.4400, -41.434
1557.4600, -41.438
1557.4800, -41.446
1557.5000, -41.449
1557.5200, -41.460
1557.5400, -41.463
1557.5600, -41.468
1557.5800, -41.467
1557.6000, -41.475
1557.6200, -41.480
1557.6400, -41.481
1557.6600, -41.476
1557.6800, -41.482
1557.7000, -41.495
1557.7200, -41.500
1557.7400, -41.512
1557.7600, -41.516
1557.7800, -41.508
1557.8000, -41.514
1557.8200, -41.525
1557.8400, -41.528
1557.8600, -41.527
1557.8800, -41.522
1557.9000, -41.530
1557.9200, -41.530
1557.9400, -41.533
1557.9600, -41.544
1557.9800, -41.556
1558.0000, -41.556
1558.0200, -41.553
1558.0400, -41.561
1558.0600, -41.570
1558.0800, -41.572
1558.1000, -41.587
1558.1200, -41.589
1558.1400, -41.599
1558.1600, -41.610
1558.1800, -41.614
1558.2000, -41.620
1558.2200, -41.616
1558.2400, -41.620
1558.2600, -41.634
1558.2800, -41.635
1558.3000, -41.645
1558.3200, -41.652
1558.3400, -41.650
1558.3600, -41.657
1558.3800, -41.668
1558.4000, -41.674
1558.4200, -41.685
1558.4400, -41.690
1558.4600, -41.691
1558.4800, -41.694
1558.5000, -41.697
1558.5200, -41.702
1558.5400, -41.707
1558.5600, -41.707
1558.5800, -41.714
1558.6000, -41.719
1558.6200, -41.730
1558.6400, -41.740
1558.6600, -41.742
1558.6800, -41.742
1558.7000, -41.750
1558.7200, -41.766
1558.7400, -41.764
1558.7600, -41.768
1558.7800, -41.776
1558.8000, -41.786
1558.8200, -41.789
1558.8400, -41.804
1558.8600, -41.810
1558.8800, -41.820
1558.9000, -41.815
1558.9200, -41.824
1558.9400, -41.842
1558.9600, -41.845
1558.9800, -41.857
1559.0000, -41.861
1559.0200, -41.877
1559.0400, -41.886
1559.0600, -41.897
1559.0800, -41.905
1559.1000, -41.910
1559.1200, -41.913
1559.1400, -41.926
1559.1600, -41.934
1559.1800, -41.947
1559.2000, -41.961
1559.2200, -41.966
1559.2400, -41.973
1559.2600, -41.982
1559.2800, -41.987
1559.3000, -41.997
1559.3200, -42.008
1559.3400, -42.009
1559.3600, -42.018
1559.3800, -42.029
1559.4000, -42.034
1559.4200, -42.040
1559.4400, -42.039
1559.4600, -42.052
1559.4800, -42.063
1559.5000, -42.074
1559.5200, -42.090
1559.5400, -42.098
1559.5600, -42.100
1559.5800, -42.106
1559.6000, -42.123
1559.6200, -42.128
1559.6400, -42.134
1559.6600, -42.139
1559.6800, -42.149
1559.7000, -42.160
1559.7200, -42.170
1559.7400, -42.183
1559.7600, -42.194
1559.7800, -42.199
1559.8000, -42.204
1559.8200, -42.215
1559.8400, -42.223
1559.8600, -42.225
1559.8800, -42.233
1559.9000, -42.247
1559.9200, -42.258
1559.9400, -42.270
1559.9600, -42.282
1559.9800, -42.287
1560.0000, -42.300
1560.0200, -42.313
1560.0400, -42.323
1560.0600, -42.329
1560.0800, -42.346
1560.1000, -42.357
1560.1200, -42.359
1560.1400, -42.374
1560.1600, -42.384
1560.1800, -42.391
1560.2000, -42.407
1560.2200, -42.417
1560.2400, -42.427
1560.2600, -42.443
1560.2800, -42.457
1560.3000, -42.469
1560.3200, -42.470
1560.3400, -42.478
1560.3600, -42.498
1560.3800, -42.499
1560.4000, -42.518
1560.4200, -42.528
1560.4400, -42.529
1560.4600, -42.540
1560.4800, -42.558
1560.5000, -42.573
1560.5200, -42.580
1560.5400, -42.594
1560.5600, -42.605
1560.5800, -42.620
1560.6000, -42.629
1560.6200, -42.645
1560.6400, -42.665
1560.6600, -42.673
1560.6800, -42.678
1560.7000, -42.694
1560.7200, -42.713
1560.7400, -42.717
1560.7600, -42.728
1560.7800, -42.738
1560.8000, -42.757
1560.8200, -42.765
1560.8400, -42.778
1560.8600, -42.788
1560.8800, -42.796
1560.9000, -42.807
1560.9200, -42.823
1560.9400, -42.828
1560.9600, -42.851
1560.9800, -42.862
1561.0000, -42.872
1561.0200, -42.882
1561.0400, -42.901
1561.0600, -42.910
1561.0800, -42.927
1561.1000, -42.934
1561.1200, -42.945
1561.1400, -42.961
1561.1600, -42.978
1561.1800, -42.989
1561.2000, -42.996
1561.2200, -43.000
1561.2400, -43.015
1561.2600, -43.034
1561.2800, -43.049
1561.3000, -43.066
1561.3200, -43.072
1561.3400, -43.081
1561.3600, -43.098
1561.3800, -43.121
1561.4000, -43.132
1561.4200, -43.145
1561.4400, -43.160
1561.4600, -43.181
1561.4800, -43.188
1561.5000, -43.203
1561.5200, -43.225
1561.5400, -43.245
1561.5600, -43.248
1561.5800, -43.261
1561.6000, -43.283
1561.6200, -43.291
1561.6400, -43.304
1561.6600, -43.319
1561.6800, -43.342
1561.7000, -43.359
1561.7200, -43.377
1561.7400, -43.395
1561.7600, -43.404
1561.7800, -43.423
1561.8000, -43.438
1561.8200, -43.451
1561.8400, -43.462
1561.8600, -43.480
1561.8800, -43.487
1561.9000, -43.500
1561.9200, -43.520
1561.9400, -43.530
1561.9600, -43.551
1561.9800, -43.567
1562.0000, -43.575
1562.0200, -43.594
1562.0400, -43.609
1562.0600, -43.625
1562.0800, -43.642
1562.1000, -43.657
1562.1200, -43.666
1562.1400, -43.689
1562.1600, -43.701
1562.1800, -43.724
1562.2000, -43.736
1562.2200, -43.746
1562.2400, -43.763
1562.2600, -43.788
1562.2800, -43.799
1562.3000, -43.810
1562.3200, -43.826
1562.3400, -43.846
1562.3600, -43.861
1562.3800, -43.876
1562.4000, -43.902
1562.4200, -43.923
1562.4400, -43.926
1562.4600, -43.941
1562.4800, -43.959
1562.5000, -43.973
1562.5200, -43.985
1562.5400, -44.004
1562.5600, -44.024
1562.5800, -44.036
1562.6000, -44.052
1562.6200, -44.077
1562.6400, -44.095
1562.6600, -44.106
1562.6800, -44.122
1562.7000, -44.139
1562.7200, -44.151
1562.7400, -44.172
1562.7600, -44.184
1562.7800, -44.203
1562.8000, -44.219
1562.8200, -44.231
1562.8400, -44.252
1562.8600, -44.275
1562.8800, -44.285
1562.9000, -44.300
1562.9200, -44.324
1562.9400, -44.343
1562.9600, -44.357
1562.9800, -44.362
1563.0000, -44.386
1563.0200, -44.404
1563.0400, -44.423
1563.0600, -44.452
1563.0800, -44.467
1563.1000, -44.472
1563.1200, -44.494
1563.1400, -44.517
1563.1600, -44.533
1563.1800, -44.549
1563.2000, -44.564
1563.2200, -44.585
1563.2400, -44.598
1563.2600, -44.612
1563.2800, -44.629
1563.3000, -44.657
1563.3200, -44.669
1563.3400, -44.680
1563.3600, -44.701
1563.3800, -44.719
1563.4000, -44.734
1563.4200, -44.756
1563.4400, -44.771
1563.4600, -44.797
1563.4800, -44.813
1563.5000, -44.836
1563.5200, -44.852
1563.5400, -44.871
1563.5600, -44.883
1563.5800, -44.905
1563.6000, -44.921
1563.6200, -44.946
1563.6400, -44.960
1563.6600, -44.973
1563.6800, -44.994
1563.7000, -45.019
1563.7200, -45.037
1563.7400, -45.051
1563.7600, -45.076
1563.7800, -45.089
1563.8000, -45.111
1563.8200, -45.129
1563.8400, -45.147
1563.8600, -45.155
1563.8800, -45.177
1563.9000, -45.196
1563.9200, -45.220
1563.9400, -45.242
1563.9600, -45.263
1563.9800, -45.275
1564.0000, -45.289
1564.0200, -45.313
1564.0400, -45.331
1564.0600, -45.345
1564.0800, -45.361
1564.1000, -45.384
1564.1200, -45.398
1564.1400, -45.413
1564.1600, -45.433
1564.1800, -45.458
1564.2000, -45.473
1564.2200, -45.486
1564.2400, -45.508
1564.2600, -45.530
1564.2800, -45.543
1564.3000, -45.561
1564.3200, -45.579
1564.3400, -45.600
1564.3600, -45.627
1564.3800, -45.647
1564.4000, -45.669
1564.4200, -45.682
1564.4400, -45.702
1564.4600, -45.721
1564.4800, -45.743
1564.5000, -45.764
1564.5200, -45.786
1564.5400, -45.804
1564.5600, -45.825
1564.5800, -45.843
1564.6000, -45.864
1564.6200, -45.882
1564.6400, -45.902
1564.6600, -45.918
1564.6800, -45.945
1564.7000, -45.961
1564.7200, -45.981
1564.7400, -45.990
1564.7600, -46.009
1564.7800, -46.033
1564.8000, -46.052
1564.8200, -46.078
1564.8400, -46.095
1564.8600, -46.109
1564.8800, -46.126
1564.9000, -46.147
1564.9200, -46.168
1564.9400, -46.183
1564.9600, -46.204
1564.9800, -46.227
1565.0000, -46.247
1565.0200, -46.263
1565.0400, -46.281
1565.0600, -46.311
1565.0800, -46.327
1565.1000, -46.342
1565.1200, -46.362
1565.1400, -46.381
1565.1600, -46.402
1565.1800, -46.421
1565.2000, -46.444
1565.2200, -46.466
1565.2400, -46.487
1565.2600, -46.510
1565.2800, -46.530
1565.3000, -46.540
1565.3200, -46.568
1565.3400, -46.592
1565.3600, -46.605
1565.3800, -46.631
1565.4000, -46.647
1565.4200, -46.669
1565.4400, -46.687
1565.4600, -46.714
1565.4800, -46.733
1565.5000, -46.755
1565.5200, -46.774
1565.5400, -46.788
1565.5600, -46.813
1565.5800, -46.832
1565.6000, -46.852
1565.6200, -46.862
1565.6400, -46.883
1565.6600, -46.907
1565.6800, -46.925
1565.7000, -46.950
1565.7200, -46.969
1565.7400, -46.982
1565.7600, -47.006
1565.7800, -47.027
1565.8000, -47.047
1565.8200, -47.061
1565.8400, -47.079
1565.8600, -47.110
1565.8800, -47.124
1565.9000, -47.140
1565.9200, -47.168
1565.9400, -47.191
1565.9600, -47.207
1565.9800, -47.221
1566.0000, -47.242
1566.0200, -47.265
1566.0400, -47.284
1566.0600, -47.301
1566.0800, -47.320
1566.1000, -47.341
1566.1200, -47.366
1566.1400, -47.393
1566.1600, -47.410
1566.1800, -47.420
1566.2000, -47.446
1566.2200, -47.468
1566.2400, -47.485
1566.2600, -47.512
1566.2800, -47.531
1566.3000, -47.547
1566.3200, -47.565
1566.3400, -47.591
1566.3600, -47.607
1566.3800, -47.631
1566.4000, -47.650
1566.4200, -47.664
1566.4400, -47.691
1566.4600, -47.711
1566.4800, -47.729
1566.5000, -47.741
1566.5200, -47.764
1566.5400, -47.788
1566.5600, -47.804
1566.5800, -47.834
1566.6000, -47.852
1566.6200, -47.863
1566.6400, -47.879
1566.6600, -47.905
1566.6800, -47.927
1566.7000, -47.941
1566.7200, -47.961
1566.7400, -47.982
1566.7600, -48.002
1566.7800, -48.016
1566.8000, -48.043
1566.8200, -48.069
1566.8400, -48.085
1566.8600, -48.100
1566.8800, -48.127
1566.9000, -48.142
1566.9200, -48.155
1566.9400, -48.171
1566.9600, -48.196
1566.9800, -48.221
1567.0000, -48.245
1567.0200, -48.270
1567.0400, -48.285
1567.0600, -48.303
1567.0800, -48.324
1567.1000, -48.352
1567.1200, -48.368
1567.1400, -48.394
1567.1600, -48.405
1567.1800, -48.427
1567.2000, -48.446
1567.2200, -48.467
1567.2400, -48.491
1567.2600, -48.515
1567.2800, -48.529
1567.3000, -48.548
1567.3200, -48.571
1567.3400, -48.594
1567.3600, -48.610
1567.3800, -48.621
1567.4000, -48.640
1567.4200, -48.671
1567.4400, -48.689
1567.4600, -48.710
1567.4800, -48.732
1567.5000, -48.747
1567.5200, -48.762
1567.5400, -48.787
1567.5600, -48.811
1567.5800, -48.822
1567.6000, -48.845
1567.6200, -48.865
1567.6400, -48.884
1567.6600, -48.907
1567.6800, -48.931
1567.7000, -48.956
1567.7200, -48.969
1567.7400, -48.985
1567.7600, -49.009
1567.7800, -49.029
1567.8000, -49.043
1567.8200, -49.061
1567.8400, -49.079
1567.8600, -49.105
1567.8800, -49.128
1567.9000, -49.158
1567.9200, -49.166
1567.9400, -49.181
1567.9600, -49.208
1567.9800, -49.231
1568.0000, -49.248
1568.0200, -49.269
1568.0400, -49.283
1568.0600, -49.296
1568.0800, -49.326
1568.1000, -49.343
1568.1200, -49.365
1568.1400, -49.388
1568.1600, -49.401
1568.1800, -49.426
1568.2000, -49.446
1568.2200, -49.464
1568.2400, -49.481
1568.2600, -49.494
1568.2800, -49.519
1568.3000, -49.543
1568.3200, -49.562
1568.3400, -49.589
1568.3600, -49.602
1568.3800, -49.618
1568.4000, -49.641
1568.4200, -49.663
1568.4400, -49.680
1568.4600, -49.694
1568.4800, -49.716
1568.5000, -49.738
1568.5200, -49.754
1568.5400, -49.778
1568.5600, -49.795
1568.5800, -49.820
1568.6000, -49.835
1568.6200, -49.856
1568.6400, -49.879
1568.6600, -49.896
1568.6800, -49.915
1568.7000, -49.931
1568.7200, -49.956
1568.7400, -49.974
1568.7600, -49.986
1568.7800, -50.018
1568.8000, -50.036
1568.8200, -50.056
1568.8400, -50.078
1568.8600, -50.098
1568.8800, -50.114
1568.9000, -50.137
1568.9200, -50.151
1568.9400, -50.172
1568.9600, -50.192
1568.9800, -50.215
1569.0000, -50.234
1569.0200, -50.253
1569.0400, -50.269
1569.0600, -50.292
1569.0800, -50.313
1569.1000, -50.331
1569.1200, -50.346
1569.1400, -50.361
1569.1600, -50.383
1569.1800, -50.409
1569.2000, -50.432
1569.2200, -50.452
1569.2400, -50.464
1569.2600, -50.479
1569.2800, -50.504
1569.3000, -50.524
1569.3200, -50.536
1569.3400, -50.557
1569.3600, -50.584
1569.3800, -50.598
1569.4000, -50.613
1569.4200, -50.633
1569.4400, -50.661
1569.4600, -50.676
1569.4800, -50.689
1569.5000, -50.709
1569.5200, -50.731
1569.5400, -50.743
1569.5600, -50.761
1569.5800, -50.785
1569.6000, -50.810
1569.6200, -50.822
1569.6400, -50.851
1569.6600, -50.866
1569.6800, -50.879
1569.7000, -50.901
1569.7200, -50.925
1569.7400, -50.942
1569.7600, -50.967
1569.7800, -50.983
1569.8000, -51.000
1569.8200, -51.018
1569.8400, -51.038
1569.8600, -51.054
1569.8800, -51.074
1569.9000, -51.096
1569.9200, -51.114
1569.9400, -51.132
1569.9600, -51.150
1569.9800, -51.170
1570.0000, -51.190
1570.0200, -51.198
1570.0400, -51.226
1570.0600, -51.242
1570.0800, -51.265
1570.1000, -51.281
1570.1200, -51.291
1570.1400, -51.316
1570.1600, -51.331
1570.1800, -51.357
1570.2000, -51.369
1570.2200, -51.390
1570.2400, -51.408
1570.2600, -51.425
1570.2800, -51.446
1570.3000, -51.466
1570.3200, -51.488
1570.3400, -51.504
1570.3600, -51.514
1570.3800, -51.545
1570.4000, -51.560
1570.4200, -51.573
1570.4400, -51.592
1570.4600, -51.615
1570.4800, -51.638
1570.5000, -51.657
1570.5200, -51.673
1570.5400, -51.693
1570.5600, -51.707
1570.5800, -51.729
1570.6000, -51.747
1570.6200, -51.763
1570.6400, -51.781
1570.6600, -51.801
1570.6800, -51.823
1570.7000, -51.842
1570.7200, -51.856
1570.7400, -51.879
1570.7600, -51.900
1570.7800, -51.917
1570.8000, -51.937
1570.8200, -51.957
1570.8400, -51.978
1570.8600, -51.991
1570.8800, -51.997
1570.9000, -52.019
1570.9200, -52.040
1570.9400, -52.060
1570.9600, -52.086
1570.9800, -52.098
1571.0000, -52.112
1571.0200, -52.127
1571.0400, -52.151
1571.0600, -52.170
1571.0800, -52.185
1571.1000, -52.200
1571.1200, -52.212
1571.1400, -52.239
1571.1600, -52.250
1571.1800, -52.275
1571.2000, -52.295
1571.2200, -52.303
1571.2400, -52.325
1571.2600, -52.346
1571.2800, -52.363
1571.3000, -52.378
1571.3200, -52.396
1571.3400, -52.420
1571.3600, -52.439
1571.3800, -52.460
1571.4000, -52.478
1571.4200, -52.492
1571.4400, -52.510
1571.4600, -52.532
1571.4800, -52.546
1571.5000, -52.567
1571.5200, -52.579
1571.5400, -52.604
1571.5600, -52.625
1571.5800, -52.641
1571.6000, -52.657
1571.6200, -52.675
1571.6400, -52.692
1571.6600, -52.710
1571.6800, -52.724
1571.7000, -52.748
1571.7200, -52.763
1571.7400, -52.770
1571.7600, -52.793
1571.7800, -52.811
1571.8000, -52.828
1571.8200, -52.853
1571.8400, -52.865
1571.8600, -52.881
1571.8800, -52.892
1571.9000, -52.918
1571.9200, -52.937
1571.9400, -52.948
1571.9600, -52.969
1571.9800, -52.980
1572.0000, -53.004
1572.0200, -53.014
1572.0400, -53.037
1572.0600, -53.064
1572.0800, -53.075
1572.1000, -53.088
1572.1200, -53.101
1572.1400, -53.127
1572.1600, -53.135
1572.1800, -53.151
1572.2000, -53.174
1572.2200, -53.189
1572.2400, -53.208
1572.2600, -53.233
1572.2800, -53.252
1572.3000, -53.262
1572.3200, -53.288
1572.3400, -53.296
1572.3600, -53.317
1572.3800, -53.326
1572.4000, -53.342
1572.4200, -53.362
1572.4400, -53.385
1572.4600, -53.398
1572.4800, -53.413
1572.5000, -53.442
1572.5200, -53.449
1572.5400, -53.468
1572.5600, -53.483
1572.5800, -53.501
1572.6000, -53.516
1572.6200, -53.523
1572.6400, -53.547
1572.6600, -53.560
1572.6800, -53.572
1572.7000, -53.594
1572.7200, -53.607
1572.7400, -53.620
1572.7600, -53.637
1572.7800, -53.659
1572.8000, -53.674
1572.8200, -53.685
1572.8400, -53.705
1572.8600, -53.722
1572.8800, -53.738
1572.9000, -53.749
1572.9200, -53.781
1572.9400, -53.790
1572.9600, -53.805
1572.9800, -53.822
1573.0000, -53.839
1573.0200, -53.859
1573.0400, -53.871
1573.0600, -53.881
1573.0800, -53.903
1573.1000, -53.916
1573.1200, -53.944
1573.1400, -53.956
1573.1600, -53.960
1573.1800, -53.985
1573.2000, -54.008
1573.2200, -54.017
1573.2400, -54.032
1573.2600, -54.047
1573.2800, -54.065
1573.3000, -54.081
1573.3200, -54.095
1573.3400, -54.112
1573.3600, -54.134
1573.3800, -54.136
1573.4000, -54.163
1573.4200, -54.176
1573.4400, -54.193
1573.4600, -54.209
1573.4800, -54.213
1573.5000, -54.236
1573.5200, -54.250
1573.5400, -54.261
1573.5600, -54.278
1573.5800, -54.297
1573.6000, -54.308
1573.6200, -54.330
1573.6400, -54.351
1573.6600, -54.365
1573.6800, -54.377
1573.7000, -54.386
1573.7200, -54.409
1573.7400, -54.417
1573.7600, -54.438
1573.7800, -54.453
1573.8000, -54.475
1573.8200, -54.486
1573.8400, -54.492
1573.8600, -54.511
1573.8800, -54.525
1573.9000, -54.539
1573.9200, -54.555
1573.9400, -54.573
1573.9600, -54.590
1573.9800, -54.599
1574.0000, -54.617
1574.0200, -54.635
1574.0400, -54.644
1574.0600, -54.661
1574.0800, -54.674
1574.1000, -54.696
1574.1200, -54.716
1574.1400, -54.728
1574.1600, -54.726
1574.1800, -54.756
1574.2000, -54.772
1574.2200, -54.786
1574.2400, -54.800
1574.2600, -54.810
1574.2800, -54.833
1574.3000, -54.846
1574.3200, -54.860
1574.3400, -54.870
1574.3600, -54.884
1574.3800, -54.896
1574.4000, -54.914
1574.4200, -54.942
1574.4400, -54.947
1574.4600, -54.960
1574.4800, -54.966
1574.5000, -54.992
1574.5200, -54.996
1574.5400, -55.015
1574.5600, -55.030
1574.5800, -55.052
1574.6000, -55.055
1574.6200, -55.078
1574.6400, -55.080
1574.6600, -55.110
1574.6800, -55.115
1574.7000, -55.146
1574.7200, -55.137
1574.7400, -55.163
1574.7600, -55.175
1574.7800, -55.184
1574.8000, -55.199
1574.8200, -55.215
1574.8400, -55.238
1574.8600, -55.258
1574.8800, -55.261
1574.9000, -55.277
1574.9200, -55.287
1574.9400, -55.303
1574.9600, -55.324
1574.9800, -55.341
1575.0000, -55.355
1575.0200, -55.354
1575.0400, -55.382
1575.0600, -55.383
1575.0800, -55.409
1575.1000, -55.425
1575.1200, -55.432
1575.1400, -55.451
1575.1600, -55.454
1575.1800, -55.479
1575.2000, -55.490
1575.2200, -55.510
1575.2400, -55.507
1575.2600, -55.524
1575.2800, -55.559
1575.3000, -55.557
1575.3200, -55.570
1575.3400, -55.574
1575.3600, -55.596
1575.3800, -55.608
1575.4000, -55.627
1575.4200, -55.639
1575.4400, -55.640
1575.4600, -55.669
1575.4800, -55.673
1575.5000, -55.688
1575.5200, -55.709
1575.5400, -55.733
1575.5600, -55.719
1575.5800, -55.747
1575.6000, -55.757
1575.6200, -55.774
1575.6400, -55.780
1575.6600, -55.799
1575.6800, -55.804
1575.7000, -55.822
1575.7200, -55.841
1575.7400, -55.854
1575.7600, -55.860
1575.7800, -55.875
1575.8000, -55.906
1575.8200, -55.898
1575.8400, -55.917
1575.8600, -55.932
1575.8800, -55.936
1575.9000, -55.959
1575.9200, -55.974
1575.9400, -55.981
1575.9600, -55.999
1575.9800, -56.006
1576.0000, -56.024
1576.0200, -56.031
1576.0400, -56.058
1576.0600, -56.059
1576.0800, -56.087
1576.1000, -56.072
1576.1200, -56.095
1576.1400, -56.096
1576.1600, -56.141
1576.1800, -56.140
1576.2000, -56.147
1576.2200, -56.148
1576.2400, -56.162
1576.2600, -56.191
1576.2800, -56.203
1576.3000, -56.209
1576.3200, -56.213
1576.3400, -56.235
1576.3600, -56.249
1576.3800, -56.253
1576.4000, -56.270
1576.4200, -56.272
1576.4400, -56.290
1576.4600, -56.301
1576.4800, -56.309
1576.5000, -56.321
1576.5200, -56.334
1576.5400, -56.345
1576.5600, -56.368
1576.5800, -56.367
1576.6000, -56.390
1576.6200, -56.396
1576.6400, -56.417
1576.6600, -56.426
1576.6800, -56.429
1576.7000, -56.450
1576.7200, -56.465
1576.7400, -56.471
1576.7600, -56.475
1576.7800, -56.503
1576.8000, -56.509
1576.8200, -56.525
1576.8400, -56.534
1576.8600, -56.539
1576.8800, -56.570
1576.9000, -56.574
1576.9200, -56.576
1576.9400, -56.593
1576.9600, -56.590
1576.9800, -56.611
1577.0000, -56.631
1577.0200, -56.641
1577.0400, -56.645
1577.0600, -56.647
1577.0800, -56.659
1577.1000, -56.681
1577.1200, -56.684
1577.1400, -56.697
1577.1600, -56.710
1577.1800, -56.719
1577.2000, -56.732
1577.2200, -56.735
1577.2400, -56.762
1577.2600, -56.772
1577.2800, -56.775
1577.3000, -56.786
1577.3200, -56.804
1577.3400, -56.809
1577.3600, -56.818
1577.3800, -56.843
1577.4000, -56.838
1577.4200, -56.867
1577.4400, -56.880
1577.4600, -56.887
1577.4800, -56.889
1577.5000, -56.913
1577.5200, -56.914
1577.5400, -56.920
1577.5600, -56.941
1577.5800, -56.963
1577.6000, -56.962
1577.6200, -56.974
1577.6400, -56.987
1577.6600, -57.006
1577.6800, -57.015
1577.7000, -57.029
1577.7200, -57.015
1577.7400, -57.035
1577.7600, -57.059
1577.7800, -57.066
1577.8000, -57.084
1577.8200, -57.076
1577.8400, -57.074
1577.8600, -57.109
1577.8800, -57.111
1577.9000, -57.124
1577.9200, -57.133
1577.9400, -57.134
1577.9600, -57.157
1577.9800, -57.154
1578.0000, -57.182
1578.0200, -57.184
1578.0400, -57.196
1578.0600, -57.207
1578.0800, -57.222
1578.1000, -57.222
1578.1200, -57.241
1578.1400, -57.255
1578.1600, -57.265
1578.1800, -57.275
1578.2000, -57.279
1578.2200, -57.291
1578.2400, -57.298
1578.2600, -57.313
1578.2800, -57.312
1578.3000, -57.345
1578.3200, -57.347
1578.3400, -57.361
1578.3600, -57.372
1578.3800, -57.377
1578.4000, -57.394
1578.4200, -57.394
1578.4400, -57.416
1578.4600, -57.412
1578.4800, -57.424
1578.5000, -57.440
1578.5200, -57.441
1578.5400, -57.465
1578.5600, -57.470
1578.5800, -57.487
1578.6000, -57.491
1578.6200, -57.497
1578.6400, -57.512
1578.6600, -57.521
1578.6800, -57.518
1578.7000, -57.527
1578.7200, -57.548
1578.7400, -57.559
1578.7600, -57.564
1578.7800, -57.573
1578.8000, -57.579
1578.8200, -57.594
1578.8400, -57.609
1578.8600, -57.610
1578.8800, -57.616
1578.9000, -57.638
1578.9200, -57.646
1578.9400, -57.656
1578.9600, -57.665
1578.9800, -57.686
1579.0000, -57.693
1579.0200, -57.685
1579.0400, -57.704
1579.0600, -57.699
1579.0800, -57.725
1579.1000, -57.736
1579.1200, -57.737
1579.1400, -57.752
1579.1600, -57.752
1579.1800, -57.763
1579.2000, -57.765
1579.2200, -57.786
1579.2400, -57.803
1579.2600, -57.805
1579.2800, -57.827
1579.3000, -57.815
1579.3200, -57.839
1579.3400, -57.844
1579.3600, -57.864
1579.3800, -57.869
1579.4000, -57.884
1579.4200, -57.889
1579.4400, -57.912
1579.4600, -57.907
1579.4800, -57.919
1579.5000, -57.935
1579.5200, -57.930
1579.5400, -57.933
1579.5600, -57.945
1579.5800, -57.959
1579.6000, -57.977
1579.6200, -57.981
1579.6400, -57.987
1579.6600, -57.993
1579.6800, -58.002
1579.7000, -58.012
1579.7200, -58.023
1579.7400, -58.039
1579.7600, -58.033
1579.7800, -58.058
1579.8000, -58.059
1579.8200, -58.084
1579.8400, -58.073
1579.8600, -58.091
1579.8800, -58.099
1579.9000, -58.091
1579.9200, -58.114
1579.9400, -58.123
1579.9600, -58.129
1579.9800, -58.146
1580.0000, -58.150
1580.0200, -58.157
1580.0400, -58.162
1580.0600, -58.184
1580.0800, -58.173
1580.1000, -58.207
1580.1200, -58.196
1580.1400, -58.199
1580.1600, -58.223
1580.1800, -58.215
1580.2000, -58.248
1580.2200, -58.243
1580.2400, -58.249
1580.2600, -58.253
1580.2800, -58.265
1580.3000, -58.269
1580.3200, -58.283
1580.3400, -58.296
1580.3600, -58.310
1580.3800, -58.305
1580.4000, -58.309
1580.4200, -58.327
1580.4400, -58.322
1580.4600, -58.341
1580.4800, -58.356
1580.5000, -58.360
1580.5200, -58.361
1580.5400, -58.377
1580.5600, -58.382
1580.5800, -58.381
1580.6000, -58.391
1580.6200, -58.420
1580.6400, -58.418
1580.6600, -58.426
1580.6800, -58.446
1580.7000, -58.453
1580.7200, -58.440
1580.7400, -58.446
1580.7600, -58.463
1580.7800, -58.466
1580.8000, -58.488
1580.8200, -58.488
1580.8400, -58.502
1580.8600, -58.489
1580.8800, -58.508
1580.9000, -58.531
1580.9200, -58.520
1580.9400, -58.541
1580.9600, -58.538
1580.9800, -58.559
1581.0000, -58.557
1581.0200, -58.569
1581.0400, -58.591
1581.0600, -58.580
1581.0800, -58.604
1581.1000, -58.597
1581.1200, -58.612
1581.1400, -58.617
1581.1600, -58.621
1581.1800, -58.643
1581.2000, -58.651
1581.2200, -58.628
1581.2400, -58.667
1581.2600, -58.639
1581.2800, -58.694
1581.3000, -58.671
1581.3200, -58.677
1581.3400, -58.685
1581.3600, -58.696
1581.3800, -58.712
1581.4000, -58.730
1581.4200, -58.722
1581.4400, -58.716
1581.4600, -58.743
1581.4800, -58.722
1581.5000, -58.763
1581.5200, -58.737
1581.5400, -58.760
1581.5600, -58.791
1581.5800, -58.777
1581.6000, -58.799
1581.6200, -58.783
1581.6400, -58.797
1581.6600, -58.809
1581.6800, -58.841
1581.7000, -58.817
1581.7200, -58.829
1581.7400, -58.852
1581.7600, -58.858
1581.7800, -58.841
1581.8000, -58.858
1581.8200, -58.874
1581.8400, -58.880
1581.8600, -58.882
1581.8800, -58.888
1581.9000, -58.895
1581.9200, -58.916
1581.9400, -58.922
1581.9600, -58.923
1581.9800, -58.909
1582.0000, -58.930
1582.0200, -58.950
1582.0400, -58.953
1582.0600, -58.967
1582.0800, -58.971
1582.1000, -58.979
1582.1200, -58.974
1582.1400, -58.988
1582.1600, -59.002
1582.1800, -59.016
1582.2000, -59.016
1582.2200, -59.004
1582.2400, -59.014
1582.2600, -59.021
1582.2800, -59.051
1582.3000, -59.034
1582.3200, -59.067
1582.3400, -59.046
1582.3600, -59.075
1582.3800, -59.067
1582.4000, -59.063
1582.4200, -59.099
1582.4400, -59.083
1582.4600, -59.108
1582.4800, -59.107
1582.5000, -59.103
1582.5200, -59.114
1582.5400, -59.120
1582.5600, -59.157
1582.5800, -59.125
1582.6000, -59.158
1582.6200, -59.153
1582.6400, -59.157
1582.6600, -59.171
1582.6800, -59.169
1582.7000, -59.183
1582.7200, -59.193
1582.7400, -59.210
1582.7600, -59.188
1582.7800, -59.209
1582.8000, -59.220
1582.8200, -59.233
1582.8400, -59.222
1582.8600, -59.236
1582.8800, -59.267
1582.9000, -59.250
1582.9200, -59.243
1582.9400, -59.282
1582.9600, -59.271
1582.9800, -59.261
1583.0000, -59.300
1583.0200, -59.289
1583.0400, -59.301
1583.0600, -59.315
1583.0800, -59.287
1583.1000, -59.301
1583.1200, -59.318
1583.1400, -59.306
1583.1600, -59.349
1583.1800, -59.349
1583.2000, -59.347
1583.2200, -59.367
1583.2400, -59.360
1583.2600, -59.397
1583.2800, -59.375
1583.3000, -59.396
1583.3200, -59.392
1583.3400, -59.388
1583.3600, -59.394
1583.3800, -59.401
1583.4000, -59.410
1583.4200, -59.432
1583.4400, -59.421
1583.4600, -59.444
1583.4800, -59.456
1583.5000, -59.448
1583.5200, -59.454
1583.5400, -59.493
1583.5600, -59.479
1583.5800, -59.468
1583.6000, -59.489
1583.6200, -59.493
1583.6400, -59.483
1583.6600, -59.508
1583.6800, -59.519
1583.7000, -59.512
1583.7200, -59.504
1583.7400, -59.518
1583.7600, -59.548
1583.7800, -59.552
1583.8000, -59.535
1583.8200, -59.543
1583.8400, -59.556
1583.8600, -59.581
1583.8800, -59.556
1583.9000, -59.593
1583.9200, -59.576
1583.9400, -59.598
1583.9600, -59.594
1583.9800, -59.616
1584.0000, -59.613
1584.0200, -59.591
1584.0400, -59.629
1584.0600, -59.610
1584.0800, -59.624
1584.1000, -59.672
1584.1200, -59.631
1584.1400, -59.646
1584.1600, -59.653
1584.1800, -59.637
1584.2000, -59.688
1584.2200, -59.664
1584.2400, -59.672
1584.2600, -59.690
1584.2800, -59.684
1584.3000, -59.697
1584.3200, -59.696
1584.3400, -59.698
1584.3600, -59.725
1584.3800, -59.709
1584.4000, -59.732
1584.4200, -59.725
1584.4400, -59.734
1584.4600, -59.733
1584.4800, -59.763
1584.5000, -59.745
1584.5200, -59.757
1584.5400, -59.779
1584.5600, -59.747
1584.5800, -59.774
1584.6000, -59.777
1584.6200, -59.798
1584.6400, -59.807
1584.6600, -59.787
1584.6800, -59.806
1584.7000, -59.835
1584.7200, -59.821
1584.7400, -59.833
1584.7600, -59.818
1584.7800, -59.825
1584.8000, -59.864
1584.8200, -59.840
1584.8400, -59.845
1584.8600, -59.865
1584.8800, -59.858
1584.9000, -59.859
1584.9200, -59.859
1584.9400, -59.857
1584.9600, -59.874
1584.9800, -59.899
1585.0000, -59.884
1585.0200, -59.881
1585.0400, -59.891
1585.0600, -59.901
1585.0800, -59.910
1585.1000, -59.907
1585.1200, -59.919
1585.1400, -59.935
1585.1600, -59.933
1585.1800, -59.929
1585.2000, -59.930
1585.2200, -59.965
1585.2400, -59.940
1585.2600, -59.971
1585.2800, -59.974
1585.3000, -59.964
1585.3200, -59.984
1585.3400, -59.989
1585.3600, -60.014
1585.3800, -59.979
1585.4000, -59.994
1585.4200, -59.994
1585.4400, -60.022
1585.4600, -60.012
1585.4800, -60.028
1585.5000, -60.029
1585.5200, -60.020
1585.5400, -60.054
1585.5600, -60.033
1585.5800, -60.054
1585.6000, -60.050
1585.6200, -60.074
1585.6400, -60.041
1585.6600, -60.063
1585.6800, -60.077
1585.7000, -60.073
1585.7200, -60.094
1585.7400, -60.062
1585.7600, -60.106
1585.7800, -60.092
1585.8000, -60.097
1585.8200, -60.099
1585.8400, -60.110
1585.8600, -60.116
1585.8800, -60.141
1585.9000, -60.118
1585.9200, -60.136
1585.9400, -60.149
1585.9600, -60.128
1585.9800, -60.166
1586.0000, -60.149
1586.0200, -60.170
1586.0400, -60.161
1586.0600, -60.170
1586.0800, -60.186
1586.1000, -60.171
1586.1200, -60.183
1586.1400, -60.198
1586.1600, -60.213
1586.1800, -60.207
1586.2000, -60.202
1586.2200, -60.231
1586.2400, -60.236
1586.2600, -60.240
1586.2800, -60.213
1586.3000, -60.247
1586.3200, -60.233
1586.3400, -60.267
1586.3600, -60.255
1586.3800, -60.242
1586.4000, -60.254
1586.4200, -60.277
1586.4400, -60.261
1586.4600, -60.267
1586.4800, -60.297
1586.5000, -60.277
1586.5200, -60.278
1586.5400, -60.311
1586.5600, -60.291
1586.5800, -60.294
1586.6000, -60.299
1586.6200, -60.310
1586.6400, -60.305
1586.6600, -60.333
1586.6800, -60.331
1586.7000, -60.329
1586.7200, -60.348
1586.7400, -60.356
1586.7600, -60.344
1586.7800, -60.369
1586.8000, -60.367
1586.8200, -60.368
1586.8400, -60.357
1586.8600, -60.382
1586.8800, -60.366
1586.9000, -60.382
1586.9200, -60.404
1586.9400, -60.398
1586.9600, -60.403
1586.9800, -60.444
1587.0000, -60.413
1587.0200, -60.432
1587.0400, -60.424
1587.0600, -60.418
1587.0800, -60.458
1587.1000, -60.418
1587.1200, -60.447
1587.1400, -60.468
1587.1600, -60.497
1587.1800, -60.425
1587.2000, -60.436
1587.2200, -60.474
1587.2400, -60.456
1587.2600, -60.473
1587.2800, -60.479
1587.3000, -60.489
1587.3200, -60.510
1587.3400, -60.509
1587.3600, -60.492
1587.3800, -60.513
1587.4000, -60.517
1587.4200, -60.515
1587.4400, -60.501
1587.4600, -60.551
1587.4800, -60.497
1587.5000, -60.569
1587.5200, -60.530
1587.5400, -60.551
1587.5600, -60.570
1587.5800, -60.534
1587.6000, -60.552
1587.6200, -60.588
1587.6400, -60.545
1587.6600, -60.587
1587.6800, -60.573
1587.7000, -60.603
1587.7200, -60.601
1587.7400, -60.601
1587.7600, -60.630
1587.7800, -60.609
1587.8000, -60.635
1587.8200, -60.635
1587.8400, -60.596
1587.8600, -60.633
1587.8800, -60.632
1587.9000, -60.649
1587.9200, -60.660
1587.9400, -60.642
1587.9600, -60.662
1587.9800, -60.670
1588.0000, -60.677
1588.0200, -60.644
1588.0400, -60.667
1588.0600, -60.705
1588.0800, -60.657
1588.1000, -60.675
1588.1200, -60.685
1588.1400, -60.693
1588.1600, -60.690
1588.1800, -60.699
1588.2000, -60.692
1588.2200, -60.698
1588.2400, -60.680
1588.2600, -60.735
1588.2800, -60.716
1588.3000, -60.729
1588.3200, -60.723
1588.3400, -60.738
1588.3600, -60.755
1588.3800, -60.780
1588.4000, -60.707
1588.4200, -60.765
1588.4400, -60.766
1588.4600, -60.784
1588.4800, -60.758
1588.5000, -60.776
1588.5200, -60.798
1588.5400, -60.782
1588.5600, -60.799
1588.5800, -60.792
1588.6000, -60.792
1588.6200, -60.814
1588.6400, -60.808
1588.6600, -60.802
1588.6800, -60.823
1588.7000, -60.835
1588.7200, -60.826
1588.7400, -60.842
1588.7600, -60.831
1588.7800, -60.860
1588.8000, -60.837
1588.8200, -60.825
1588.8400, -60.867
1588.8600, -60.842
1588.8800, -60.873
1588.9000, -60.848
1588.9200, -60.872
1588.9400, -60.895
1588.9600, -60.883
1588.9800, -60.884
1589.0000, -60.889
1589.0200, -60.876
1589.0400, -60.902
1589.0600, -60.917
1589.0800, -60.887
1589.1000, -60.919
1589.1200, -60.905
1589.1400, -60.886
1589.1600, -60.911
1589.1800, -60.939
1589.2000, -60.903
1589.2200, -60.927
1589.2400, -60.945
1589.2600, -60.944
1589.2800, -60.957
1589.3000, -60.934
1589.3200, -60.958
1589.3400, -60.967
1589.3600, -60.960
1589.3800, -60.959
1589.4000, -60.976
1589.4200, -60.970
1589.4400, -60.990
1589.4600, -61.004
1589.4800, -60.986
1589.5000, -60.989
1589.5200, -61.013
1589.5400, -61.004
1589.5600, -61.006
1589.5800, -61.029
1589.6000, -61.008
1589.6200, -61.007
1589.6400, -61.051
1589.6600, -61.016
1589.6800, -61.003
1589.7000, -61.024
1589.7200, -61.020
1589.7400, -61.052
1589.7600, -61.055
1589.7800, -61.043
1589.8000, -61.075
1589.8200, -61.069
1589.8400, -61.058
1589.8600, -61.123
1589.8800, -61.051
1589.9000, -61.078
1589.9200, -61.095
1589.9400, -61.086
1589.9600, -61.064
1589.9800, -61.091
1590.0000, -61.069
1590.0200, -61.113
1590.0400, -61.121
1590.0600, -61.103
1590.0800, -61.120
1590.1000, -61.141
1590.1200, -61.098
1590.1400, -61.151
1590.1600, -61.149
1590.1800, -61.116
1590.2000, -61.162
1590.2200, -61.114
1590.2400, -61.173
1590.2600, -61.151
1590.2800, -61.177
1590.3000, -61.172
1590.3200, -61.184
1590.3400, -61.181
1590.3600, -61.158
1590.3800, -61.174
1590.4000, -61.185
1590.4200, -61.203
1590.4400, -61.181
1590.4600, -61.204
1590.4800, -61.217
1590.5000, -61.197
1590.5200, -61.237
1590.5400, -61.218
1590.5600, -61.211
1590.5800, -61.232
1590.6000, -61.232
1590.6200, -61.250
1590.6400, -61.238
1590.6600, -61.241
1590.6800, -61.261
1590.7000, -61.255
1590.7200, -61.258
1590.7400, -61.261
1590.7600, -61.249
1590.7800, -61.288
1590.8000, -61.270
1590.8200, -61.304
1590.8400, -61.281
1590.8600, -61.282
1590.8800, -61.281
1590.9000, -61.289
1590.9200, -61.297
1590.9400, -61.310
1590.9600, -61.334
1590.9800, -61.319
1591.0000, -61.340
1591.0200, -61.325
1591.0400, -61.325
1591.0600, -61.359
1591.0800, -61.305
1591.1000, -61.346
1591.1200, -61.371
1591.1400, -61.348
1591.1600, -61.356
1591.1800, -61.392
1591.2000, -61.373
1591.2200, -61.365
1591.2400, -61.354
1591.2600, -61.394
1591.2800, -61.397
1591.3000, -61.415
1591.3200, -61.391
1591.3400, -61.391
1591.3600, -61.424
1591.3800, -61.423
1591.4000, -61.428
1591.4200, -61.402
1591.4400, -61.462
1591.4600, -61.389
1591.4800, -61.437
1591.5000, -61.442
1591.5200, -61.420
1591.5400, -61.457
1591.5600, -61.456
1591.5800, -61.485
1591.6000, -61.463
1591.6200, -61.444
1591.6400, -61.506
1591.6600, -61.467
1591.6800, -61.506
1591.7000, -61.465
1591.7200, -61.510
1591.7400, -61.471
1591.7600, -61.485
1591.7800, -61.526
1591.8000, -61.503
1591.8200, -61.517
1591.8400, -61.470
1591.8600, -61.499
1591.8800, -61.532
1591.9000, -61.527
1591.9200, -61.552
1591.9400, -61.552
1591.9600, -61.510
1591.9800, -61.570
1592.0000, -61.543
1592.0200, -61.553
1592.0400, -61.577
1592.0600, -61.538
1592.0800, -61.535
1592.1000, -61.587
1592.1200, -61.575
1592.1400, -61.583
1592.1600, -61.634
1592.1800, -61.573
1592.2000, -61.637
1592.2200, -61.577
1592.2400, -61.613
1592.2600, -61.574
1592.2800, -61.634
1592.3000, -61.603
1592.3200, -61.657
1592.3400, -61.563
1592.3600, -61.666
1592.3800, -61.610
1592.4000, -61.638
1592.4200, -61.631
1592.4400, -61.634
1592.4600, -61.657
1592.4800, -61.667
1592.5000, -61.647
1592.5200, -61.649
1592.5400, -61.666
1592.5600, -61.679
1592.5800, -61.660
1592.6000, -61.657
1592.6200, -61.675
1592.6400, -61.676
1592.6600, -61.715
1592.6800, -61.654
1592.7000, -61.689
1592.7200, -61.707
1592.7400, -61.717
1592.7600, -61.699
1592.7800, -61.721
1592.8000, -61.742
1592.8200, -61.699
1592.8400, -61.739
1592.8600, -61.737
1592.8800, -61.727
1592.9000, -61.722
1592.9200, -61.765
1592.9400, -61.746
1592.9600, -61.737
1592.9800, -61.797
1593.0000, -61.758
1593.0200, -61.773
1593.0400, -61.781
1593.0600, -61.763
1593.0800, -61.780
1593.1000, -61.758
1593.1200, -61.821
1593.1400, -61.767
1593.1600, -61.771
1593.1800, -61.802
1593.2000, -61.775
1593.2200, -61.795
1593.2400, -61.790
1593.2600, -61.785
1593.2800, -61.826
1593.3000, -61.830
1593.3200, -61.807
1593.3400, -61.802
1593.3600, -61.848
1593.3800, -61.840
1593.4000, -61.832
1593.4200, -61.813
1593.4400, -61.852
1593.4600, -61.829
1593.4800, -61.840
1593.5000, -61.854
1593.5200, -61.821
1593.5400, -61.862
1593.5600, -61.915
1593.5800, -61.836
1593.6000, -61.871
1593.6200, -61.879
1593.6400, -61.879
1593.6600, -61.885
1593.6800, -61.887
1593.7000, -61.894
1593.7200, -61.927
1593.7400, -61.866
1593.7600, -61.931
1593.7800, -61.932
1593.8000, -61.925
1593.8200, -61.965
1593.8400, -61.914
1593.8600, -61.933
1593.8800, -61.932
1593.9000, -61.904
1593.9200, -61.963
1593.9400, -61.967
1593.9600, -61.947
1593.9800, -61.959
1594.0000, -61.964
1594.0200, -61.984
1594.0400, -61.993
1594.0600, -61.970
1594.0800, -61.993
1594.1000, -61.992
1594.1200, -61.972
1594.1400, -62.011
1594.1600, -61.963
1594.1800, -61.966
1594.2000, -62.016
1594.2200, -62.042
1594.2400, -61.965
1594.2600, -62.010
1594.2800, -61.967
1594.3000, -62.026
1594.3200, -62.049
1594.3400, -62.024
1594.3600, -62.051
1594.3800, -62.036
1594.4000, -62.044
1594.4200, -62.057
1594.4400, -62.036
1594.4600, -62.055
1594.4800, -62.049
1594.5000, -62.054
1594.5200, -62.102
1594.5400, -62.033
1594.5600, -62.096
1594.5800, -62.080
1594.6000, -62.100
1594.6200, -62.104
1594.6400, -62.106
1594.6600, -62.120
1594.6800, -62.080
1594.7000, -62.100
1594.7200, -62.134
1594.7400, -62.117
1594.7600, -62.132
1594.7800, -62.105
1594.8000, -62.113
1594.8200, -62.124
1594.8400, -62.158
1594.8600, -62.141
1594.8800, -62.147
1594.9000, -62.144
1594.9200, -62.129
1594.9400, -62.203
1594.9600, -62.165
1594.9800, -62.158
1595.0000, -62.221
1595.0200, -62.147
1595.0400, -62.168
1595.0600, -62.193
1595.0800, -62.217
1595.1000, -62.122
1595.1200, -62.232
1595.1400, -62.181
1595.1600, -62.180
1595.1800, -62.203
1595.2000, -62.211
1595.2200, -62.193
1595.2400, -62.205
1595.2600, -62.217
1595.2800, -62.221
1595.3000, -62.206
1595.3200, -62.249
1595.3400, -62.281
1595.3600, -62.238
1595.3800, -62.322
1595.4000, -62.261
1595.4200, -62.193
1595.4400, -62.303
1595.4600, -62.270
1595.4800, -62.300
1595.5000, -62.241
1595.5200, -62.329
1595.5400, -62.227
1595.5600, -62.285
1595.5800, -62.281
1595.6000, -62.279
1595.6200, -62.283
1595.6400, -62.337
1595.6600, -62.291
1595.6800, -62.308
1595.7000, -62.308
1595.7200, -62.343
1595.7400, -62.314
1595.7600, -62.333
1595.7800, -62.366
1595.8000, -62.348
1595.8200, -62.301
1595.8400, -62.398
1595.8600, -62.289
1595.8800, -62.345
1595.9000, -62.376
1595.9200, -62.355
1595.9400, -62.378
1595.9600, -62.390
1595.9800, -62.390
1596.0000, -62.360
1596.0200, -62.407
1596.0400, -62.356
1596.0600, -62.456
1596.0800, -62.391
1596.1000, -62.399
1596.1200, -62.391
1596.1400, -62.414
1596.1600, -62.444
1596.1800, -62.396
1596.2000, -62.477
1596.2200, -62.414
1596.2400, -62.435
1596.2600, -62.477
1596.2800, -62.420
1596.3000, -62.471
1596.3200, -62.419
1596.3400, -62.417
1596.3600, -62.467
1596.3800, -62.460
1596.4000, -62.447
1596.4200, -62.492
1596.4400, -62.472
1596.4600, -62.459
1596.4800, -62.492
1596.5000, -62.484
1596.5200, -62.471
1596.5400, -62.530
1596.5600, -62.493
1596.5800, -62.477
1596.6000, -62.500
1596.6200, -62.473
1596.6400, -62.490
1596.6600, -62.550
1596.6800, -62.493
1596.7000, -62.540
1596.7200, -62.514
1596.7400, -62.520
1596.7600, -62.542
1596.7800, -62.533
1596.8000, -62.552
1596.8200, -62.553
1596.8400, -62.563
1596.8600, -62.552
1596.8800, -62.561
1596.9000, -62.547
1596.9200, -62.556
1596.9400, -62.601
1596.9600, -62.558
1596.9800, -62.586
1597.0000, -62.575
1597.0200, -62.588
1597.0400, -62.598
1597.0600, -62.647
1597.0800, -62.594
1597.1000, -62.619
1597.1200, -62.571
1597.1400, -62.588
1597.1600, -62.594
1597.1800, -62.615
1597.2000, -62.650
1597.2200, -62.630
1597.2400, -62.632
1597.2600, -62.672
1597.2800, -62.672
1597.3000, -62.647
1597.3200, -62.640
1597.3400, -62.667
1597.3600, -62.640
1597.3800, -62.679
1597.4000, -62.701
1597.4200, -62.655
1597.4400, -62.669
1597.4600, -62.649
1597.4800, -62.701
1597.5000, -62.678
1597.5200, -62.678
1597.5400, -62.722
1597.5600, -62.652
1597.5800, -62.674
1597.6000, -62.742
1597.6200, -62.707
1597.6400, -62.742
1597.6600, -62.673
1597.6800, -62.710
1597.7000, -62.735
1597.7200, -62.706
1597.7400, -62.723
1597.7600, -62.740
1597.7800, -62.786
1597.8000, -62.675
1597.8200, -62.745
1597.8400, -62.747
1597.8600, -62.807
1597.8800, -62.774
1597.9000, -62.731
1597.9200, -62.756
1597.9400, -62.758
1597.9600, -62.761
1597.9800, -62.776
1598.0000, -62.774
1598.0200, -62.856
1598.0400, -62.738
1598.0600, -62.808
1598.0800, -62.816
1598.1000, -62.814
1598.1200, -62.852
1598.1400, -62.818
1598.1600, -62.867
1598.1800, -62.817
1598.2000, -62.845
1598.2200, -62.770
1598.2400, -62.834
1598.2600, -62.810
1598.2800, -62.814
1598.3000, -62.889
1598.3200, -62.789
1598.3400, -62.848
1598.3600, -62.880
1598.3800, -62.878
1598.4000, -62.839
1598.4200, -62.870
1598.4400, -62.860
1598.4600, -62.853
1598.4800, -62.856
1598.5000, -62.885
1598.5200, -62.889
1598.5400, -62.886
1598.5600, -62.907
1598.5800, -62.868
1598.6000, -62.898
1598.6200, -62.934
1598.6400, -62.954
1598.6600, -62.898
1598.6800, -62.910
1598.7000, -62.952
1598.7200, -62.908
1598.7400, -62.939
1598.7600, -62.915
1598.7800, -62.943
1598.8000, -62.936
1598.8200, -62.984
1598.8400, -62.944
1598.8600, -62.962
1598.8800, -62.978
1598.9000, -62.955
1598.9200, -63.004
1598.9400, -62.953
1598.9600, -62.966
1598.9800, -62.994
1599.0000, -63.040
1599.0200, -62.999
1599.0400, -62.992
1599.0600, -62.993
1599.0800, -62.989
1599.1000, -63.046
1599.1200, -63.021
1599.1400, -63.030
1599.1600, -63.007
1599.1800, -63.038
1599.2000, -62.987
1599.2200, -63.111
1599.2400, -63.009
1599.2600, -63.045
1599.2800, -63.041
1599.3000, -63.043
1599.3200, -63.002
1599.3400, -63.121
1599.3600, -63.082
1599.3800, -63.050
1599.4000, -63.053
1599.4200, -63.070
1599.4400, -63.070
1599.4600, -63.092
1599.4800, -63.084
1599.5000, -63.116
1599.5200, -63.063
1599.5400, -63.112
1599.5600, -63.126
1599.5800, -63.122
1599.6000, -63.090
1599.6200, -63.120
1599.6400, -63.143
1599.6600, -63.092
1599.6800, -63.150
1599.7000, -63.157
1599.7200, -63.128
1599.7400, -63.161
1599.7600, -63.152
1599.7800, -63.133
1599.8000, -63.193
1599.8200, -63.130
1599.8400, -63.206
1599.8600, -63.093
1599.8800, -63.156
1599.9000, -63.168
1599.9200, -63.182
1599.9400, -63.177
1599.9600, -63.211
1599.9800, -63.171
1600.0000, -63.201
