70BCSV 	
// AQ6370B OPTICAL SPECTRUM ANALYZER //                 
25
"CTRWL",1550.000000
"SPAN", 100.000000
"START WL",1500.000000
"STOP WL",1600.000000
"WLFREQ", 0
"REFL",-28.8
"LSCL", 5.0
"RESLN",0.100
"AVG",   1
"SMPLAUTO",      0
"SMPL",       5001
"SMPLINTVL",0.0200
"HIGH1"
"MEAS"
"LSUNT",0
"NMSKH","OFF"
"RESCOR",0
"RESPARM", 9050
"FREQPARM", 9050






"[TRACE DATA]"
1500.0000, -61.632
1500.0200, -61.594
1500.0400, -61.584
1500.0600, -61.600
1500.0800, -61.580
1500.1000, -61.602
1500.1200, -61.590
1500.1400, -61.585
1500.1600, -61.537
1500.1800, -61.539
1500.2000, -61.554
1500.2200, -61.548
1500.2400, -61.545
1500.2600, -61.567
1500.2800, -61.531
1500.3000, -61.537
1500.3200, -61.540
1500.3400, -61.538
1500.3600, -61.523
1500.3800, -61.516
1500.4000, -61.526
1500.4200, -61.508
1500.4400, -61.496
1500.4600, -61.499
1500.4800, -61.504
1500.5000, -61.457
1500.5200, -61.480
1500.5400, -61.465
1500.5600, -61.438
1500.5800, -61.476
1500.6000, -61.477
1500.6200, -61.457
1500.6400, -61.400
1500.6600, -61.459
1500.6800, -61.403
1500.7000, -61.428
1500.7200, -61.403
1500.7400, -61.385
1500.7600, -61.412
1500.7800, -61.388
1500.8000, -61.407
1500.8200, -61.406
1500.8400, -61.331
1500.8600, -61.373
1500.8800, -61.366
1500.9000, -61.387
1500.9200, -61.336
1500.9400, -61.367
1500.9600, -61.330
1500.9800, -61.316
1501.0000, -61.322
1501.0200, -61.310
1501.0400, -61.305
1501.0600, -61.330
1501.0800, -61.303
1501.1000, -61.297
1501.1200, -61.283
1501.1400, -61.282
1501.1600, -61.272
1501.1800, -61.287
1501.2000, -61.286
1501.2200, -61.269
1501.2400, -61.291
1501.2600, -61.275
1501.2800, -61.274
1501.3000, -61.247
1501.3200, -61.253
1501.3400, -61.215
1501.3600, -61.246
1501.3800, -61.216
1501.4000, -61.225
1501.4200, -61.234
1501.4400, -61.214
1501.4600, -61.193
1501.4800, -61.190
1501.5000, -61.178
1501.5200, -61.214
1501.5400, -61.188
1501.5600, -61.187
1501.5800, -61.167
1501.6000, -61.147
1501.6200, -61.163
1501.6400, -61.175
1501.6600, -61.158
1501.6800, -61.158
1501.7000, -61.126
1501.7200, -61.101
1501.7400, -61.103
1501.7600, -61.101
1501.7800, -61.117
1501.8000, -61.130
1501.8200, -61.117
1501.8400, -61.087
1501.8600, -61.094
1501.8800, -61.117
1501.9000, -61.086
1501.9200, -61.060
1501.9400, -61.083
1501.9600, -61.059
1501.9800, -61.044
1502.0000, -61.062
1502.0200, -61.079
1502.0400, -61.021
1502.0600, -61.026
1502.0800, -61.029
1502.1000, -60.992
1502.1200, -60.988
1502.1400, -60.987
1502.1600, -61.011
1502.1800, -61.003
1502.2000, -61.023
1502.2200, -60.964
1502.2400, -60.953
1502.2600, -60.965
1502.2800, -60.958
1502.3000, -60.959
1502.3200, -60.963
1502.3400, -60.936
1502.3600, -60.924
1502.3800, -60.949
1502.4000, -60.924
1502.4200, -60.903
1502.4400, -60.904
1502.4600, -60.924
1502.4800, -60.893
1502.5000, -60.907
1502.5200, -60.905
1502.5400, -60.863
1502.5600, -60.877
1502.5800, -60.863
1502.6000, -60.865
1502.6200, -60.815
1502.6400, -60.844
1502.6600, -60.822
1502.6800, -60.809
1502.7000, -60.809
1502.7200, -60.827
1502.7400, -60.828
1502.7600, -60.794
1502.7800, -60.794
1502.8000, -60.807
1502.8200, -60.801
1502.8400, -60.772
1502.8600, -60.736
1502.8800, -60.744
1502.9000, -60.763
1502.9200, -60.734
1502.9400, -60.718
1502.9600, -60.742
1502.9800, -60.729
1503.0000, -60.720
1503.0200, -60.706
1503.0400, -60.709
1503.0600, -60.702
1503.0800, -60.706
1503.1000, -60.681
1503.1200, -60.694
1503.1400, -60.672
1503.1600, -60.671
1503.1800, -60.677
1503.2000, -60.643
1503.2200, -60.668
1503.2400, -60.648
1503.2600, -60.664
1503.2800, -60.608
1503.3000, -60.615
1503.3200, -60.621
1503.3400, -60.585
1503.3600, -60.611
1503.3800, -60.592
1503.4000, -60.583
1503.4200, -60.589
1503.4400, -60.585
1503.4600, -60.570
1503.4800, -60.551
1503.5000, -60.580
1503.5200, -60.533
1503.5400, -60.529
1503.5600, -60.505
1503.5800, -60.543
1503.6000, -60.525
1503.6200, -60.536
1503.6400, -60.500
1503.6600, -60.494
1503.6800, -60.484
1503.7000, -60.486
1503.7200, -60.465
1503.7400, -60.464
1503.7600, -60.456
1503.7800, -60.447
1503.8000, -60.440
1503.8200, -60.447
1503.8400, -60.425
1503.8600, -60.431
1503.8800, -60.412
1503.9000, -60.408
1503.9200, -60.404
1503.9400, -60.401
1503.9600, -60.388
1503.9800, -60.393
1504.0000, -60.376
1504.0200, -60.394
1504.0400, -60.369
1504.0600, -60.360
1504.0800, -60.377
1504.1000, -60.339
1504.1200, -60.351
1504.1400, -60.310
1504.1600, -60.330
1504.1800, -60.328
1504.2000, -60.299
1504.2200, -60.301
1504.2400, -60.277
1504.2600, -60.301
1504.2800, -60.276
1504.3000, -60.279
1504.3200, -60.241
1504.3400, -60.270
1504.3600, -60.243
1504.3800, -60.254
1504.4000, -60.259
1504.4200, -60.236
1504.4400, -60.266
1504.4600, -60.211
1504.4800, -60.174
1504.5000, -60.215
1504.5200, -60.194
1504.5400, -60.173
1504.5600, -60.175
1504.5800, -60.138
1504.6000, -60.154
1504.6200, -60.133
1504.6400, -60.144
1504.6600, -60.142
1504.6800, -60.137
1504.7000, -60.118
1504.7200, -60.095
1504.7400, -60.123
1504.7600, -60.094
1504.7800, -60.089
1504.8000, -60.100
1504.8200, -60.089
1504.8400, -60.078
1504.8600, -60.049
1504.8800, -60.029
1504.9000, -60.057
1504.9200, -60.011
1504.9400, -60.023
1504.9600, -60.003
1504.9800, -60.002
1505.0000, -59.999
1505.0200, -59.993
1505.0400, -59.979
1505.0600, -59.995
1505.0800, -59.988
1505.1000, -59.960
1505.1200, -59.966
1505.1400, -59.966
1505.1600, -59.954
1505.1800, -59.924
1505.2000, -59.901
1505.2200, -59.926
1505.2400, -59.919
1505.2600, -59.948
1505.2800, -59.885
1505.3000, -59.906
1505.3200, -59.866
1505.3400, -59.868
1505.3600, -59.900
1505.3800, -59.886
1505.4000, -59.868
1505.4200, -59.830
1505.4400, -59.862
1505.4600, -59.836
1505.4800, -59.816
1505.5000, -59.803
1505.5200, -59.811
1505.5400, -59.775
1505.5600, -59.775
1505.5800, -59.777
1505.6000, -59.764
1505.6200, -59.769
1505.6400, -59.737
1505.6600, -59.755
1505.6800, -59.729
1505.7000, -59.750
1505.7200, -59.729
1505.7400, -59.713
1505.7600, -59.696
1505.7800, -59.694
1505.8000, -59.688
1505.8200, -59.665
1505.8400, -59.689
1505.8600, -59.675
1505.8800, -59.671
1505.9000, -59.656
1505.9200, -59.658
1505.9400, -59.630
1505.9600, -59.639
1505.9800, -59.616
1506.0000, -59.620
1506.0200, -59.627
1506.0400, -59.614
1506.0600, -59.586
1506.0800, -59.601
1506.1000, -59.586
1506.1200, -59.566
1506.1400, -59.579
1506.1600, -59.528
1506.1800, -59.525
1506.2000, -59.536
1506.2200, -59.534
1506.2400, -59.526
1506.2600, -59.522
1506.2800, -59.512
1506.3000, -59.480
1506.3200, -59.520
1506.3400, -59.491
1506.3600, -59.464
1506.3800, -59.492
1506.4000, -59.452
1506.4200, -59.431
1506.4400, -59.446
1506.4600, -59.434
1506.4800, -59.429
1506.5000, -59.416
1506.5200, -59.389
1506.5400, -59.395
1506.5600, -59.414
1506.5800, -59.383
1506.6000, -59.373
1506.6200, -59.371
1506.6400, -59.363
1506.6600, -59.355
1506.6800, -59.346
1506.7000, -59.343
1506.7200, -59.322
1506.7400, -59.315
1506.7600, -59.306
1506.7800, -59.302
1506.8000, -59.293
1506.8200, -59.302
1506.8400, -59.283
1506.8600, -59.266
1506.8800, -59.261
1506.9000, -59.273
1506.9200, -59.261
1506.9400, -59.208
1506.9600, -59.233
1506.9800, -59.232
1507.0000, -59.222
1507.0200, -59.227
1507.0400, -59.210
1507.0600, -59.199
1507.0800, -59.186
1507.1000, -59.192
1507.1200, -59.161
1507.1400, -59.158
1507.1600, -59.157
1507.1800, -59.153
1507.2000, -59.141
1507.2200, -59.145
1507.2400, -59.110
1507.2600, -59.132
1507.2800, -59.122
1507.3000, -59.104
1507.3200, -59.113
1507.3400, -59.095
1507.3600, -59.088
1507.3800, -59.078
1507.4000, -59.061
1507.4200, -59.030
1507.4400, -59.032
1507.4600, -59.014
1507.4800, -59.006
1507.5000, -58.996
1507.5200, -59.010
1507.5400, -58.991
1507.5600, -58.990
1507.5800, -58.982
1507.6000, -58.956
1507.6200, -58.969
1507.6400, -58.946
1507.6600, -58.947
1507.6800, -58.933
1507.7000, -58.914
1507.7200, -58.907
1507.7400, -58.887
1507.7600, -58.905
1507.7800, -58.894
1507.8000, -58.897
1507.8200, -58.868
1507.8400, -58.866
1507.8600, -58.851
1507.8800, -58.844
1507.9000, -58.833
1507.9200, -58.848
1507.9400, -58.833
1507.9600, -58.814
1507.9800, -58.823
1508.0000, -58.796
1508.0200, -58.804
1508.0400, -58.794
1508.0600, -58.783
1508.0800, -58.771
1508.1000, -58.770
1508.1200, -58.762
1508.1400, -58.745
1508.1600, -58.737
1508.1800, -58.736
1508.2000, -58.720
1508.2200, -58.715
1508.2400, -58.712
1508.2600, -58.718
1508.2800, -58.708
1508.3000, -58.712
1508.3200, -58.711
1508.3400, -58.672
1508.3600, -58.656
1508.3800, -58.638
1508.4000, -58.632
1508.4200, -58.609
1508.4400, -58.619
1508.4600, -58.591
1508.4800, -58.597
1508.5000, -58.608
1508.5200, -58.591
1508.5400, -58.575
1508.5600, -58.571
1508.5800, -58.561
1508.6000, -58.534
1508.6200, -58.534
1508.6400, -58.535
1508.6600, -58.510
1508.6800, -58.520
1508.7000, -58.492
1508.7200, -58.496
1508.7400, -58.485
1508.7600, -58.487
1508.7800, -58.490
1508.8000, -58.452
1508.8200, -58.450
1508.8400, -58.453
1508.8600, -58.451
1508.8800, -58.411
1508.9000, -58.434
1508.9200, -58.414
1508.9400, -58.417
1508.9600, -58.402
1508.9800, -58.385
1509.0000, -58.397
1509.0200, -58.369
1509.0400, -58.352
1509.0600, -58.354
1509.0800, -58.361
1509.1000, -58.339
1509.1200, -58.341
1509.1400, -58.335
1509.1600, -58.304
1509.1800, -58.300
1509.2000, -58.298
1509.2200, -58.290
1509.2400, -58.305
1509.2600, -58.277
1509.2800, -58.267
1509.3000, -58.237
1509.3200, -58.239
1509.3400, -58.218
1509.3600, -58.200
1509.3800, -58.181
1509.4000, -58.174
1509.4200, -58.187
1509.4400, -58.161
1509.4600, -58.178
1509.4800, -58.158
1509.5000, -58.153
1509.5200, -58.133
1509.5400, -58.124
1509.5600, -58.116
1509.5800, -58.103
1509.6000, -58.106
1509.6200, -58.094
1509.6400, -58.062
1509.6600, -58.066
1509.6800, -58.076
1509.7000, -58.049
1509.7200, -58.033
1509.7400, -58.030
1509.7600, -58.026
1509.7800, -58.039
1509.8000, -57.995
1509.8200, -58.018
1509.8400, -57.998
1509.8600, -57.987
1509.8800, -57.990
1509.9000, -57.973
1509.9200, -57.965
1509.9400, -57.963
1509.9600, -57.958
1509.9800, -57.923
1510.0000, -57.919
1510.0200, -57.913
1510.0400, -57.904
1510.0600, -57.892
1510.0800, -57.896
1510.1000, -57.874
1510.1200, -57.864
1510.1400, -57.840
1510.1600, -57.867
1510.1800, -57.850
1510.2000, -57.843
1510.2200, -57.837
1510.2400, -57.805
1510.2600, -57.794
1510.2800, -57.791
1510.3000, -57.763
1510.3200, -57.738
1510.3400, -57.736
1510.3600, -57.721
1510.3800, -57.730
1510.4000, -57.710
1510.4200, -57.696
1510.4400, -57.687
1510.4600, -57.682
1510.4800, -57.665
1510.5000, -57.655
1510.5200, -57.637
1510.5400, -57.646
1510.5600, -57.624
1510.5800, -57.613
1510.6000, -57.577
1510.6200, -57.582
1510.6400, -57.578
1510.6600, -57.577
1510.6800, -57.566
1510.7000, -57.540
1510.7200, -57.548
1510.7400, -57.525
1510.7600, -57.518
1510.7800, -57.497
1510.8000, -57.504
1510.8200, -57.499
1510.8400, -57.485
1510.8600, -57.482
1510.8800, -57.456
1510.9000, -57.449
1510.9200, -57.444
1510.9400, -57.409
1510.9600, -57.406
1510.9800, -57.413
1511.0000, -57.392
1511.0200, -57.374
1511.0400, -57.390
1511.0600, -57.359
1511.0800, -57.328
1511.1000, -57.347
1511.1200, -57.338
1511.1400, -57.336
1511.1600, -57.321
1511.1800, -57.307
1511.2000, -57.285
1511.2200, -57.279
1511.2400, -57.262
1511.2600, -57.239
1511.2800, -57.229
1511.3000, -57.212
1511.3200, -57.208
1511.3400, -57.191
1511.3600, -57.194
1511.3800, -57.174
1511.4000, -57.167
1511.4200, -57.146
1511.4400, -57.147
1511.4600, -57.126
1511.4800, -57.116
1511.5000, -57.123
1511.5200, -57.092
1511.5400, -57.061
1511.5600, -57.059
1511.5800, -57.062
1511.6000, -57.049
1511.6200, -57.038
1511.6400, -57.025
1511.6600, -57.009
1511.6800, -57.007
1511.7000, -57.010
1511.7200, -56.974
1511.7400, -56.959
1511.7600, -56.957
1511.7800, -56.949
1511.8000, -56.943
1511.8200, -56.928
1511.8400, -56.915
1511.8600, -56.918
1511.8800, -56.898
1511.9000, -56.868
1511.9200, -56.870
1511.9400, -56.868
1511.9600, -56.847
1511.9800, -56.835
1512.0000, -56.829
1512.0200, -56.798
1512.0400, -56.807
1512.0600, -56.803
1512.0800, -56.802
1512.1000, -56.779
1512.1200, -56.771
1512.1400, -56.761
1512.1600, -56.734
1512.1800, -56.733
1512.2000, -56.694
1512.2200, -56.698
1512.2400, -56.670
1512.2600, -56.684
1512.2800, -56.657
1512.3000, -56.651
1512.3200, -56.637
1512.3400, -56.613
1512.3600, -56.607
1512.3800, -56.599
1512.4000, -56.600
1512.4200, -56.568
1512.4400, -56.574
1512.4600, -56.564
1512.4800, -56.542
1512.5000, -56.521
1512.5200, -56.520
1512.5400, -56.498
1512.5600, -56.499
1512.5800, -56.496
1512.6000, -56.484
1512.6200, -56.468
1512.6400, -56.440
1512.6600, -56.435
1512.6800, -56.417
1512.7000, -56.414
1512.7200, -56.420
1512.7400, -56.406
1512.7600, -56.390
1512.7800, -56.382
1512.8000, -56.374
1512.8200, -56.352
1512.8400, -56.340
1512.8600, -56.325
1512.8800, -56.337
1512.9000, -56.309
1512.9200, -56.298
1512.9400, -56.295
1512.9600, -56.266
1512.9800, -56.255
1513.0000, -56.258
1513.0200, -56.244
1513.0400, -56.234
1513.0600, -56.233
1513.0800, -56.216
1513.1000, -56.202
1513.1200, -56.158
1513.1400, -56.180
1513.1600, -56.138
1513.1800, -56.132
1513.2000, -56.114
1513.2200, -56.103
1513.2400, -56.096
1513.2600, -56.095
1513.2800, -56.077
1513.3000, -56.048
1513.3200, -56.050
1513.3400, -56.023
1513.3600, -56.017
1513.3800, -56.017
1513.4000, -55.997
1513.4200, -55.991
1513.4400, -55.971
1513.4600, -55.944
1513.4800, -55.937
1513.5000, -55.943
1513.5200, -55.934
1513.5400, -55.908
1513.5600, -55.888
1513.5800, -55.894
1513.6000, -55.859
1513.6200, -55.848
1513.6400, -55.835
1513.6600, -55.826
1513.6800, -55.816
1513.7000, -55.817
1513.7200, -55.818
1513.7400, -55.797
1513.7600, -55.785
1513.7800, -55.771
1513.8000, -55.742
1513.8200, -55.749
1513.8400, -55.738
1513.8600, -55.719
1513.8800, -55.703
1513.9000, -55.697
1513.9200, -55.666
1513.9400, -55.668
1513.9600, -55.662
1513.9800, -55.653
1514.0000, -55.641
1514.0200, -55.634
1514.0400, -55.610
1514.0600, -55.586
1514.0800, -55.579
1514.1000, -55.569
1514.1200, -55.538
1514.1400, -55.528
1514.1600, -55.505
1514.1800, -55.489
1514.2000, -55.494
1514.2200, -55.478
1514.2400, -55.463
1514.2600, -55.450
1514.2800, -55.431
1514.3000, -55.419
1514.3200, -55.399
1514.3400, -55.400
1514.3600, -55.388
1514.3800, -55.363
1514.4000, -55.352
1514.4200, -55.334
1514.4400, -55.327
1514.4600, -55.325
1514.4800, -55.302
1514.5000, -55.289
1514.5200, -55.266
1514.5400, -55.260
1514.5600, -55.245
1514.5800, -55.221
1514.6000, -55.215
1514.6200, -55.229
1514.6400, -55.211
1514.6600, -55.202
1514.6800, -55.178
1514.7000, -55.177
1514.7200, -55.149
1514.7400, -55.124
1514.7600, -55.103
1514.7800, -55.119
1514.8000, -55.096
1514.8200, -55.093
1514.8400, -55.072
1514.8600, -55.054
1514.8800, -55.044
1514.9000, -55.036
1514.9200, -55.038
1514.9400, -55.013
1514.9600, -55.000
1514.9800, -55.001
1515.0000, -54.973
1515.0200, -54.939
1515.0400, -54.926
1515.0600, -54.902
1515.0800, -54.892
1515.1000, -54.860
1515.1200, -54.855
1515.1400, -54.838
1515.1600, -54.838
1515.1800, -54.826
1515.2000, -54.804
1515.2200, -54.788
1515.2400, -54.766
1515.2600, -54.754
1515.2800, -54.740
1515.3000, -54.729
1515.3200, -54.706
1515.3400, -54.694
1515.3600, -54.668
1515.3800, -54.675
1515.4000, -54.664
1515.4200, -54.650
1515.4400, -54.630
1515.4600, -54.605
1515.4800, -54.596
1515.5000, -54.585
1515.5200, -54.554
1515.5400, -54.544
1515.5600, -54.544
1515.5800, -54.543
1515.6000, -54.519
1515.6200, -54.515
1515.6400, -54.486
1515.6600, -54.479
1515.6800, -54.468
1515.7000, -54.425
1515.7200, -54.443
1515.7400, -54.412
1515.7600, -54.397
1515.7800, -54.393
1515.8000, -54.382
1515.8200, -54.349
1515.8400, -54.353
1515.8600, -54.348
1515.8800, -54.337
1515.9000, -54.320
1515.9200, -54.305
1515.9400, -54.289
1515.9600, -54.258
1515.9800, -54.240
1516.0000, -54.219
1516.0200, -54.192
1516.0400, -54.164
1516.0600, -54.157
1516.0800, -54.141
1516.1000, -54.138
1516.1200, -54.121
1516.1400, -54.087
1516.1600, -54.079
1516.1800, -54.051
1516.2000, -54.050
1516.2200, -54.019
1516.2400, -54.018
1516.2600, -54.010
1516.2800, -53.984
1516.3000, -53.958
1516.3200, -53.946
1516.3400, -53.952
1516.3600, -53.918
1516.3800, -53.892
1516.4000, -53.882
1516.4200, -53.866
1516.4400, -53.847
1516.4600, -53.821
1516.4800, -53.808
1516.5000, -53.789
1516.5200, -53.771
1516.5400, -53.771
1516.5600, -53.768
1516.5800, -53.746
1516.6000, -53.737
1516.6200, -53.732
1516.6400, -53.679
1516.6600, -53.666
1516.6800, -53.664
1516.7000, -53.647
1516.7200, -53.631
1516.7400, -53.619
1516.7600, -53.585
1516.7800, -53.575
1516.8000, -53.571
1516.8200, -53.566
1516.8400, -53.554
1516.8600, -53.535
1516.8800, -53.508
1516.9000, -53.484
1516.9200, -53.451
1516.9400, -53.428
1516.9600, -53.400
1516.9800, -53.385
1517.0000, -53.351
1517.0200, -53.342
1517.0400, -53.339
1517.0600, -53.324
1517.0800, -53.289
1517.1000, -53.271
1517.1200, -53.248
1517.1400, -53.234
1517.1600, -53.219
1517.1800, -53.196
1517.2000, -53.187
1517.2200, -53.153
1517.2400, -53.132
1517.2600, -53.116
1517.2800, -53.100
1517.3000, -53.097
1517.3200, -53.069
1517.3400, -53.047
1517.3600, -53.029
1517.3800, -53.009
1517.4000, -52.994
1517.4200, -52.965
1517.4400, -52.950
1517.4600, -52.922
1517.4800, -52.914
1517.5000, -52.925
1517.5200, -52.895
1517.5400, -52.881
1517.5600, -52.863
1517.5800, -52.837
1517.6000, -52.819
1517.6200, -52.813
1517.6400, -52.778
1517.6600, -52.755
1517.6800, -52.752
1517.7000, -52.728
1517.7200, -52.677
1517.7400, -52.686
1517.7600, -52.680
1517.7800, -52.660
1517.8000, -52.642
1517.8200, -52.626
1517.8400, -52.599
1517.8600, -52.547
1517.8800, -52.534
1517.9000, -52.488
1517.9200, -52.491
1517.9400, -52.443
1517.9600, -52.429
1517.9800, -52.413
1518.0000, -52.405
1518.0200, -52.375
1518.0400, -52.343
1518.0600, -52.329
1518.0800, -52.304
1518.1000, -52.285
1518.1200, -52.267
1518.1400, -52.252
1518.1600, -52.227
1518.1800, -52.200
1518.2000, -52.167
1518.2200, -52.149
1518.2400, -52.150
1518.2600, -52.115
1518.2800, -52.089
1518.3000, -52.060
1518.3200, -52.041
1518.3400, -52.025
1518.3600, -51.999
1518.3800, -51.976
1518.4000, -51.962
1518.4200, -51.969
1518.4400, -51.935
1518.4600, -51.911
1518.4800, -51.882
1518.5000, -51.880
1518.5200, -51.847
1518.5400, -51.794
1518.5600, -51.807
1518.5800, -51.785
1518.6000, -51.763
1518.6200, -51.742
1518.6400, -51.715
1518.6600, -51.676
1518.6800, -51.674
1518.7000, -51.663
1518.7200, -51.641
1518.7400, -51.623
1518.7600, -51.601
1518.7800, -51.574
1518.8000, -51.515
1518.8200, -51.504
1518.8400, -51.454
1518.8600, -51.434
1518.8800, -51.397
1518.9000, -51.376
1518.9200, -51.366
1518.9400, -51.356
1518.9600, -51.322
1518.9800, -51.278
1519.0000, -51.262
1519.0200, -51.230
1519.0400, -51.214
1519.0600, -51.179
1519.0800, -51.172
1519.1000, -51.144
1519.1200, -51.118
1519.1400, -51.075
1519.1600, -51.063
1519.1800, -51.053
1519.2000, -51.018
1519.2200, -50.980
1519.2400, -50.950
1519.2600, -50.925
1519.2800, -50.899
1519.3000, -50.868
1519.3200, -50.835
1519.3400, -50.811
1519.3600, -50.785
1519.3800, -50.784
1519.4000, -50.777
1519.4200, -50.737
1519.4400, -50.710
1519.4600, -50.682
1519.4800, -50.631
1519.5000, -50.619
1519.5200, -50.603
1519.5400, -50.580
1519.5600, -50.564
1519.5800, -50.538
1519.6000, -50.471
1519.6200, -50.474
1519.6400, -50.464
1519.6600, -50.436
1519.6800, -50.413
1519.7000, -50.391
1519.7200, -50.359
1519.7400, -50.306
1519.7600, -50.268
1519.7800, -50.220
1519.8000, -50.186
1519.8200, -50.156
1519.8400, -50.127
1519.8600, -50.105
1519.8800, -50.092
1519.9000, -50.066
1519.9200, -50.014
1519.9400, -49.994
1519.9600, -49.961
1519.9800, -49.927
1520.0000, -49.895
1520.0200, -49.881
1520.0400, -49.857
1520.0600, -49.818
1520.0800, -49.769
1520.1000, -49.739
1520.1200, -49.730
1520.1400, -49.700
1520.1600, -49.647
1520.1800, -49.619
1520.2000, -49.592
1520.2200, -49.555
1520.2400, -49.520
1520.2600, -49.523
1520.2800, -49.504
1520.3000, -49.471
1520.3200, -49.437
1520.3400, -49.396
1520.3600, -49.351
1520.3800, -49.340
1520.4000, -49.313
1520.4200, -49.238
1520.4400, -49.214
1520.4600, -49.207
1520.4800, -49.161
1520.5000, -49.138
1520.5200, -49.124
1520.5400, -49.049
1520.5600, -49.047
1520.5800, -49.022
1520.6000, -49.001
1520.6200, -48.971
1520.6400, -48.937
1520.6600, -48.903
1520.6800, -48.847
1520.7000, -48.802
1520.7200, -48.746
1520.7400, -48.720
1520.7600, -48.677
1520.7800, -48.642
1520.8000, -48.613
1520.8200, -48.594
1520.8400, -48.561
1520.8600, -48.497
1520.8800, -48.475
1520.9000, -48.443
1520.9200, -48.404
1520.9400, -48.358
1520.9600, -48.344
1520.9800, -48.303
1521.0000, -48.245
1521.0200, -48.211
1521.0400, -48.177
1521.0600, -48.152
1521.0800, -48.135
1521.1000, -48.064
1521.1200, -48.028
1521.1400, -47.994
1521.1600, -47.964
1521.1800, -47.911
1521.2000, -47.870
1521.2200, -47.840
1521.2400, -47.847
1521.2600, -47.804
1521.2800, -47.772
1521.3000, -47.701
1521.3200, -47.700
1521.3400, -47.658
1521.3600, -47.609
1521.3800, -47.572
1521.4000, -47.539
1521.4200, -47.489
1521.4400, -47.466
1521.4600, -47.441
1521.4800, -47.389
1521.5000, -47.350
1521.5200, -47.331
1521.5400, -47.300
1521.5600, -47.265
1521.5800, -47.225
1521.6000, -47.184
1521.6200, -47.124
1521.6400, -47.063
1521.6600, -47.016
1521.6800, -46.980
1521.7000, -46.930
1521.7200, -46.883
1521.7400, -46.863
1521.7600, -46.839
1521.7800, -46.787
1521.8000, -46.729
1521.8200, -46.688
1521.8400, -46.657
1521.8600, -46.612
1521.8800, -46.569
1521.9000, -46.547
1521.9200, -46.508
1521.9400, -46.447
1521.9600, -46.407
1521.9800, -46.365
1522.0000, -46.349
1522.0200, -46.309
1522.0400, -46.243
1522.0600, -46.207
1522.0800, -46.166
1522.1000, -46.127
1522.1200, -46.093
1522.1400, -46.040
1522.1600, -46.001
1522.1800, -45.961
1522.2000, -45.936
1522.2200, -45.913
1522.2400, -45.861
1522.2600, -45.826
1522.2800, -45.800
1522.3000, -45.718
1522.3200, -45.704
1522.3400, -45.663
1522.3600, -45.619
1522.3800, -45.574
1522.4000, -45.545
1522.4200, -45.496
1522.4400, -45.457
1522.4600, -45.422
1522.4800, -45.389
1522.5000, -45.349
1522.5200, -45.307
1522.5400, -45.261
1522.5600, -45.206
1522.5800, -45.141
1522.6000, -45.096
1522.6200, -45.046
1522.6400, -45.003
1522.6600, -44.957
1522.6800, -44.912
1522.7000, -44.882
1522.7200, -44.840
1522.7400, -44.786
1522.7600, -44.740
1522.7800, -44.701
1522.8000, -44.659
1522.8200, -44.615
1522.8400, -44.579
1522.8600, -44.538
1522.8800, -44.486
1522.9000, -44.443
1522.9200, -44.406
1522.9400, -44.374
1522.9600, -44.335
1522.9800, -44.278
1523.0000, -44.231
1523.0200, -44.191
1523.0400, -44.145
1523.0600, -44.107
1523.0800, -44.060
1523.1000, -44.017
1523.1200, -43.976
1523.1400, -43.946
1523.1600, -43.915
1523.1800, -43.866
1523.2000, -43.828
1523.2200, -43.781
1523.2400, -43.725
1523.2600, -43.696
1523.2800, -43.656
1523.3000, -43.610
1523.3200, -43.567
1523.3400, -43.531
1523.3600, -43.465
1523.3800, -43.433
1523.4000, -43.390
1523.4200, -43.360
1523.4400, -43.320
1523.4600, -43.276
1523.4800, -43.233
1523.5000, -43.178
1523.5200, -43.122
1523.5400, -43.079
1523.5600, -43.041
1523.5800, -42.993
1523.6000, -42.951
1523.6200, -42.912
1523.6400, -42.872
1523.6600, -42.825
1523.6800, -42.778
1523.7000, -42.738
1523.7200, -42.695
1523.7400, -42.653
1523.7600, -42.613
1523.7800, -42.572
1523.8000, -42.528
1523.8200, -42.483
1523.8400, -42.441
1523.8600, -42.400
1523.8800, -42.358
1523.9000, -42.317
1523.9200, -42.273
1523.9400, -42.231
1523.9600, -42.189
1523.9800, -42.146
1524.0000, -42.104
1524.0200, -42.063
1524.0400, -42.023
1524.0600, -41.989
1524.0800, -41.946
1524.1000, -41.897
1524.1200, -41.857
1524.1400, -41.810
1524.1600, -41.773
1524.1800, -41.726
1524.2000, -41.685
1524.2200, -41.645
1524.2400, -41.605
1524.2600, -41.558
1524.2800, -41.521
1524.3000, -41.477
1524.3200, -41.433
1524.3400, -41.393
1524.3600, -41.352
1524.3800, -41.311
1524.4000, -41.272
1524.4200, -41.230
1524.4400, -41.183
1524.4600, -41.139
1524.4800, -41.097
1524.5000, -41.054
1524.5200, -41.011
1524.5400, -40.970
1524.5600, -40.929
1524.5800, -40.891
1524.6000, -40.851
1524.6200, -40.807
1524.6400, -40.765
1524.6600, -40.721
1524.6800, -40.679
1524.7000, -40.638
1524.7200, -40.598
1524.7400, -40.558
1524.7600, -40.516
1524.7800, -40.476
1524.8000, -40.432
1524.8200, -40.391
1524.8400, -40.351
1524.8600, -40.310
1524.8800, -40.271
1524.9000, -40.229
1524.9200, -40.188
1524.9400, -40.146
1524.9600, -40.102
1524.9800, -40.064
1525.0000, -40.024
1525.0200, -39.985
1525.0400, -39.944
1525.0600, -39.903
1525.0800, -39.860
1525.1000, -39.816
1525.1200, -39.778
1525.1400, -39.736
1525.1600, -39.697
1525.1800, -39.660
1525.2000, -39.618
1525.2200, -39.581
1525.2400, -39.538
1525.2600, -39.498
1525.2800, -39.459
1525.3000, -39.422
1525.3200, -39.382
1525.3400, -39.342
1525.3600, -39.307
1525.3800, -39.264
1525.4000, -39.223
1525.4200, -39.183
1525.4400, -39.141
1525.4600, -39.100
1525.4800, -39.059
1525.5000, -39.018
1525.5200, -38.978
1525.5400, -38.936
1525.5600, -38.895
1525.5800, -38.851
1525.6000, -38.809
1525.6200, -38.771
1525.6400, -38.729
1525.6600, -38.691
1525.6800, -38.649
1525.7000, -38.607
1525.7200, -38.562
1525.7400, -38.521
1525.7600, -38.478
1525.7800, -38.437
1525.8000, -38.396
1525.8200, -38.352
1525.8400, -38.309
1525.8600, -38.272
1525.8800, -38.229
1525.9000, -38.189
1525.9200, -38.146
1525.9400, -38.106
1525.9600, -38.072
1525.9800, -38.032
1526.0000, -37.999
1526.0200, -37.962
1526.0400, -37.919
1526.0600, -37.873
1526.0800, -37.835
1526.1000, -37.796
1526.1200, -37.758
1526.1400, -37.721
1526.1600, -37.681
1526.1800, -37.634
1526.2000, -37.603
1526.2200, -37.562
1526.2400, -37.521
1526.2600, -37.479
1526.2800, -37.440
1526.3000, -37.399
1526.3200, -37.348
1526.3400, -37.309
1526.3600, -37.272
1526.3800, -37.234
1526.4000, -37.196
1526.4200, -37.152
1526.4400, -37.115
1526.4600, -37.077
1526.4800, -37.033
1526.5000, -36.991
1526.5200, -36.950
1526.5400, -36.910
1526.5600, -36.869
1526.5800, -36.832
1526.6000, -36.792
1526.6200, -36.747
1526.6400, -36.710
1526.6600, -36.665
1526.6800, -36.631
1526.7000, -36.596
1526.7200, -36.549
1526.7400, -36.510
1526.7600, -36.469
1526.7800, -36.430
1526.8000, -36.388
1526.8200, -36.353
1526.8400, -36.314
1526.8600, -36.274
1526.8800, -36.238
1526.9000, -36.211
1526.9200, -36.176
1526.9400, -36.138
1526.9600, -36.093
1526.9800, -36.036
1527.0000, -35.994
1527.0200, -35.965
1527.0400, -35.925
1527.0600, -35.879
1527.0800, -35.852
1527.1000, -35.803
1527.1200, -35.770
1527.1400, -35.734
1527.1600, -35.699
1527.1800, -35.664
1527.2000, -35.628
1527.2200, -35.591
1527.2400, -35.529
1527.2600, -35.488
1527.2800, -35.447
1527.3000, -35.413
1527.3200, -35.365
1527.3400, -35.327
1527.3600, -35.285
1527.3800, -35.253
1527.4000, -35.217
1527.4200, -35.155
1527.4400, -35.114
1527.4600, -35.078
1527.4800, -35.031
1527.5000, -34.982
1527.5200, -34.947
1527.5400, -34.877
1527.5600, -34.832
1527.5800, -34.779
1527.6000, -34.735
1527.6200, -34.706
1527.6400, -34.658
1527.6600, -34.596
1527.6800, -34.550
1527.7000, -34.496
1527.7200, -34.457
1527.7400, -34.408
1527.7600, -34.365
1527.7800, -34.317
1527.8000, -34.273
1527.8200, -34.251
1527.8400, -34.220
1527.8600, -34.155
1527.8800, -34.122
1527.9000, -34.092
1527.9200, -34.005
1527.9400, -33.970
1527.9600, -33.932
1527.9800, -33.884
1528.0000, -33.851
1528.0200, -33.787
1528.0400, -33.716
1528.0600, -33.668
1528.0800, -33.649
1528.1000, -33.593
1528.1200, -33.523
1528.1400, -33.452
1528.1600, -33.434
1528.1800, -33.372
1528.2000, -33.322
1528.2200, -33.262
1528.2400, -33.212
1528.2600, -33.157
1528.2800, -33.117
1528.3000, -33.088
1528.3200, -33.058
1528.3400, -32.998
1528.3600, -32.929
1528.3800, -32.879
1528.4000, -32.824
1528.4200, -32.784
1528.4400, -32.732
1528.4600, -32.703
1528.4800, -32.657
1528.5000, -32.599
1528.5200, -32.554
1528.5400, -32.529
1528.5600, -32.518
1528.5800, -32.457
1528.6000, -32.413
1528.6200, -32.364
1528.6400, -32.315
1528.6600, -32.283
1528.6800, -32.241
1528.7000, -32.198
1528.7200, -32.152
1528.7400, -32.127
1528.7600, -32.132
1528.7800, -32.093
1528.8000, -32.045
1528.8200, -32.005
1528.8400, -31.939
1528.8600, -31.849
1528.8800, -31.864
1528.9000, -31.792
1528.9200, -31.727
1528.9400, -31.708
1528.9600, -31.632
1528.9800, -31.590
1529.0000, -31.554
1529.0200, -31.540
1529.0400, -31.633
1529.0600, -31.572
1529.0800, -31.452
1529.1000, -31.553
1529.1200, -31.330
1529.1400, -31.279
1529.1600, -31.269
1529.1800, -31.270
1529.2000, -31.193
1529.2200, -31.094
1529.2400, -31.160
1529.2600, -31.085
1529.2800, -30.951
1529.3000, -30.924
1529.3200, -30.919
1529.3400, -30.868
1529.3600, -30.848
1529.3800, -30.792
1529.4000, -30.715
1529.4200, -30.601
1529.4400, -30.491
1529.4600, -30.487
1529.4800, -30.542
1529.5000, -30.462
1529.5200, -30.487
1529.5400, -30.440
1529.5600, -30.458
1529.5800, -30.567
1529.6000, -30.399
1529.6200, -30.316
1529.6400, -30.157
1529.6600, -30.171
1529.6800, -30.009
1529.7000, -30.044
1529.7200, -30.073
1529.7400, -30.079
1529.7600, -30.015
1529.7800, -29.962
1529.8000, -29.867
1529.8200, -29.823
1529.8400, -29.827
1529.8600, -29.642
1529.8800, -29.728
1529.9000, -29.549
1529.9200, -29.540
1529.9400, -29.574
1529.9600, -29.482
1529.9800, -29.396
1530.0000, -29.375
1530.0200, -29.248
1530.0400, -29.196
1530.0600, -29.209
1530.0800, -29.235
1530.1000, -29.084
1530.1200, -29.086
1530.1400, -29.013
1530.1600, -28.995
1530.1800, -29.022
1530.2000, -28.913
1530.2200, -28.933
1530.2400, -28.841
1530.2600, -28.854
1530.2800, -28.943
1530.3000, -28.987
1530.3200, -28.889
1530.3400, -28.966
1530.3600, -28.883
1530.3800, -28.702
1530.4000, -28.728
1530.4200, -28.606
1530.4400, -28.612
1530.4600, -28.697
1530.4800, -28.511
1530.5000, -28.516
1530.5200, -28.491
1530.5400, -28.259
1530.5600, -28.267
1530.5800, -28.269
1530.6000, -28.250
1530.6200, -28.291
1530.6400, -28.102
1530.6600, -28.135
1530.6800, -28.123
1530.7000, -28.227
1530.7200, -28.213
1530.7400, -28.170
1530.7600, -28.058
1530.7800, -28.084
1530.8000, -28.240
1530.8200, -28.366
1530.8400, -26.922
1530.8600, -27.915
1530.8800, -28.252
1530.9000, -28.150
1530.9200, -28.157
1530.9400, -28.182
1530.9600, -28.147
1530.9800, -27.969
1531.0000, -27.773
1531.0200, -27.919
1531.0400, -27.561
1531.0600, -28.122
1531.0800, -28.100
1531.1000, -27.666
1531.1200, -28.109
1531.1400, -28.109
1531.1600, -28.125
1531.1800, -28.138
1531.2000, -28.186
1531.2200, -28.011
1531.2400, -27.947
1531.2600, -27.463
1531.2800, -27.533
1531.3000, -27.778
1531.3200, -26.802
1531.3400, -27.128
1531.3600, -27.451
1531.3800, -27.548
1531.4000, -26.922
1531.4200, -26.689
1531.4400, -27.108
1531.4600, -27.490
1531.4800, -26.664
1531.5000, -27.151
1531.5200, -26.656
1531.5400, -26.833
1531.5600, -26.768
1531.5800, -26.957
1531.6000, -26.222
1531.6200, -26.217
1531.6400, -26.791
1531.6600, -26.144
1531.6800, -27.336
1531.7000, -27.267
1531.7200, -26.749
1531.7400, -26.604
1531.7600, -27.824
1531.7800, -27.633
1531.8000, -27.562
1531.8200, -27.055
1531.8400, -26.933
1531.8600, -26.838
1531.8800, -25.905
1531.9000, -26.394
1531.9200, -27.222
1531.9400, -25.340
1531.9600, -25.941
1531.9800, -26.035
1532.0000, -24.222
1532.0200, -24.698
1532.0400, -25.778
1532.0600, -24.097
1532.0800, -24.195
1532.1000, -26.317
1532.1200, -26.539
1532.1400, -26.630
1532.1600, -27.231
1532.1800, -25.898
1532.2000, -27.348
1532.2200, -26.003
1532.2400, -26.503
1532.2600, -27.614
1532.2800, -26.032
1532.3000, -25.230
1532.3200, -27.583
1532.3400, -27.412
1532.3600, -25.333
1532.3800, -26.346
1532.4000, -27.764
1532.4200, -27.620
1532.4400, -25.414
1532.4600, -26.630
1532.4800, -27.636
1532.5000, -25.478
1532.5200, -26.625
1532.5400, -27.136
1532.5600, -25.661
1532.5800, -24.237
1532.6000, -26.933
1532.6200, -26.770
1532.6400, -26.160
1532.6600, -25.689
1532.6800, -27.356
1532.7000, -27.416
1532.7200, -27.791
1532.7400, -27.049
1532.7600, -27.247
1532.7800, -26.228
1532.8000, -26.499
1532.8200, -24.788
1532.8400, -26.168
1532.8600, -27.419
1532.8800, -27.402
1532.9000, -27.655
1532.9200, -25.043
1532.9400, -27.328
1532.9600, -28.100
1532.9800, -27.990
1533.0000, -27.001
1533.0200, -27.658
1533.0400, -28.329
1533.0600, -26.672
1533.0800, -28.460
1533.1000, -26.193
1533.1200, -28.339
1533.1400, -27.900
1533.1600, -27.086
1533.1800, -28.479
1533.2000, -28.512
1533.2200, -28.828
1533.2400, -26.985
1533.2600, -28.123
1533.2800, -29.031
1533.3000, -28.810
1533.3200, -28.817
1533.3400, -27.950
1533.3600, -27.620
1533.3800, -28.823
1533.4000, -29.052
1533.4200, -28.882
1533.4400, -28.888
1533.4600, -29.001
1533.4800, -29.047
1533.5000, -29.350
1533.5200, -29.360
1533.5400, -29.058
1533.5600, -29.406
1533.5800, -29.351
1533.6000, -29.407
1533.6200, -29.699
1533.6400, -29.534
1533.6600, -29.596
1533.6800, -29.772
1533.7000, -29.936
1533.7200, -30.041
1533.7400, -30.148
1533.7600, -30.008
1533.7800, -30.004
1533.8000, -30.144
1533.8200, -30.179
1533.8400, -30.242
1533.8600, -30.382
1533.8800, -30.374
1533.9000, -30.401
1533.9200, -30.648
1533.9400, -30.733
1533.9600, -30.788
1533.9800, -30.761
1534.0000, -30.731
1534.0200, -30.844
1534.0400, -30.932
1534.0600, -30.952
1534.0800, -31.184
1534.1000, -31.168
1534.1200, -31.261
1534.1400, -31.210
1534.1600, -31.266
1534.1800, -31.440
1534.2000, -31.437
1534.2200, -31.433
1534.2400, -31.498
1534.2600, -31.614
1534.2800, -31.594
1534.3000, -31.655
1534.3200, -31.761
1534.3400, -31.895
1534.3600, -31.954
1534.3800, -32.091
1534.4000, -32.153
1534.4200, -32.162
1534.4400, -32.328
1534.4600, -32.379
1534.4800, -32.423
1534.5000, -32.515
1534.5200, -32.689
1534.5400, -32.566
1534.5600, -32.626
1534.5800, -32.806
1534.6000, -32.898
1534.6200, -32.925
1534.6400, -32.998
1534.6600, -33.058
1534.6800, -33.095
1534.7000, -33.093
1534.7200, -33.146
1534.7400, -33.217
1534.7600, -33.267
1534.7800, -33.371
1534.8000, -33.389
1534.8200, -33.439
1534.8400, -33.539
1534.8600, -33.643
1534.8800, -33.668
1534.9000, -33.698
1534.9200, -33.753
1534.9400, -33.788
1534.9600, -33.851
1534.9800, -33.919
1535.0000, -33.977
1535.0200, -34.034
1535.0400, -34.093
1535.0600, -34.161
1535.0800, -34.212
1535.1000, -34.247
1535.1200, -34.298
1535.1400, -34.333
1535.1600, -34.394
1535.1800, -34.463
1535.2000, -34.528
1535.2200, -34.597
1535.2400, -34.651
1535.2600, -34.708
1535.2800, -34.760
1535.3000, -34.832
1535.3200, -34.895
1535.3400, -34.898
1535.3600, -34.987
1535.3800, -35.025
1535.4000, -35.055
1535.4200, -35.125
1535.4400, -35.179
1535.4600, -35.244
1535.4800, -35.301
1535.5000, -35.374
1535.5200, -35.433
1535.5400, -35.484
1535.5600, -35.532
1535.5800, -35.581
1535.6000, -35.608
1535.6200, -35.666
1535.6400, -35.704
1535.6600, -35.761
1535.6800, -35.829
1535.7000, -35.891
1535.7200, -35.966
1535.7400, -36.021
1535.7600, -36.069
1535.7800, -36.124
1535.8000, -36.181
1535.8200, -36.244
1535.8400, -36.289
1535.8600, -36.348
1535.8800, -36.393
1535.9000, -36.441
1535.9200, -36.496
1535.9400, -36.557
1535.9600, -36.615
1535.9800, -36.672
1536.0000, -36.707
1536.0200, -36.757
1536.0400, -36.797
1536.0600, -36.844
1536.0800, -36.889
1536.1000, -36.939
1536.1200, -36.985
1536.1400, -37.032
1536.1600, -37.101
1536.1800, -37.140
1536.2000, -37.187
1536.2200, -37.238
1536.2400, -37.290
1536.2600, -37.312
1536.2800, -37.370
1536.3000, -37.408
1536.3200, -37.442
1536.3400, -37.489
1536.3600, -37.533
1536.3800, -37.571
1536.4000, -37.614
1536.4200, -37.670
1536.4400, -37.714
1536.4600, -37.752
1536.4800, -37.788
1536.5000, -37.816
1536.5200, -37.832
1536.5400, -37.875
1536.5600, -37.924
1536.5800, -37.957
1536.6000, -37.994
1536.6200, -38.030
1536.6400, -38.080
1536.6600, -38.109
1536.6800, -38.129
1536.7000, -38.160
1536.7200, -38.198
1536.7400, -38.238
1536.7600, -38.263
1536.7800, -38.304
1536.8000, -38.324
1536.8200, -38.357
1536.8400, -38.393
1536.8600, -38.429
1536.8800, -38.471
1536.9000, -38.510
1536.9200, -38.530
1536.9400, -38.557
1536.9600, -38.589
1536.9800, -38.620
1537.0000, -38.647
1537.0200, -38.682
1537.0400, -38.718
1537.0600, -38.752
1537.0800, -38.803
1537.1000, -38.838
1537.1200, -38.850
1537.1400, -38.896
1537.1600, -38.928
1537.1800, -38.936
1537.2000, -38.975
1537.2200, -39.003
1537.2400, -39.031
1537.2600, -39.059
1537.2800, -39.087
1537.3000, -39.117
1537.3200, -39.128
1537.3400, -39.179
1537.3600, -39.203
1537.3800, -39.211
1537.4000, -39.241
1537.4200, -39.287
1537.4400, -39.291
1537.4600, -39.315
1537.4800, -39.339
1537.5000, -39.358
1537.5200, -39.390
1537.5400, -39.417
1537.5600, -39.447
1537.5800, -39.475
1537.6000, -39.489
1537.6200, -39.516
1537.6400, -39.539
1537.6600, -39.562
1537.6800, -39.581
1537.7000, -39.610
1537.7200, -39.624
1537.7400, -39.647
1537.7600, -39.661
1537.7800, -39.688
1537.8000, -39.712
1537.8200, -39.735
1537.8400, -39.742
1537.8600, -39.768
1537.8800, -39.785
1537.9000, -39.807
1537.9200, -39.821
1537.9400, -39.844
1537.9600, -39.863
1537.9800, -39.900
1538.0000, -39.909
1538.0200, -39.927
1538.0400, -39.950
1538.0600, -39.971
1538.0800, -39.983
1538.1000, -39.988
1538.1200, -40.021
1538.1400, -40.037
1538.1600, -40.047
1538.1800, -40.074
1538.2000, -40.086
1538.2200, -40.106
1538.2400, -40.121
1538.2600, -40.149
1538.2800, -40.152
1538.3000, -40.168
1538.3200, -40.165
1538.3400, -40.198
1538.3600, -40.194
1538.3800, -40.206
1538.4000, -40.228
1538.4200, -40.229
1538.4400, -40.244
1538.4600, -40.270
1538.4800, -40.279
1538.5000, -40.296
1538.5200, -40.298
1538.5400, -40.309
1538.5600, -40.323
1538.5800, -40.338
1538.6000, -40.344
1538.6200, -40.365
1538.6400, -40.371
1538.6600, -40.384
1538.6800, -40.396
1538.7000, -40.409
1538.7200, -40.424
1538.7400, -40.436
1538.7600, -40.429
1538.7800, -40.440
1538.8000, -40.453
1538.8200, -40.468
1538.8400, -40.470
1538.8600, -40.478
1538.8800, -40.485
1538.9000, -40.494
1538.9200, -40.521
1538.9400, -40.526
1538.9600, -40.521
1538.9800, -40.550
1539.0000, -40.552
1539.0200, -40.557
1539.0400, -40.571
1539.0600, -40.573
1539.0800, -40.582
1539.1000, -40.593
1539.1200, -40.596
1539.1400, -40.613
1539.1600, -40.618
1539.1800, -40.629
1539.2000, -40.636
1539.2200, -40.641
1539.2400, -40.645
1539.2600, -40.637
1539.2800, -40.631
1539.3000, -40.636
1539.3200, -40.644
1539.3400, -40.646
1539.3600, -40.654
1539.3800, -40.665
1539.4000, -40.670
1539.4200, -40.679
1539.4400, -40.670
1539.4600, -40.679
1539.4800, -40.680
1539.5000, -40.695
1539.5200, -40.691
1539.5400, -40.701
1539.5600, -40.707
1539.5800, -40.711
1539.6000, -40.715
1539.6200, -40.727
1539.6400, -40.737
1539.6600, -40.737
1539.6800, -40.736
1539.7000, -40.733
1539.7200, -40.735
1539.7400, -40.741
1539.7600, -40.739
1539.7800, -40.741
1539.8000, -40.743
1539.8200, -40.748
1539.8400, -40.769
1539.8600, -40.753
1539.8800, -40.766
1539.9000, -40.782
1539.9200, -40.779
1539.9400, -40.775
1539.9600, -40.792
1539.9800, -40.785
1540.0000, -40.782
1540.0200, -40.792
1540.0400, -40.785
1540.0600, -40.789
1540.0800, -40.796
1540.1000, -40.812
1540.1200, -40.802
1540.1400, -40.788
1540.1600, -40.802
1540.1800, -40.800
1540.2000, -40.795
1540.2200, -40.789
1540.2400, -40.791
1540.2600, -40.793
1540.2800, -40.792
1540.3000, -40.793
1540.3200, -40.796
1540.3400, -40.789
1540.3600, -40.780
1540.3800, -40.779
1540.4000, -40.780
1540.4200, -40.781
1540.4400, -40.778
1540.4600, -40.775
1540.4800, -40.768
1540.5000, -40.768
1540.5200, -40.768
1540.5400, -40.770
1540.5600, -40.778
1540.5800, -40.769
1540.6000, -40.764
1540.6200, -40.765
1540.6400, -40.760
1540.6600, -40.759
1540.6800, -40.753
1540.7000, -40.755
1540.7200, -40.772
1540.7400, -40.771
1540.7600, -40.758
1540.7800, -40.761
1540.8000, -40.764
1540.8200, -40.763
1540.8400, -40.751
1540.8600, -40.752
1540.8800, -40.756
1540.9000, -40.753
1540.9200, -40.747
1540.9400, -40.752
1540.9600, -40.750
1540.9800, -40.740
1541.0000, -40.760
1541.0200, -40.757
1541.0400, -40.757
1541.0600, -40.755
1541.0800, -40.750
1541.1000, -40.725
1541.1200, -40.719
1541.1400, -40.714
1541.1600, -40.710
1541.1800, -40.705
1541.2000, -40.708
1541.2200, -40.708
1541.2400, -40.710
1541.2600, -40.701
1541.2800, -40.694
1541.3000, -40.694
1541.3200, -40.691
1541.3400, -40.689
1541.3600, -40.692
1541.3800, -40.688
1541.4000, -40.679
1541.4200, -40.677
1541.4400, -40.675
1541.4600, -40.678
1541.4800, -40.679
1541.5000, -40.665
1541.5200, -40.664
1541.5400, -40.663
1541.5600, -40.658
1541.5800, -40.655
1541.6000, -40.651
1541.6200, -40.649
1541.6400, -40.644
1541.6600, -40.657
1541.6800, -40.645
1541.7000, -40.633
1541.7200, -40.648
1541.7400, -40.646
1541.7600, -40.638
1541.7800, -40.641
1541.8000, -40.631
1541.8200, -40.625
1541.8400, -40.627
1541.8600, -40.628
1541.8800, -40.622
1541.9000, -40.617
1541.9200, -40.622
1541.9400, -40.624
1541.9600, -40.618
1541.9800, -40.613
1542.0000, -40.605
1542.0200, -40.578
1542.0400, -40.570
1542.0600, -40.565
1542.0800, -40.555
1542.1000, -40.551
1542.1200, -40.552
1542.1400, -40.552
1542.1600, -40.550
1542.1800, -40.538
1542.2000, -40.532
1542.2200, -40.527
1542.2400, -40.522
1542.2600, -40.518
1542.2800, -40.520
1542.3000, -40.510
1542.3200, -40.509
1542.3400, -40.503
1542.3600, -40.504
1542.3800, -40.501
1542.4000, -40.496
1542.4200, -40.486
1542.4400, -40.481
1542.4600, -40.476
1542.4800, -40.475
1542.5000, -40.468
1542.5200, -40.462
1542.5400, -40.458
1542.5600, -40.454
1542.5800, -40.470
1542.6000, -40.465
1542.6200, -40.453
1542.6400, -40.463
1542.6600, -40.447
1542.6800, -40.445
1542.7000, -40.450
1542.7200, -40.438
1542.7400, -40.430
1542.7600, -40.444
1542.7800, -40.445
1542.8000, -40.436
1542.8200, -40.437
1542.8400, -40.441
1542.8600, -40.439
1542.8800, -40.436
1542.9000, -40.430
1542.9200, -40.406
1542.9400, -40.392
1542.9600, -40.389
1542.9800, -40.388
1543.0000, -40.379
1543.0200, -40.377
1543.0400, -40.371
1543.0600, -40.377
1543.0800, -40.368
1543.1000, -40.354
1543.1200, -40.349
1543.1400, -40.347
1543.1600, -40.344
1543.1800, -40.341
1543.2000, -40.336
1543.2200, -40.327
1543.2400, -40.323
1543.2600, -40.326
1543.2800, -40.325
1543.3000, -40.331
1543.3200, -40.316
1543.3400, -40.309
1543.3600, -40.314
1543.3800, -40.308
1543.4000, -40.304
1543.4200, -40.300
1543.4400, -40.297
1543.4600, -40.293
1543.4800, -40.301
1543.5000, -40.303
1543.5200, -40.296
1543.5400, -40.302
1543.5600, -40.295
1543.5800, -40.281
1543.6000, -40.277
1543.6200, -40.282
1543.6400, -40.269
1543.6600, -40.275
1543.6800, -40.282
1543.7000, -40.266
1543.7200, -40.274
1543.7400, -40.269
1543.7600, -40.275
1543.7800, -40.267
1543.8000, -40.260
1543.8200, -40.256
1543.8400, -40.233
1543.8600, -40.230
1543.8800, -40.230
1543.9000, -40.226
1543.9200, -40.226
1543.9400, -40.230
1543.9600, -40.237
1543.9800, -40.232
1544.0000, -40.220
1544.0200, -40.219
1544.0400, -40.220
1544.0600, -40.217
1544.0800, -40.207
1544.1000, -40.211
1544.1200, -40.210
1544.1400, -40.203
1544.1600, -40.197
1544.1800, -40.194
1544.2000, -40.202
1544.2200, -40.205
1544.2400, -40.194
1544.2600, -40.195
1544.2800, -40.193
1544.3000, -40.194
1544.3200, -40.186
1544.3400, -40.183
1544.3600, -40.181
1544.3800, -40.180
1544.4000, -40.197
1544.4200, -40.176
1544.4400, -40.173
1544.4600, -40.188
1544.4800, -40.175
1544.5000, -40.164
1544.5200, -40.177
1544.5400, -40.172
1544.5600, -40.162
1544.5800, -40.173
1544.6000, -40.170
1544.6200, -40.155
1544.6400, -40.169
1544.6600, -40.181
1544.6800, -40.172
1544.7000, -40.169
1544.7200, -40.165
1544.7400, -40.167
1544.7600, -40.160
1544.7800, -40.165
1544.8000, -40.165
1544.8200, -40.163
1544.8400, -40.161
1544.8600, -40.169
1544.8800, -40.169
1544.9000, -40.158
1544.9200, -40.148
1544.9400, -40.150
1544.9600, -40.149
1544.9800, -40.150
1545.0000, -40.147
1545.0200, -40.143
1545.0400, -40.139
1545.0600, -40.137
1545.0800, -40.142
1545.1000, -40.145
1545.1200, -40.150
1545.1400, -40.143
1545.1600, -40.138
1545.1800, -40.138
1545.2000, -40.138
1545.2200, -40.134
1545.2400, -40.134
1545.2600, -40.134
1545.2800, -40.137
1545.3000, -40.151
1545.3200, -40.153
1545.3400, -40.159
1545.3600, -40.157
1545.3800, -40.157
1545.4000, -40.153
1545.4200, -40.151
1545.4400, -40.159
1545.4600, -40.145
1545.4800, -40.147
1545.5000, -40.147
1545.5200, -40.139
1545.5400, -40.125
1545.5600, -40.132
1545.5800, -40.141
1545.6000, -40.141
1545.6200, -40.144
1545.6400, -40.142
1545.6600, -40.124
1545.6800, -40.125
1545.7000, -40.124
1545.7200, -40.117
1545.7400, -40.122
1545.7600, -40.125
1545.7800, -40.128
1545.8000, -40.122
1545.8200, -40.111
1545.8400, -40.109
1545.8600, -40.110
1545.8800, -40.112
1545.9000, -40.110
1545.9200, -40.120
1545.9400, -40.113
1545.9600, -40.112
1545.9800, -40.111
1546.0000, -40.116
1546.0200, -40.127
1546.0400, -40.119
1546.0600, -40.106
1546.0800, -40.106
1546.1000, -40.104
1546.1200, -40.103
1546.1400, -40.098
1546.1600, -40.098
1546.1800, -40.110
1546.2000, -40.124
1546.2200, -40.114
1546.2400, -40.120
1546.2600, -40.115
1546.2800, -40.127
1546.3000, -40.122
1546.3200, -40.110
1546.3400, -40.119
1546.3600, -40.116
1546.3800, -40.120
1546.4000, -40.123
1546.4200, -40.126
1546.4400, -40.115
1546.4600, -40.135
1546.4800, -40.143
1546.5000, -40.146
1546.5200, -40.149
1546.5400, -40.151
1546.5600, -40.130
1546.5800, -40.126
1546.6000, -40.126
1546.6200, -40.127
1546.6400, -40.128
1546.6600, -40.129
1546.6800, -40.137
1546.7000, -40.143
1546.7200, -40.134
1546.7400, -40.133
1546.7600, -40.131
1546.7800, -40.128
1546.8000, -40.122
1546.8200, -40.124
1546.8400, -40.118
1546.8600, -40.119
1546.8800, -40.117
1546.9000, -40.120
1546.9200, -40.125
1546.9400, -40.124
1546.9600, -40.116
1546.9800, -40.117
1547.0000, -40.115
1547.0200, -40.118
1547.0400, -40.109
1547.0600, -40.106
1547.0800, -40.120
1547.1000, -40.130
1547.1200, -40.119
1547.1400, -40.125
1547.1600, -40.114
1547.1800, -40.136
1547.2000, -40.133
1547.2200, -40.139
1547.2400, -40.136
1547.2600, -40.132
1547.2800, -40.132
1547.3000, -40.141
1547.3200, -40.139
1547.3400, -40.131
1547.3600, -40.147
1547.3800, -40.160
1547.4000, -40.161
1547.4200, -40.160
1547.4400, -40.160
1547.4600, -40.149
1547.4800, -40.133
1547.5000, -40.137
1547.5200, -40.131
1547.5400, -40.136
1547.5600, -40.137
1547.5800, -40.135
1547.6000, -40.139
1547.6200, -40.139
1547.6400, -40.134
1547.6600, -40.139
1547.6800, -40.140
1547.7000, -40.145
1547.7200, -40.149
1547.7400, -40.157
1547.7600, -40.154
1547.7800, -40.151
1547.8000, -40.153
1547.8200, -40.161
1547.8400, -40.165
1547.8600, -40.161
1547.8800, -40.157
1547.9000, -40.161
1547.9200, -40.174
1547.9400, -40.165
1547.9600, -40.165
1547.9800, -40.184
1548.0000, -40.191
1548.0200, -40.191
1548.0400, -40.192
1548.0600, -40.187
1548.0800, -40.196
1548.1000, -40.199
1548.1200, -40.195
1548.1400, -40.192
1548.1600, -40.190
1548.1800, -40.180
1548.2000, -40.192
1548.2200, -40.193
1548.2400, -40.199
1548.2600, -40.194
1548.2800, -40.203
1548.3000, -40.213
1548.3200, -40.213
1548.3400, -40.211
1548.3600, -40.203
1548.3800, -40.192
1548.4000, -40.192
1548.4200, -40.190
1548.4400, -40.191
1548.4600, -40.197
1548.4800, -40.202
1548.5000, -40.211
1548.5200, -40.213
1548.5400, -40.201
1548.5600, -40.202
1548.5800, -40.205
1548.6000, -40.215
1548.6200, -40.216
1548.6400, -40.224
1548.6600, -40.225
1548.6800, -40.224
1548.7000, -40.227
1548.7200, -40.227
1548.7400, -40.239
1548.7600, -40.234
1548.7800, -40.231
1548.8000, -40.236
1548.8200, -40.239
1548.8400, -40.237
1548.8600, -40.236
1548.8800, -40.237
1548.9000, -40.237
1548.9200, -40.246
1548.9400, -40.255
1548.9600, -40.254
1548.9800, -40.251
1549.0000, -40.263
1549.0200, -40.261
1549.0400, -40.260
1549.0600, -40.269
1549.0800, -40.270
1549.1000, -40.264
1549.1200, -40.274
1549.1400, -40.270
1549.1600, -40.278
1549.1800, -40.283
1549.2000, -40.291
1549.2200, -40.295
1549.2400, -40.300
1549.2600, -40.301
1549.2800, -40.282
1549.3000, -40.279
1549.3200, -40.280
1549.3400, -40.276
1549.3600, -40.278
1549.3800, -40.280
1549.4000, -40.287
1549.4200, -40.292
1549.4400, -40.286
1549.4600, -40.286
1549.4800, -40.291
1549.5000, -40.294
1549.5200, -40.298
1549.5400, -40.310
1549.5600, -40.304
1549.5800, -40.307
1549.6000, -40.308
1549.6200, -40.310
1549.6400, -40.323
1549.6600, -40.321
1549.6800, -40.318
1549.7000, -40.319
1549.7200, -40.324
1549.7400, -40.329
1549.7600, -40.324
1549.7800, -40.328
1549.8000, -40.343
1549.8200, -40.355
1549.8400, -40.349
1549.8600, -40.355
1549.8800, -40.356
1549.9000, -40.369
1549.9200, -40.366
1549.9400, -40.356
1549.9600, -40.360
1549.9800, -40.360
1550.0000, -40.360
1550.0200, -40.377
1550.0400, -40.375
1550.0600, -40.375
1550.0800, -40.376
1550.1000, -40.393
1550.1200, -40.399
1550.1400, -40.402
1550.1600, -40.402
1550.1800, -40.380
1550.2000, -40.378
1550.2200, -40.380
1550.2400, -40.385
1550.2600, -40.386
1550.2800, -40.395
1550.3000, -40.406
1550.3200, -40.410
1550.3400, -40.409
1550.3600, -40.408
1550.3800, -40.419
1550.4000, -40.423
1550.4200, -40.420
1550.4400, -40.427
1550.4600, -40.424
1550.4800, -40.426
1550.5000, -40.431
1550.5200, -40.438
1550.5400, -40.443
1550.5600, -40.443
1550.5800, -40.437
1550.6000, -40.442
1550.6200, -40.443
1550.6400, -40.456
1550.6600, -40.455
1550.6800, -40.462
1550.7000, -40.481
1550.7200, -40.486
1550.7400, -40.477
1550.7600, -40.484
1550.7800, -40.488
1550.8000, -40.504
1550.8200, -40.500
1550.8400, -40.505
1550.8600, -40.516
1550.8800, -40.510
1550.9000, -40.519
1550.9200, -40.522
1550.9400, -40.522
1550.9600, -40.516
1550.9800, -40.518
1551.0000, -40.530
1551.0200, -40.532
1551.0400, -40.536
1551.0600, -40.536
1551.0800, -40.523
1551.1000, -40.519
1551.1200, -40.525
1551.1400, -40.523
1551.1600, -40.531
1551.1800, -40.536
1551.2000, -40.541
1551.2200, -40.545
1551.2400, -40.543
1551.2600, -40.545
1551.2800, -40.551
1551.3000, -40.553
1551.3200, -40.551
1551.3400, -40.558
1551.3600, -40.556
1551.3800, -40.559
1551.4000, -40.563
1551.4200, -40.571
1551.4400, -40.570
1551.4600, -40.571
1551.4800, -40.569
1551.5000, -40.571
1551.5200, -40.571
1551.5400, -40.572
1551.5600, -40.573
1551.5800, -40.578
1551.6000, -40.595
1551.6200, -40.602
1551.6400, -40.603
1551.6600, -40.607
1551.6800, -40.617
1551.7000, -40.624
1551.7200, -40.626
1551.7400, -40.618
1551.7600, -40.630
1551.7800, -40.634
1551.8000, -40.635
1551.8200, -40.649
1551.8400, -40.651
1551.8600, -40.641
1551.8800, -40.659
1551.9000, -40.667
1551.9200, -40.673
1551.9400, -40.674
1551.9600, -40.674
1551.9800, -40.664
1552.0000, -40.657
1552.0200, -40.661
1552.0400, -40.662
1552.0600, -40.673
1552.0800, -40.678
1552.1000, -40.681
1552.1200, -40.685
1552.1400, -40.683
1552.1600, -40.686
1552.1800, -40.692
1552.2000, -40.700
1552.2200, -40.700
1552.2400, -40.707
1552.2600, -40.702
1552.2800, -40.706
1552.3000, -40.712
1552.3200, -40.713
1552.3400, -40.723
1552.3600, -40.719
1552.3800, -40.714
1552.4000, -40.716
1552.4200, -40.725
1552.4400, -40.724
1552.4600, -40.719
1552.4800, -40.720
1552.5000, -40.726
1552.5200, -40.734
1552.5400, -40.744
1552.5600, -40.733
1552.5800, -40.749
1552.6000, -40.755
1552.6200, -40.755
1552.6400, -40.749
1552.6600, -40.763
1552.6800, -40.768
1552.7000, -40.771
1552.7200, -40.777
1552.7400, -40.779
1552.7600, -40.779
1552.7800, -40.785
1552.8000, -40.799
1552.8200, -40.803
1552.8400, -40.806
1552.8600, -40.804
1552.8800, -40.789
1552.9000, -40.788
1552.9200, -40.793
1552.9400, -40.791
1552.9600, -40.798
1552.9800, -40.806
1553.0000, -40.812
1553.0200, -40.810
1553.0400, -40.804
1553.0600, -40.807
1553.0800, -40.814
1553.1000, -40.817
1553.1200, -40.819
1553.1400, -40.827
1553.1600, -40.824
1553.1800, -40.829
1553.2000, -40.834
1553.2200, -40.839
1553.2400, -40.847
1553.2600, -40.848
1553.2800, -40.848
1553.3000, -40.854
1553.3200, -40.859
1553.3400, -40.864
1553.3600, -40.863
1553.3800, -40.862
1553.4000, -40.860
1553.4200, -40.866
1553.4400, -40.872
1553.4600, -40.871
1553.4800, -40.872
1553.5000, -40.875
1553.5200, -40.877
1553.5400, -40.867
1553.5600, -40.878
1553.5800, -40.874
1553.6000, -40.888
1553.6200, -40.895
1553.6400, -40.894
1553.6600, -40.900
1553.6800, -40.910
1553.7000, -40.913
1553.7200, -40.917
1553.7400, -40.919
1553.7600, -40.917
1553.7800, -40.903
1553.8000, -40.909
1553.8200, -40.910
1553.8400, -40.916
1553.8600, -40.918
1553.8800, -40.923
1553.9000, -40.931
1553.9200, -40.930
1553.9400, -40.921
1553.9600, -40.925
1553.9800, -40.926
1554.0000, -40.928
1554.0200, -40.931
1554.0400, -40.941
1554.0600, -40.942
1554.0800, -40.945
1554.1000, -40.951
1554.1200, -40.957
1554.1400, -40.969
1554.1600, -40.965
1554.1800, -40.963
1554.2000, -40.971
1554.2200, -40.973
1554.2400, -40.977
1554.2600, -40.979
1554.2800, -40.979
1554.3000, -40.980
1554.3200, -40.994
1554.3400, -40.993
1554.3600, -40.983
1554.3800, -40.992
1554.4000, -40.997
1554.4200, -40.990
1554.4400, -40.988
1554.4600, -40.993
1554.4800, -40.984
1554.5000, -40.996
1554.5200, -40.998
1554.5400, -40.995
1554.5600, -40.992
1554.5800, -41.003
1554.6000, -41.013
1554.6200, -41.016
1554.6400, -41.016
1554.6600, -41.008
1554.6800, -41.001
1554.7000, -41.005
1554.7200, -41.012
1554.7400, -41.014
1554.7600, -41.012
1554.7800, -41.016
1554.8000, -41.022
1554.8200, -41.020
1554.8400, -41.019
1554.8600, -41.021
1554.8800, -41.029
1554.9000, -41.032
1554.9200, -41.038
1554.9400, -41.042
1554.9600, -41.037
1554.9800, -41.040
1555.0000, -41.042
1555.0200, -41.049
1555.0400, -41.052
1555.0600, -41.043
1555.0800, -41.045
1555.1000, -41.046
1555.1200, -41.048
1555.1400, -41.047
1555.1600, -41.053
1555.1800, -41.055
1555.2000, -41.059
1555.2200, -41.073
1555.2400, -41.074
1555.2600, -41.076
1555.2800, -41.089
1555.3000, -41.093
1555.3200, -41.095
1555.3400, -41.096
1555.3600, -41.092
1555.3800, -41.095
1555.4000, -41.101
1555.4200, -41.101
1555.4400, -41.099
1555.4600, -41.099
1555.4800, -41.111
1555.5000, -41.118
1555.5200, -41.124
1555.5400, -41.124
1555.5600, -41.116
1555.5800, -41.115
1555.6000, -41.115
1555.6200, -41.121
1555.6400, -41.125
1555.6600, -41.126
1555.6800, -41.132
1555.7000, -41.137
1555.7200, -41.132
1555.7400, -41.131
1555.7600, -41.129
1555.7800, -41.133
1555.8000, -41.135
1555.8200, -41.138
1555.8400, -41.139
1555.8600, -41.142
1555.8800, -41.149
1555.9000, -41.148
1555.9200, -41.154
1555.9400, -41.159
1555.9600, -41.153
1555.9800, -41.157
1556.0000, -41.159
1556.0200, -41.164
1556.0400, -41.165
1556.0600, -41.172
1556.0800, -41.173
1556.1000, -41.178
1556.1200, -41.191
1556.1400, -41.193
1556.1600, -41.191
1556.1800, -41.206
1556.2000, -41.205
1556.2200, -41.195
1556.2400, -41.209
1556.2600, -41.205
1556.2800, -41.207
1556.3000, -41.216
1556.3200, -41.214
1556.3400, -41.219
1556.3600, -41.218
1556.3800, -41.231
1556.4000, -41.235
1556.4200, -41.239
1556.4400, -41.242
1556.4600, -41.225
1556.4800, -41.227
1556.5000, -41.229
1556.5200, -41.233
1556.5400, -41.237
1556.5600, -41.240
1556.5800, -41.244
1556.6000, -41.247
1556.6200, -41.239
1556.6400, -41.243
1556.6600, -41.248
1556.6800, -41.254
1556.7000, -41.260
1556.7200, -41.268
1556.7400, -41.266
1556.7600, -41.269
1556.7800, -41.272
1556.8000, -41.281
1556.8200, -41.292
1556.8400, -41.290
1556.8600, -41.289
1556.8800, -41.298
1556.9000, -41.297
1556.9200, -41.301
1556.9400, -41.302
1556.9600, -41.305
1556.9800, -41.307
1557.0000, -41.323
1557.0200, -41.324
1557.0400, -41.316
1557.0600, -41.328
1557.0800, -41.331
1557.1000, -41.333
1557.1200, -41.333
1557.1400, -41.342
1557.1600, -41.341
1557.1800, -41.348
1557.2000, -41.360
1557.2200, -41.362
1557.2400, -41.365
1557.2600, -41.373
1557.2800, -41.380
1557.3000, -41.384
1557.3200, -41.389
1557.3400, -41.384
1557.3600, -41.377
1557.3800, -41.381
1557.4000, -41.391
1557.4200, -41.395
1557.4400, -41.398
1557.4600, -41.412
1557.4800, -41.421
1557.5000, -41.421
1557.5200, -41.422
1557.5400, -41.424
1557.5600, -41.429
1557.5800, -41.435
1557.6000, -41.440
1557.6200, -41.444
1557.6400, -41.443
1557.6600, -41.450
1557.6800, -41.456
1557.7000, -41.470
1557.7200, -41.471
1557.7400, -41.468
1557.7600, -41.477
1557.7800, -41.482
1557.8000, -41.489
1557.8200, -41.492
1557.8400, -41.493
1557.8600, -41.499
1557.8800, -41.510
1557.9000, -41.503
1557.9200, -41.509
1557.9400, -41.511
1557.9600, -41.523
1557.9800, -41.525
1558.0000, -41.528
1558.0200, -41.540
1558.0400, -41.540
1558.0600, -41.546
1558.0800, -41.557
1558.1000, -41.567
1558.1200, -41.565
1558.1400, -41.570
1558.1600, -41.586
1558.1800, -41.594
1558.2000, -41.600
1558.2200, -41.603
1558.2400, -41.592
1558.2600, -41.594
1558.2800, -41.603
1558.3000, -41.606
1558.3200, -41.613
1558.3400, -41.619
1558.3600, -41.629
1558.3800, -41.641
1558.4000, -41.639
1558.4200, -41.645
1558.4400, -41.648
1558.4600, -41.653
1558.4800, -41.657
1558.5000, -41.666
1558.5200, -41.666
1558.5400, -41.669
1558.5600, -41.681
1558.5800, -41.685
1558.6000, -41.699
1558.6200, -41.698
1558.6400, -41.699
1558.6600, -41.711
1558.6800, -41.717
1558.7000, -41.727
1558.7200, -41.731
1558.7400, -41.737
1558.7600, -41.751
1558.7800, -41.761
1558.8000, -41.760
1558.8200, -41.766
1558.8400, -41.779
1558.8600, -41.791
1558.8800, -41.790
1558.9000, -41.794
1558.9200, -41.808
1558.9400, -41.816
1558.9600, -41.831
1558.9800, -41.836
1559.0000, -41.840
1559.0200, -41.860
1559.0400, -41.871
1559.0600, -41.881
1559.0800, -41.890
1559.1000, -41.896
1559.1200, -41.897
1559.1400, -41.895
1559.1600, -41.904
1559.1800, -41.916
1559.2000, -41.929
1559.2200, -41.934
1559.2400, -41.952
1559.2600, -41.956
1559.2800, -41.960
1559.3000, -41.962
1559.3200, -41.968
1559.3400, -41.978
1559.3600, -41.988
1559.3800, -41.995
1559.4000, -42.000
1559.4200, -42.015
1559.4400, -42.015
1559.4600, -42.023
1559.4800, -42.037
1559.5000, -42.049
1559.5200, -42.052
1559.5400, -42.062
1559.5600, -42.074
1559.5800, -42.085
1559.6000, -42.089
1559.6200, -42.097
1559.6400, -42.119
1559.6600, -42.127
1559.6800, -42.124
1559.7000, -42.130
1559.7200, -42.145
1559.7400, -42.166
1559.7600, -42.170
1559.7800, -42.176
1559.8000, -42.187
1559.8200, -42.195
1559.8400, -42.201
1559.8600, -42.212
1559.8800, -42.215
1559.9000, -42.226
1559.9200, -42.234
1559.9400, -42.251
1559.9600, -42.264
1559.9800, -42.273
1560.0000, -42.282
1560.0200, -42.279
1560.0400, -42.283
1560.0600, -42.297
1560.0800, -42.307
1560.1000, -42.319
1560.1200, -42.327
1560.1400, -42.342
1560.1600, -42.351
1560.1800, -42.355
1560.2000, -42.369
1560.2200, -42.381
1560.2400, -42.392
1560.2600, -42.404
1560.2800, -42.421
1560.3000, -42.432
1560.3200, -42.443
1560.3400, -42.456
1560.3600, -42.467
1560.3800, -42.482
1560.4000, -42.482
1560.4200, -42.491
1560.4400, -42.503
1560.4600, -42.515
1560.4800, -42.525
1560.5000, -42.541
1560.5200, -42.555
1560.5400, -42.567
1560.5600, -42.590
1560.5800, -42.598
1560.6000, -42.604
1560.6200, -42.626
1560.6400, -42.642
1560.6600, -42.650
1560.6800, -42.667
1560.7000, -42.681
1560.7200, -42.685
1560.7400, -42.708
1560.7600, -42.721
1560.7800, -42.729
1560.8000, -42.734
1560.8200, -42.753
1560.8400, -42.767
1560.8600, -42.779
1560.8800, -42.788
1560.9000, -42.794
1560.9200, -42.801
1560.9400, -42.808
1560.9600, -42.821
1560.9800, -42.837
1561.0000, -42.852
1561.0200, -42.866
1561.0400, -42.877
1561.0600, -42.885
1561.0800, -42.893
1561.1000, -42.905
1561.1200, -42.921
1561.1400, -42.929
1561.1600, -42.948
1561.1800, -42.959
1561.2000, -42.966
1561.2200, -42.981
1561.2400, -43.000
1561.2600, -43.017
1561.2800, -43.024
1561.3000, -43.031
1561.3200, -43.044
1561.3400, -43.057
1561.3600, -43.076
1561.3800, -43.090
1561.4000, -43.103
1561.4200, -43.116
1561.4400, -43.138
1561.4600, -43.160
1561.4800, -43.173
1561.5000, -43.184
1561.5200, -43.206
1561.5400, -43.215
1561.5600, -43.225
1561.5800, -43.247
1561.6000, -43.253
1561.6200, -43.277
1561.6400, -43.295
1561.6600, -43.311
1561.6800, -43.321
1561.7000, -43.342
1561.7200, -43.362
1561.7400, -43.381
1561.7600, -43.394
1561.7800, -43.399
1561.8000, -43.403
1561.8200, -43.414
1561.8400, -43.431
1561.8600, -43.444
1561.8800, -43.459
1561.9000, -43.477
1561.9200, -43.497
1561.9400, -43.506
1561.9600, -43.516
1561.9800, -43.530
1562.0000, -43.543
1562.0200, -43.560
1562.0400, -43.578
1562.0600, -43.591
1562.0800, -43.607
1562.1000, -43.627
1562.1200, -43.644
1562.1400, -43.664
1562.1600, -43.681
1562.1800, -43.689
1562.2000, -43.704
1562.2200, -43.718
1562.2400, -43.741
1562.2600, -43.754
1562.2800, -43.774
1562.3000, -43.800
1562.3200, -43.818
1562.3400, -43.825
1562.3600, -43.844
1562.3800, -43.864
1562.4000, -43.886
1562.4200, -43.901
1562.4400, -43.914
1562.4600, -43.931
1562.4800, -43.939
1562.5000, -43.956
1562.5200, -43.976
1562.5400, -43.994
1562.5600, -44.006
1562.5800, -44.029
1562.6000, -44.051
1562.6200, -44.066
1562.6400, -44.083
1562.6600, -44.093
1562.6800, -44.095
1562.7000, -44.109
1562.7200, -44.129
1562.7400, -44.148
1562.7600, -44.164
1562.7800, -44.185
1562.8000, -44.202
1562.8200, -44.216
1562.8400, -44.229
1562.8600, -44.244
1562.8800, -44.263
1562.9000, -44.277
1562.9200, -44.297
1562.9400, -44.317
1562.9600, -44.331
1562.9800, -44.348
1563.0000, -44.368
1563.0200, -44.393
1563.0400, -44.409
1563.0600, -44.419
1563.0800, -44.436
1563.1000, -44.457
1563.1200, -44.475
1563.1400, -44.492
1563.1600, -44.511
1563.1800, -44.537
1563.2000, -44.557
1563.2200, -44.566
1563.2400, -44.575
1563.2600, -44.595
1563.2800, -44.623
1563.3000, -44.637
1563.3200, -44.648
1563.3400, -44.670
1563.3600, -44.684
1563.3800, -44.699
1563.4000, -44.727
1563.4200, -44.742
1563.4400, -44.762
1563.4600, -44.779
1563.4800, -44.805
1563.5000, -44.824
1563.5200, -44.839
1563.5400, -44.854
1563.5600, -44.857
1563.5800, -44.873
1563.6000, -44.889
1563.6200, -44.913
1563.6400, -44.934
1563.6600, -44.948
1563.6800, -44.974
1563.7000, -44.993
1563.7200, -45.005
1563.7400, -45.021
1563.7600, -45.041
1563.7800, -45.062
1563.8000, -45.079
1563.8200, -45.096
1563.8400, -45.112
1563.8600, -45.132
1563.8800, -45.153
1563.9000, -45.177
1563.9200, -45.198
1563.9400, -45.210
1563.9600, -45.229
1563.9800, -45.250
1564.0000, -45.267
1564.0200, -45.284
1564.0400, -45.301
1564.0600, -45.325
1564.0800, -45.347
1564.1000, -45.368
1564.1200, -45.386
1564.1400, -45.391
1564.1600, -45.423
1564.1800, -45.437
1564.2000, -45.456
1564.2200, -45.475
1564.2400, -45.493
1564.2600, -45.511
1564.2800, -45.537
1564.3000, -45.551
1564.3200, -45.574
1564.3400, -45.591
1564.3600, -45.616
1564.3800, -45.638
1564.4000, -45.660
1564.4200, -45.676
1564.4400, -45.679
1564.4600, -45.699
1564.4800, -45.717
1564.5000, -45.737
1564.5200, -45.763
1564.5400, -45.783
1564.5600, -45.804
1564.5800, -45.825
1564.6000, -45.840
1564.6200, -45.857
1564.6400, -45.873
1564.6600, -45.897
1564.6800, -45.914
1564.7000, -45.936
1564.7200, -45.953
1564.7400, -45.972
1564.7600, -45.993
1564.7800, -46.012
1564.8000, -46.034
1564.8200, -46.050
1564.8400, -46.067
1564.8600, -46.089
1564.8800, -46.110
1564.9000, -46.125
1564.9200, -46.146
1564.9400, -46.170
1564.9600, -46.199
1564.9800, -46.220
1565.0000, -46.237
1565.0200, -46.251
1565.0400, -46.274
1565.0600, -46.294
1565.0800, -46.311
1565.1000, -46.330
1565.1200, -46.349
1565.1400, -46.369
1565.1600, -46.397
1565.1800, -46.413
1565.2000, -46.429
1565.2200, -46.449
1565.2400, -46.476
1565.2600, -46.499
1565.2800, -46.520
1565.3000, -46.537
1565.3200, -46.542
1565.3400, -46.566
1565.3600, -46.582
1565.3800, -46.600
1565.4000, -46.621
1565.4200, -46.645
1565.4400, -46.671
1565.4600, -46.693
1565.4800, -46.704
1565.5000, -46.724
1565.5200, -46.743
1565.5400, -46.767
1565.5600, -46.784
1565.5800, -46.803
1565.6000, -46.822
1565.6200, -46.842
1565.6400, -46.862
1565.6600, -46.884
1565.6800, -46.902
1565.7000, -46.915
1565.7200, -46.933
1565.7400, -46.959
1565.7600, -46.984
1565.7800, -46.999
1565.8000, -47.023
1565.8200, -47.049
1565.8400, -47.071
1565.8600, -47.086
1565.8800, -47.108
1565.9000, -47.125
1565.9200, -47.154
1565.9400, -47.169
1565.9600, -47.185
1565.9800, -47.207
1566.0000, -47.228
1566.0200, -47.243
1566.0400, -47.274
1566.0600, -47.291
1566.0800, -47.306
1566.1000, -47.336
1566.1200, -47.360
1566.1400, -47.381
1566.1600, -47.402
1566.1800, -47.416
1566.2000, -47.425
1566.2200, -47.447
1566.2400, -47.467
1566.2600, -47.483
1566.2800, -47.504
1566.3000, -47.523
1566.3200, -47.548
1566.3400, -47.572
1566.3600, -47.581
1566.3800, -47.603
1566.4000, -47.624
1566.4200, -47.648
1566.4400, -47.666
1566.4600, -47.685
1566.4800, -47.703
1566.5000, -47.721
1566.5200, -47.746
1566.5400, -47.770
1566.5600, -47.793
1566.5800, -47.803
1566.6000, -47.823
1566.6200, -47.845
1566.6400, -47.866
1566.6600, -47.884
1566.6800, -47.905
1566.7000, -47.930
1566.7200, -47.956
1566.7400, -47.970
1566.7600, -47.993
1566.7800, -48.006
1566.8000, -48.035
1566.8200, -48.058
1566.8400, -48.078
1566.8600, -48.091
1566.8800, -48.113
1566.9000, -48.125
1566.9200, -48.155
1566.9400, -48.170
1566.9600, -48.190
1566.9800, -48.207
1567.0000, -48.227
1567.0200, -48.245
1567.0400, -48.266
1567.0600, -48.294
1567.0800, -48.305
1567.1000, -48.327
1567.1200, -48.345
1567.1400, -48.369
1567.1600, -48.390
1567.1800, -48.405
1567.2000, -48.429
1567.2200, -48.451
1567.2400, -48.461
1567.2600, -48.485
1567.2800, -48.503
1567.3000, -48.529
1567.3200, -48.544
1567.3400, -48.567
1567.3600, -48.584
1567.3800, -48.603
1567.4000, -48.623
1567.4200, -48.648
1567.4400, -48.669
1567.4600, -48.686
1567.4800, -48.700
1567.5000, -48.722
1567.5200, -48.743
1567.5400, -48.764
1567.5600, -48.786
1567.5800, -48.812
1567.6000, -48.837
1567.6200, -48.850
1567.6400, -48.871
1567.6600, -48.890
1567.6800, -48.919
1567.7000, -48.940
1567.7200, -48.950
1567.7400, -48.972
1567.7600, -48.990
1567.7800, -49.015
1567.8000, -49.036
1567.8200, -49.057
1567.8400, -49.070
1567.8600, -49.098
1567.8800, -49.118
1567.9000, -49.144
1567.9200, -49.163
1567.9400, -49.178
1567.9600, -49.182
1567.9800, -49.201
1568.0000, -49.225
1568.0200, -49.244
1568.0400, -49.265
1568.0600, -49.286
1568.0800, -49.308
1568.1000, -49.326
1568.1200, -49.344
1568.1400, -49.361
1568.1600, -49.383
1568.1800, -49.403
1568.2000, -49.423
1568.2200, -49.436
1568.2400, -49.464
1568.2600, -49.481
1568.2800, -49.499
1568.3000, -49.529
1568.3200, -49.549
1568.3400, -49.562
1568.3600, -49.580
1568.3800, -49.603
1568.4000, -49.625
1568.4200, -49.636
1568.4400, -49.658
1568.4600, -49.689
1568.4800, -49.711
1568.5000, -49.722
1568.5200, -49.748
1568.5400, -49.770
1568.5600, -49.786
1568.5800, -49.807
1568.6000, -49.825
1568.6200, -49.846
1568.6400, -49.865
1568.6600, -49.894
1568.6800, -49.904
1568.7000, -49.929
1568.7200, -49.940
1568.7400, -49.965
1568.7600, -49.991
1568.7800, -50.008
1568.8000, -50.031
1568.8200, -50.037
1568.8400, -50.054
1568.8600, -50.073
1568.8800, -50.093
1568.9000, -50.121
1568.9200, -50.130
1568.9400, -50.154
1568.9600, -50.177
1568.9800, -50.193
1569.0000, -50.211
1569.0200, -50.227
1569.0400, -50.250
1569.0600, -50.267
1569.0800, -50.288
1569.1000, -50.307
1569.1200, -50.325
1569.1400, -50.351
1569.1600, -50.367
1569.1800, -50.390
1569.2000, -50.409
1569.2200, -50.423
1569.2400, -50.444
1569.2600, -50.463
1569.2800, -50.483
1569.3000, -50.505
1569.3200, -50.526
1569.3400, -50.548
1569.3600, -50.565
1569.3800, -50.584
1569.4000, -50.600
1569.4200, -50.627
1569.4400, -50.647
1569.4600, -50.658
1569.4800, -50.676
1569.5000, -50.699
1569.5200, -50.714
1569.5400, -50.740
1569.5600, -50.758
1569.5800, -50.778
1569.6000, -50.799
1569.6200, -50.820
1569.6400, -50.841
1569.6600, -50.859
1569.6800, -50.879
1569.7000, -50.886
1569.7200, -50.901
1569.7400, -50.924
1569.7600, -50.940
1569.7800, -50.965
1569.8000, -50.980
1569.8200, -50.998
1569.8400, -51.021
1569.8600, -51.036
1569.8800, -51.054
1569.9000, -51.073
1569.9200, -51.091
1569.9400, -51.115
1569.9600, -51.127
1569.9800, -51.148
1570.0000, -51.164
1570.0200, -51.183
1570.0400, -51.204
1570.0600, -51.224
1570.0800, -51.245
1570.1000, -51.261
1570.1200, -51.274
1570.1400, -51.296
1570.1600, -51.320
1570.1800, -51.345
1570.2000, -51.367
1570.2200, -51.387
1570.2400, -51.402
1570.2600, -51.421
1570.2800, -51.429
1570.3000, -51.458
1570.3200, -51.476
1570.3400, -51.492
1570.3600, -51.510
1570.3800, -51.530
1570.4000, -51.548
1570.4200, -51.569
1570.4400, -51.583
1570.4600, -51.605
1570.4800, -51.626
1570.5000, -51.646
1570.5200, -51.666
1570.5400, -51.684
1570.5600, -51.695
1570.5800, -51.708
1570.6000, -51.726
1570.6200, -51.745
1570.6400, -51.765
1570.6600, -51.784
1570.6800, -51.806
1570.7000, -51.821
1570.7200, -51.840
1570.7400, -51.858
1570.7600, -51.879
1570.7800, -51.894
1570.8000, -51.920
1570.8200, -51.930
1570.8400, -51.951
1570.8600, -51.964
1570.8800, -51.991
1570.9000, -52.005
1570.9200, -52.030
1570.9400, -52.049
1570.9600, -52.061
1570.9800, -52.077
1571.0000, -52.092
1571.0200, -52.115
1571.0400, -52.138
1571.0600, -52.155
1571.0800, -52.176
1571.1000, -52.195
1571.1200, -52.209
1571.1400, -52.220
1571.1600, -52.239
1571.1800, -52.267
1571.2000, -52.271
1571.2200, -52.295
1571.2400, -52.312
1571.2600, -52.337
1571.2800, -52.356
1571.3000, -52.370
1571.3200, -52.400
1571.3400, -52.405
1571.3600, -52.428
1571.3800, -52.452
1571.4000, -52.466
1571.4200, -52.486
1571.4400, -52.504
1571.4600, -52.515
1571.4800, -52.529
1571.5000, -52.556
1571.5200, -52.569
1571.5400, -52.583
1571.5600, -52.614
1571.5800, -52.628
1571.6000, -52.637
1571.6200, -52.653
1571.6400, -52.677
1571.6600, -52.688
1571.6800, -52.708
1571.7000, -52.723
1571.7200, -52.737
1571.7400, -52.767
1571.7600, -52.778
1571.7800, -52.795
1571.8000, -52.821
1571.8200, -52.831
1571.8400, -52.849
1571.8600, -52.866
1571.8800, -52.879
1571.9000, -52.900
1571.9200, -52.926
1571.9400, -52.945
1571.9600, -52.962
1571.9800, -52.971
1572.0000, -52.994
1572.0200, -53.012
1572.0400, -53.035
1572.0600, -53.048
1572.0800, -53.062
1572.1000, -53.081
1572.1200, -53.097
1572.1400, -53.115
1572.1600, -53.135
1572.1800, -53.153
1572.2000, -53.168
1572.2200, -53.179
1572.2400, -53.206
1572.2600, -53.222
1572.2800, -53.245
1572.3000, -53.250
1572.3200, -53.260
1572.3400, -53.282
1572.3600, -53.289
1572.3800, -53.314
1572.4000, -53.328
1572.4200, -53.348
1572.4400, -53.373
1572.4600, -53.379
1572.4800, -53.397
1572.5000, -53.411
1572.5200, -53.427
1572.5400, -53.448
1572.5600, -53.464
1572.5800, -53.483
1572.6000, -53.495
1572.6200, -53.511
1572.6400, -53.529
1572.6600, -53.549
1572.6800, -53.561
1572.7000, -53.579
1572.7200, -53.595
1572.7400, -53.604
1572.7600, -53.623
1572.7800, -53.647
1572.8000, -53.658
1572.8200, -53.688
1572.8400, -53.691
1572.8600, -53.704
1572.8800, -53.730
1572.9000, -53.749
1572.9200, -53.768
1572.9400, -53.778
1572.9600, -53.798
1572.9800, -53.812
1573.0000, -53.825
1573.0200, -53.852
1573.0400, -53.873
1573.0600, -53.884
1573.0800, -53.896
1573.1000, -53.919
1573.1200, -53.935
1573.1400, -53.950
1573.1600, -53.976
1573.1800, -53.968
1573.2000, -53.991
1573.2200, -54.003
1573.2400, -54.021
1573.2600, -54.031
1573.2800, -54.047
1573.3000, -54.070
1573.3200, -54.092
1573.3400, -54.094
1573.3600, -54.112
1573.3800, -54.130
1573.4000, -54.144
1573.4200, -54.158
1573.4400, -54.173
1573.4600, -54.186
1573.4800, -54.213
1573.5000, -54.217
1573.5200, -54.240
1573.5400, -54.256
1573.5600, -54.266
1573.5800, -54.281
1573.6000, -54.306
1573.6200, -54.310
1573.6400, -54.339
1573.6600, -54.354
1573.6800, -54.383
1573.7000, -54.384
1573.7200, -54.385
1573.7400, -54.412
1573.7600, -54.425
1573.7800, -54.445
1573.8000, -54.468
1573.8200, -54.470
1573.8400, -54.495
1573.8600, -54.500
1573.8800, -54.513
1573.9000, -54.544
1573.9200, -54.555
1573.9400, -54.567
1573.9600, -54.580
1573.9800, -54.591
1574.0000, -54.622
1574.0200, -54.627
1574.0400, -54.643
1574.0600, -54.647
1574.0800, -54.666
1574.1000, -54.682
1574.1200, -54.697
1574.1400, -54.713
1574.1600, -54.727
1574.1800, -54.743
1574.2000, -54.755
1574.2200, -54.779
1574.2400, -54.783
1574.2600, -54.798
1574.2800, -54.815
1574.3000, -54.829
1574.3200, -54.841
1574.3400, -54.858
1574.3600, -54.865
1574.3800, -54.896
1574.4000, -54.914
1574.4200, -54.918
1574.4400, -54.928
1574.4600, -54.941
1574.4800, -54.969
1574.5000, -54.968
1574.5200, -54.993
1574.5400, -55.013
1574.5600, -55.037
1574.5800, -55.038
1574.6000, -55.050
1574.6200, -55.057
1574.6400, -55.088
1574.6600, -55.091
1574.6800, -55.115
1574.7000, -55.126
1574.7200, -55.139
1574.7400, -55.146
1574.7600, -55.169
1574.7800, -55.186
1574.8000, -55.192
1574.8200, -55.211
1574.8400, -55.233
1574.8600, -55.245
1574.8800, -55.266
1574.9000, -55.271
1574.9200, -55.275
1574.9400, -55.292
1574.9600, -55.305
1574.9800, -55.322
1575.0000, -55.341
1575.0200, -55.343
1575.0400, -55.367
1575.0600, -55.383
1575.0800, -55.385
1575.1000, -55.408
1575.1200, -55.416
1575.1400, -55.435
1575.1600, -55.457
1575.1800, -55.461
1575.2000, -55.465
1575.2200, -55.488
1575.2400, -55.503
1575.2600, -55.534
1575.2800, -55.527
1575.3000, -55.542
1575.3200, -55.551
1575.3400, -55.575
1575.3600, -55.599
1575.3800, -55.591
1575.4000, -55.627
1575.4200, -55.632
1575.4400, -55.645
1575.4600, -55.646
1575.4800, -55.671
1575.5000, -55.679
1575.5200, -55.700
1575.5400, -55.712
1575.5600, -55.722
1575.5800, -55.748
1575.6000, -55.741
1575.6200, -55.770
1575.6400, -55.770
1575.6600, -55.796
1575.6800, -55.803
1575.7000, -55.827
1575.7200, -55.835
1575.7400, -55.850
1575.7600, -55.853
1575.7800, -55.864
1575.8000, -55.873
1575.8200, -55.911
1575.8400, -55.890
1575.8600, -55.929
1575.8800, -55.928
1575.9000, -55.948
1575.9200, -55.957
1575.9400, -55.981
1575.9600, -55.983
1575.9800, -56.001
1576.0000, -55.996
1576.0200, -56.027
1576.0400, -56.025
1576.0600, -56.055
1576.0800, -56.054
1576.1000, -56.068
1576.1200, -56.083
1576.1400, -56.115
1576.1600, -56.103
1576.1800, -56.126
1576.2000, -56.117
1576.2200, -56.152
1576.2400, -56.160
1576.2600, -56.181
1576.2800, -56.187
1576.3000, -56.209
1576.3200, -56.220
1576.3400, -56.219
1576.3600, -56.238
1576.3800, -56.247
1576.4000, -56.266
1576.4200, -56.271
1576.4400, -56.277
1576.4600, -56.292
1576.4800, -56.320
1576.5000, -56.318
1576.5200, -56.340
1576.5400, -56.342
1576.5600, -56.350
1576.5800, -56.388
1576.6000, -56.380
1576.6200, -56.387
1576.6400, -56.398
1576.6600, -56.413
1576.6800, -56.419
1576.7000, -56.445
1576.7200, -56.451
1576.7400, -56.463
1576.7600, -56.477
1576.7800, -56.479
1576.8000, -56.493
1576.8200, -56.511
1576.8400, -56.523
1576.8600, -56.525
1576.8800, -56.539
1576.9000, -56.555
1576.9200, -56.563
1576.9400, -56.580
1576.9600, -56.591
1576.9800, -56.597
1577.0000, -56.606
1577.0200, -56.628
1577.0400, -56.635
1577.0600, -56.642
1577.0800, -56.666
1577.1000, -56.671
1577.1200, -56.677
1577.1400, -56.701
1577.1600, -56.702
1577.1800, -56.710
1577.2000, -56.722
1577.2200, -56.738
1577.2400, -56.742
1577.2600, -56.748
1577.2800, -56.782
1577.3000, -56.773
1577.3200, -56.810
1577.3400, -56.807
1577.3600, -56.821
1577.3800, -56.818
1577.4000, -56.853
1577.4200, -56.859
1577.4400, -56.872
1577.4600, -56.868
1577.4800, -56.910
1577.5000, -56.898
1577.5200, -56.908
1577.5400, -56.906
1577.5600, -56.931
1577.5800, -56.920
1577.6000, -56.955
1577.6200, -56.956
1577.6400, -56.977
1577.6600, -56.991
1577.6800, -57.004
1577.7000, -57.002
1577.7200, -57.014
1577.7400, -57.008
1577.7600, -57.049
1577.7800, -57.042
1577.8000, -57.062
1577.8200, -57.065
1577.8400, -57.082
1577.8600, -57.096
1577.8800, -57.104
1577.9000, -57.119
1577.9200, -57.134
1577.9400, -57.134
1577.9600, -57.153
1577.9800, -57.170
1578.0000, -57.171
1578.0200, -57.180
1578.0400, -57.179
1578.0600, -57.207
1578.0800, -57.209
1578.1000, -57.213
1578.1200, -57.233
1578.1400, -57.249
1578.1600, -57.253
1578.1800, -57.261
1578.2000, -57.268
1578.2200, -57.288
1578.2400, -57.297
1578.2600, -57.316
1578.2800, -57.313
1578.3000, -57.336
1578.3200, -57.347
1578.3400, -57.344
1578.3600, -57.358
1578.3800, -57.358
1578.4000, -57.380
1578.4200, -57.402
1578.4400, -57.393
1578.4600, -57.392
1578.4800, -57.427
1578.5000, -57.408
1578.5200, -57.441
1578.5400, -57.440
1578.5600, -57.451
1578.5800, -57.483
1578.6000, -57.487
1578.6200, -57.480
1578.6400, -57.494
1578.6600, -57.491
1578.6800, -57.512
1578.7000, -57.541
1578.7200, -57.529
1578.7400, -57.542
1578.7600, -57.560
1578.7800, -57.565
1578.8000, -57.569
1578.8200, -57.587
1578.8400, -57.596
1578.8600, -57.612
1578.8800, -57.623
1578.9000, -57.642
1578.9200, -57.626
1578.9400, -57.648
1578.9600, -57.665
1578.9800, -57.661
1579.0000, -57.677
1579.0200, -57.681
1579.0400, -57.711
1579.0600, -57.705
1579.0800, -57.712
1579.1000, -57.734
1579.1200, -57.741
1579.1400, -57.748
1579.1600, -57.772
1579.1800, -57.775
1579.2000, -57.772
1579.2200, -57.784
1579.2400, -57.782
1579.2600, -57.803
1579.2800, -57.815
1579.3000, -57.815
1579.3200, -57.846
1579.3400, -57.834
1579.3600, -57.851
1579.3800, -57.851
1579.4000, -57.881
1579.4200, -57.862
1579.4400, -57.881
1579.4600, -57.892
1579.4800, -57.900
1579.5000, -57.907
1579.5200, -57.911
1579.5400, -57.927
1579.5600, -57.949
1579.5800, -57.955
1579.6000, -57.934
1579.6200, -57.975
1579.6400, -57.972
1579.6600, -57.997
1579.6800, -57.998
1579.7000, -58.008
1579.7200, -58.031
1579.7400, -58.040
1579.7600, -58.041
1579.7800, -58.038
1579.8000, -58.052
1579.8200, -58.065
1579.8400, -58.067
1579.8600, -58.076
1579.8800, -58.086
1579.9000, -58.115
1579.9200, -58.102
1579.9400, -58.103
1579.9600, -58.137
1579.9800, -58.140
1580.0000, -58.145
1580.0200, -58.150
1580.0400, -58.160
1580.0600, -58.190
1580.0800, -58.167
1580.1000, -58.194
1580.1200, -58.183
1580.1400, -58.198
1580.1600, -58.211
1580.1800, -58.212
1580.2000, -58.223
1580.2200, -58.251
1580.2400, -58.219
1580.2600, -58.252
1580.2800, -58.248
1580.3000, -58.253
1580.3200, -58.276
1580.3400, -58.278
1580.3600, -58.279
1580.3800, -58.313
1580.4000, -58.306
1580.4200, -58.327
1580.4400, -58.325
1580.4600, -58.317
1580.4800, -58.341
1580.5000, -58.332
1580.5200, -58.354
1580.5400, -58.375
1580.5600, -58.373
1580.5800, -58.395
1580.6000, -58.394
1580.6200, -58.408
1580.6400, -58.407
1580.6600, -58.428
1580.6800, -58.423
1580.7000, -58.421
1580.7200, -58.438
1580.7400, -58.468
1580.7600, -58.464
1580.7800, -58.454
1580.8000, -58.485
1580.8200, -58.480
1580.8400, -58.504
1580.8600, -58.517
1580.8800, -58.513
1580.9000, -58.509
1580.9200, -58.521
1580.9400, -58.531
1580.9600, -58.542
1580.9800, -58.541
1581.0000, -58.553
1581.0200, -58.548
1581.0400, -58.580
1581.0600, -58.591
1581.0800, -58.588
1581.1000, -58.585
1581.1200, -58.620
1581.1400, -58.587
1581.1600, -58.609
1581.1800, -58.622
1581.2000, -58.635
1581.2200, -58.633
1581.2400, -58.638
1581.2600, -58.651
1581.2800, -58.662
1581.3000, -58.675
1581.3200, -58.667
1581.3400, -58.696
1581.3600, -58.687
1581.3800, -58.675
1581.4000, -58.693
1581.4200, -58.702
1581.4400, -58.719
1581.4600, -58.754
1581.4800, -58.724
1581.5000, -58.756
1581.5200, -58.761
1581.5400, -58.754
1581.5600, -58.756
1581.5800, -58.781
1581.6000, -58.774
1581.6200, -58.799
1581.6400, -58.794
1581.6600, -58.817
1581.6800, -58.832
1581.7000, -58.805
1581.7200, -58.820
1581.7400, -58.841
1581.7600, -58.838
1581.7800, -58.831
1581.8000, -58.856
1581.8200, -58.865
1581.8400, -58.892
1581.8600, -58.864
1581.8800, -58.904
1581.9000, -58.876
1581.9200, -58.923
1581.9400, -58.893
1581.9600, -58.905
1581.9800, -58.919
1582.0000, -58.930
1582.0200, -58.935
1582.0400, -58.945
1582.0600, -58.936
1582.0800, -58.974
1582.1000, -58.942
1582.1200, -58.968
1582.1400, -59.000
1582.1600, -58.982
1582.1800, -59.001
1582.2000, -59.007
1582.2200, -59.006
1582.2400, -58.991
1582.2600, -59.022
1582.2800, -59.017
1582.3000, -59.021
1582.3200, -59.052
1582.3400, -59.046
1582.3600, -59.059
1582.3800, -59.068
1582.4000, -59.087
1582.4200, -59.076
1582.4400, -59.077
1582.4600, -59.096
1582.4800, -59.095
1582.5000, -59.120
1582.5200, -59.090
1582.5400, -59.117
1582.5600, -59.113
1582.5800, -59.129
1582.6000, -59.131
1582.6200, -59.133
1582.6400, -59.146
1582.6600, -59.165
1582.6800, -59.162
1582.7000, -59.163
1582.7200, -59.186
1582.7400, -59.178
1582.7600, -59.206
1582.7800, -59.213
1582.8000, -59.211
1582.8200, -59.220
1582.8400, -59.231
1582.8600, -59.221
1582.8800, -59.241
1582.9000, -59.236
1582.9200, -59.254
1582.9400, -59.251
1582.9600, -59.259
1582.9800, -59.244
1583.0000, -59.274
1583.0200, -59.291
1583.0400, -59.307
1583.0600, -59.290
1583.0800, -59.292
1583.1000, -59.323
1583.1200, -59.311
1583.1400, -59.321
1583.1600, -59.360
1583.1800, -59.336
1583.2000, -59.353
1583.2200, -59.349
1583.2400, -59.351
1583.2600, -59.363
1583.2800, -59.362
1583.3000, -59.381
1583.3200, -59.380
1583.3400, -59.401
1583.3600, -59.389
1583.3800, -59.443
1583.4000, -59.409
1583.4200, -59.400
1583.4400, -59.435
1583.4600, -59.445
1583.4800, -59.433
1583.5000, -59.455
1583.5200, -59.437
1583.5400, -59.463
1583.5600, -59.458
1583.5800, -59.475
1583.6000, -59.488
1583.6200, -59.468
1583.6400, -59.473
1583.6600, -59.490
1583.6800, -59.498
1583.7000, -59.504
1583.7200, -59.512
1583.7400, -59.511
1583.7600, -59.531
1583.7800, -59.549
1583.8000, -59.523
1583.8200, -59.542
1583.8400, -59.552
1583.8600, -59.570
1583.8800, -59.566
1583.9000, -59.576
1583.9200, -59.578
1583.9400, -59.603
1583.9600, -59.583
1583.9800, -59.595
1584.0000, -59.593
1584.0200, -59.597
1584.0400, -59.607
1584.0600, -59.602
1584.0800, -59.627
1584.1000, -59.639
1584.1200, -59.628
1584.1400, -59.650
1584.1600, -59.655
1584.1800, -59.663
1584.2000, -59.650
1584.2200, -59.668
1584.2400, -59.679
1584.2600, -59.695
1584.2800, -59.680
1584.3000, -59.682
1584.3200, -59.685
1584.3400, -59.703
1584.3600, -59.691
1584.3800, -59.730
1584.4000, -59.702
1584.4200, -59.725
1584.4400, -59.715
1584.4600, -59.723
1584.4800, -59.744
1584.5000, -59.738
1584.5200, -59.760
1584.5400, -59.756
1584.5600, -59.780
1584.5800, -59.790
1584.6000, -59.760
1584.6200, -59.781
1584.6400, -59.795
1584.6600, -59.793
1584.6800, -59.798
1584.7000, -59.794
1584.7200, -59.812
1584.7400, -59.826
1584.7600, -59.816
1584.7800, -59.829
1584.8000, -59.814
1584.8200, -59.831
1584.8400, -59.832
1584.8600, -59.867
1584.8800, -59.848
1584.9000, -59.849
1584.9200, -59.874
1584.9400, -59.879
1584.9600, -59.864
1584.9800, -59.869
1585.0000, -59.873
1585.0200, -59.909
1585.0400, -59.906
1585.0600, -59.885
1585.0800, -59.909
1585.1000, -59.909
1585.1200, -59.921
1585.1400, -59.921
1585.1600, -59.926
1585.1800, -59.938
1585.2000, -59.951
1585.2200, -59.944
1585.2400, -59.939
1585.2600, -59.958
1585.2800, -59.950
1585.3000, -59.968
1585.3200, -59.963
1585.3400, -59.992
1585.3600, -59.979
1585.3800, -59.993
1585.4000, -59.990
1585.4200, -60.004
1585.4400, -59.992
1585.4600, -60.014
1585.4800, -60.021
1585.5000, -60.012
1585.5200, -60.035
1585.5400, -60.035
1585.5600, -60.043
1585.5800, -60.027
1585.6000, -60.057
1585.6200, -60.053
1585.6400, -60.063
1585.6600, -60.095
1585.6800, -60.040
1585.7000, -60.060
1585.7200, -60.064
1585.7400, -60.119
1585.7600, -60.057
1585.7800, -60.086
1585.8000, -60.118
1585.8200, -60.092
1585.8400, -60.131
1585.8600, -60.117
1585.8800, -60.121
1585.9000, -60.100
1585.9200, -60.137
1585.9400, -60.133
1585.9600, -60.145
1585.9800, -60.173
1586.0000, -60.147
1586.0200, -60.154
1586.0400, -60.136
1586.0600, -60.168
1586.0800, -60.176
1586.1000, -60.142
1586.1200, -60.176
1586.1400, -60.194
1586.1600, -60.192
1586.1800, -60.213
1586.2000, -60.209
1586.2200, -60.187
1586.2400, -60.224
1586.2600, -60.209
1586.2800, -60.208
1586.3000, -60.214
1586.3200, -60.231
1586.3400, -60.212
1586.3600, -60.251
1586.3800, -60.235
1586.4000, -60.274
1586.4200, -60.251
1586.4400, -60.254
1586.4600, -60.260
1586.4800, -60.279
1586.5000, -60.271
1586.5200, -60.316
1586.5400, -60.275
1586.5600, -60.302
1586.5800, -60.288
1586.6000, -60.319
1586.6200, -60.321
1586.6400, -60.293
1586.6600, -60.340
1586.6800, -60.337
1586.7000, -60.319
1586.7200, -60.344
1586.7400, -60.363
1586.7600, -60.366
1586.7800, -60.353
1586.8000, -60.330
1586.8200, -60.380
1586.8400, -60.352
1586.8600, -60.412
1586.8800, -60.369
1586.9000, -60.411
1586.9200, -60.383
1586.9400, -60.385
1586.9600, -60.391
1586.9800, -60.413
1587.0000, -60.400
1587.0200, -60.446
1587.0400, -60.386
1587.0600, -60.424
1587.0800, -60.420
1587.1000, -60.424
1587.1200, -60.429
1587.1400, -60.419
1587.1600, -60.463
1587.1800, -60.436
1587.2000, -60.470
1587.2200, -60.428
1587.2400, -60.485
1587.2600, -60.464
1587.2800, -60.444
1587.3000, -60.503
1587.3200, -60.467
1587.3400, -60.484
1587.3600, -60.471
1587.3800, -60.503
1587.4000, -60.511
1587.4200, -60.510
1587.4400, -60.512
1587.4600, -60.538
1587.4800, -60.522
1587.5000, -60.533
1587.5200, -60.517
1587.5400, -60.544
1587.5600, -60.546
1587.5800, -60.555
1587.6000, -60.551
1587.6200, -60.550
1587.6400, -60.551
1587.6600, -60.563
1587.6800, -60.561
1587.7000, -60.590
1587.7200, -60.573
1587.7400, -60.578
1587.7600, -60.591
1587.7800, -60.606
1587.8000, -60.591
1587.8200, -60.620
1587.8400, -60.588
1587.8600, -60.614
1587.8800, -60.648
1587.9000, -60.627
1587.9200, -60.616
1587.9400, -60.639
1587.9600, -60.653
1587.9800, -60.653
1588.0000, -60.634
1588.0200, -60.667
1588.0400, -60.669
1588.0600, -60.669
1588.0800, -60.662
1588.1000, -60.675
1588.1200, -60.694
1588.1400, -60.696
1588.1600, -60.702
1588.1800, -60.697
1588.2000, -60.680
1588.2200, -60.692
1588.2400, -60.706
1588.2600, -60.702
1588.2800, -60.733
1588.3000, -60.709
1588.3200, -60.734
1588.3400, -60.714
1588.3600, -60.775
1588.3800, -60.719
1588.4000, -60.746
1588.4200, -60.753
1588.4400, -60.769
1588.4600, -60.750
1588.4800, -60.754
1588.5000, -60.786
1588.5200, -60.783
1588.5400, -60.761
1588.5600, -60.793
1588.5800, -60.771
1588.6000, -60.788
1588.6200, -60.788
1588.6400, -60.808
1588.6600, -60.787
1588.6800, -60.806
1588.7000, -60.808
1588.7200, -60.811
1588.7400, -60.811
1588.7600, -60.814
1588.7800, -60.838
1588.8000, -60.845
1588.8200, -60.842
1588.8400, -60.844
1588.8600, -60.859
1588.8800, -60.842
1588.9000, -60.846
1588.9200, -60.843
1588.9400, -60.865
1588.9600, -60.838
1588.9800, -60.893
1589.0000, -60.901
1589.0200, -60.876
1589.0400, -60.889
1589.0600, -60.908
1589.0800, -60.875
1589.1000, -60.901
1589.1200, -60.924
1589.1400, -60.894
1589.1600, -60.892
1589.1800, -60.925
1589.2000, -60.925
1589.2200, -60.904
1589.2400, -60.935
1589.2600, -60.926
1589.2800, -60.938
1589.3000, -60.949
1589.3200, -60.970
1589.3400, -60.945
1589.3600, -60.979
1589.3800, -60.999
1589.4000, -60.962
1589.4200, -60.947
1589.4400, -60.994
1589.4600, -60.934
1589.4800, -61.038
1589.5000, -60.995
1589.5200, -60.989
1589.5400, -60.988
1589.5600, -61.006
1589.5800, -61.033
1589.6000, -61.029
1589.6200, -61.019
1589.6400, -61.016
1589.6600, -61.024
1589.6800, -61.038
1589.7000, -61.020
1589.7200, -61.018
1589.7400, -61.015
1589.7600, -61.030
1589.7800, -61.053
1589.8000, -61.044
1589.8200, -61.069
1589.8400, -61.046
1589.8600, -61.089
1589.8800, -61.058
1589.9000, -61.041
1589.9200, -61.103
1589.9400, -61.058
1589.9600, -61.084
1589.9800, -61.100
1590.0000, -61.094
1590.0200, -61.100
1590.0400, -61.094
1590.0600, -61.114
1590.0800, -61.104
1590.1000, -61.117
1590.1200, -61.120
1590.1400, -61.110
1590.1600, -61.146
1590.1800, -61.120
1590.2000, -61.124
1590.2200, -61.142
1590.2400, -61.169
1590.2600, -61.141
1590.2800, -61.144
1590.3000, -61.175
1590.3200, -61.172
1590.3400, -61.167
1590.3600, -61.177
1590.3800, -61.167
1590.4000, -61.206
1590.4200, -61.167
1590.4400, -61.202
1590.4600, -61.194
1590.4800, -61.176
1590.5000, -61.212
1590.5200, -61.183
1590.5400, -61.255
1590.5600, -61.232
1590.5800, -61.204
1590.6000, -61.194
1590.6200, -61.241
1590.6400, -61.242
1590.6600, -61.225
1590.6800, -61.221
1590.7000, -61.254
1590.7200, -61.225
1590.7400, -61.278
1590.7600, -61.263
1590.7800, -61.243
1590.8000, -61.261
1590.8200, -61.280
1590.8400, -61.292
1590.8600, -61.285
1590.8800, -61.293
1590.9000, -61.279
1590.9200, -61.295
1590.9400, -61.307
1590.9600, -61.292
1590.9800, -61.319
1591.0000, -61.289
1591.0200, -61.345
1591.0400, -61.336
1591.0600, -61.325
1591.0800, -61.335
1591.1000, -61.329
1591.1200, -61.349
1591.1400, -61.343
1591.1600, -61.362
1591.1800, -61.334
1591.2000, -61.374
1591.2200, -61.385
1591.2400, -61.371
1591.2600, -61.342
1591.2800, -61.403
1591.3000, -61.386
1591.3200, -61.378
1591.3400, -61.396
1591.3600, -61.389
1591.3800, -61.391
1591.4000, -61.409
1591.4200, -61.412
1591.4400, -61.421
1591.4600, -61.419
1591.4800, -61.401
1591.5000, -61.436
1591.5200, -61.459
1591.5400, -61.447
1591.5600, -61.475
1591.5800, -61.419
1591.6000, -61.455
1591.6200, -61.436
1591.6400, -61.441
1591.6600, -61.490
1591.6800, -61.457
1591.7000, -61.485
1591.7200, -61.467
1591.7400, -61.485
1591.7600, -61.507
1591.7800, -61.488
1591.8000, -61.506
1591.8200, -61.473
1591.8400, -61.509
1591.8600, -61.511
1591.8800, -61.526
1591.9000, -61.516
1591.9200, -61.516
1591.9400, -61.538
1591.9600, -61.528
1591.9800, -61.537
1592.0000, -61.521
1592.0200, -61.562
1592.0400, -61.539
1592.0600, -61.574
1592.0800, -61.539
1592.1000, -61.533
1592.1200, -61.598
1592.1400, -61.591
1592.1600, -61.521
1592.1800, -61.588
1592.2000, -61.570
1592.2200, -61.586
1592.2400, -61.616
1592.2600, -61.588
1592.2800, -61.603
1592.3000, -61.608
1592.3200, -61.617
1592.3400, -61.608
1592.3600, -61.633
1592.3800, -61.644
1592.4000, -61.601
1592.4200, -61.630
1592.4400, -61.641
1592.4600, -61.606
1592.4800, -61.667
1592.5000, -61.626
1592.5200, -61.632
1592.5400, -61.645
1592.5600, -61.662
1592.5800, -61.602
1592.6000, -61.657
1592.6200, -61.674
1592.6400, -61.677
1592.6600, -61.720
1592.6800, -61.626
1592.7000, -61.727
1592.7200, -61.675
1592.7400, -61.676
1592.7600, -61.671
1592.7800, -61.723
1592.8000, -61.716
1592.8200, -61.690
1592.8400, -61.724
1592.8600, -61.730
1592.8800, -61.720
1592.9000, -61.742
1592.9200, -61.718
1592.9400, -61.723
1592.9600, -61.724
1592.9800, -61.762
1593.0000, -61.763
1593.0200, -61.785
1593.0400, -61.770
1593.0600, -61.721
1593.0800, -61.758
1593.1000, -61.764
1593.1200, -61.785
1593.1400, -61.769
1593.1600, -61.766
1593.1800, -61.775
1593.2000, -61.787
1593.2200, -61.776
1593.2400, -61.795
1593.2600, -61.791
1593.2800, -61.821
1593.3000, -61.816
1593.3200, -61.816
1593.3400, -61.804
1593.3600, -61.811
1593.3800, -61.841
1593.4000, -61.800
1593.4200, -61.840
1593.4400, -61.827
1593.4600, -61.873
1593.4800, -61.849
1593.5000, -61.803
1593.5200, -61.899
1593.5400, -61.831
1593.5600, -61.889
1593.5800, -61.837
1593.6000, -61.881
1593.6200, -61.876
1593.6400, -61.870
1593.6600, -61.895
1593.6800, -61.862
1593.7000, -61.909
1593.7200, -61.875
1593.7400, -61.901
1593.7600, -61.910
1593.7800, -61.897
1593.8000, -61.914
1593.8200, -61.912
1593.8400, -61.911
1593.8600, -61.929
1593.8800, -61.915
1593.9000, -61.922
1593.9200, -61.967
1593.9400, -61.953
1593.9600, -61.908
1593.9800, -61.988
1594.0000, -61.962
1594.0200, -61.942
1594.0400, -61.976
1594.0600, -61.952
1594.0800, -62.000
1594.1000, -61.997
1594.1200, -61.974
1594.1400, -61.969
1594.1600, -61.988
1594.1800, -61.983
1594.2000, -61.955
1594.2200, -62.008
1594.2400, -62.009
1594.2600, -62.022
1594.2800, -61.983
1594.3000, -62.020
1594.3200, -62.044
1594.3400, -62.031
1594.3600, -62.036
1594.3800, -62.057
1594.4000, -62.017
1594.4200, -62.066
1594.4400, -62.047
1594.4600, -62.104
1594.4800, -62.040
1594.5000, -62.042
1594.5200, -62.070
1594.5400, -62.079
1594.5600, -62.057
1594.5800, -62.128
1594.6000, -62.087
1594.6200, -62.055
1594.6400, -62.127
1594.6600, -62.080
1594.6800, -62.078
1594.7000, -62.087
1594.7200, -62.145
1594.7400, -62.125
1594.7600, -62.137
1594.7800, -62.066
1594.8000, -62.128
1594.8200, -62.082
1594.8400, -62.149
1594.8600, -62.120
1594.8800, -62.118
1594.9000, -62.133
1594.9200, -62.158
1594.9400, -62.152
1594.9600, -62.153
1594.9800, -62.148
1595.0000, -62.187
1595.0200, -62.160
1595.0400, -62.194
1595.0600, -62.210
1595.0800, -62.143
1595.1000, -62.138
1595.1200, -62.242
1595.1400, -62.142
1595.1600, -62.200
1595.1800, -62.184
1595.2000, -62.202
1595.2200, -62.217
1595.2400, -62.227
1595.2600, -62.182
1595.2800, -62.219
1595.3000, -62.233
1595.3200, -62.247
1595.3400, -62.240
1595.3600, -62.227
1595.3800, -62.225
1595.4000, -62.244
1595.4200, -62.234
1595.4400, -62.260
1595.4600, -62.261
1595.4800, -62.269
1595.5000, -62.323
1595.5200, -62.264
1595.5400, -62.274
1595.5600, -62.258
1595.5800, -62.301
1595.6000, -62.273
1595.6200, -62.312
1595.6400, -62.263
1595.6600, -62.298
1595.6800, -62.323
1595.7000, -62.316
1595.7200, -62.295
1595.7400, -62.287
1595.7600, -62.334
1595.7800, -62.369
1595.8000, -62.312
1595.8200, -62.306
1595.8400, -62.361
1595.8600, -62.335
1595.8800, -62.321
1595.9000, -62.389
1595.9200, -62.354
1595.9400, -62.362
1595.9600, -62.331
1595.9800, -62.402
1596.0000, -62.378
1596.0200, -62.380
1596.0400, -62.427
1596.0600, -62.388
1596.0800, -62.380
1596.1000, -62.395
1596.1200, -62.384
1596.1400, -62.398
1596.1600, -62.372
1596.1800, -62.448
1596.2000, -62.418
1596.2200, -62.444
1596.2400, -62.403
1596.2600, -62.451
1596.2800, -62.409
1596.3000, -62.457
1596.3200, -62.427
1596.3400, -62.442
1596.3600, -62.447
1596.3800, -62.443
1596.4000, -62.435
1596.4200, -62.457
1596.4400, -62.449
1596.4600, -62.519
1596.4800, -62.445
1596.5000, -62.433
1596.5200, -62.523
1596.5400, -62.408
1596.5600, -62.498
1596.5800, -62.476
1596.6000, -62.486
1596.6200, -62.504
1596.6400, -62.495
1596.6600, -62.554
1596.6800, -62.475
1596.7000, -62.487
1596.7200, -62.577
1596.7400, -62.534
1596.7600, -62.515
1596.7800, -62.543
1596.8000, -62.525
1596.8200, -62.514
1596.8400, -62.598
1596.8600, -62.503
1596.8800, -62.508
1596.9000, -62.609
1596.9200, -62.569
1596.9400, -62.532
1596.9600, -62.516
1596.9800, -62.583
1597.0000, -62.585
1597.0200, -62.554
1597.0400, -62.622
1597.0600, -62.557
1597.0800, -62.614
1597.1000, -62.554
1597.1200, -62.623
1597.1400, -62.618
1597.1600, -62.576
1597.1800, -62.577
1597.2000, -62.585
1597.2200, -62.630
1597.2400, -62.639
1597.2600, -62.623
1597.2800, -62.564
1597.3000, -62.662
1597.3200, -62.678
1597.3400, -62.627
1597.3600, -62.682
1597.3800, -62.633
1597.4000, -62.649
1597.4200, -62.630
1597.4400, -62.648
1597.4600, -62.697
1597.4800, -62.686
1597.5000, -62.696
1597.5200, -62.673
1597.5400, -62.665
1597.5600, -62.686
1597.5800, -62.661
1597.6000, -62.728
1597.6200, -62.671
1597.6400, -62.753
1597.6600, -62.698
1597.6800, -62.710
1597.7000, -62.713
1597.7200, -62.730
1597.7400, -62.717
1597.7600, -62.747
1597.7800, -62.753
1597.8000, -62.724
1597.8200, -62.744
1597.8400, -62.763
1597.8600, -62.708
1597.8800, -62.755
1597.9000, -62.728
1597.9200, -62.825
1597.9400, -62.762
1597.9600, -62.764
1597.9800, -62.711
1598.0000, -62.846
1598.0200, -62.745
1598.0400, -62.785
1598.0600, -62.788
1598.0800, -62.745
1598.1000, -62.834
1598.1200, -62.781
1598.1400, -62.777
1598.1600, -62.773
1598.1800, -62.842
1598.2000, -62.858
1598.2200, -62.804
1598.2400, -62.774
1598.2600, -62.864
1598.2800, -62.826
1598.3000, -62.798
1598.3200, -62.826
1598.3400, -62.856
1598.3600, -62.898
1598.3800, -62.818
1598.4000, -62.894
1598.4200, -62.829
1598.4400, -62.857
1598.4600, -62.852
1598.4800, -62.905
1598.5000, -62.812
1598.5200, -62.887
1598.5400, -62.890
1598.5600, -62.893
1598.5800, -62.912
1598.6000, -62.885
1598.6200, -62.905
1598.6400, -62.904
1598.6600, -62.892
1598.6800, -62.899
1598.7000, -62.906
1598.7200, -62.917
1598.7400, -62.948
1598.7600, -62.923
1598.7800, -62.941
1598.8000, -62.937
1598.8200, -62.902
1598.8400, -62.892
1598.8600, -62.927
1598.8800, -62.932
1598.9000, -62.977
1598.9200, -62.983
1598.9400, -62.897
1598.9600, -62.998
1598.9800, -62.890
1599.0000, -62.945
1599.0200, -63.007
1599.0400, -62.952
1599.0600, -63.024
1599.0800, -62.991
1599.1000, -62.980
1599.1200, -63.010
1599.1400, -62.971
1599.1600, -63.017
1599.1800, -63.022
1599.2000, -63.010
1599.2200, -63.037
1599.2400, -63.030
1599.2600, -63.054
1599.2800, -63.012
1599.3000, -63.055
1599.3200, -63.020
1599.3400, -63.067
1599.3600, -63.075
1599.3800, -63.054
1599.4000, -63.040
1599.4200, -63.097
1599.4400, -63.093
1599.4600, -63.044
1599.4800, -63.111
1599.5000, -63.075
1599.5200, -63.119
1599.5400, -63.121
1599.5600, -63.178
1599.5800, -63.032
1599.6000, -63.068
1599.6200, -63.146
1599.6400, -63.098
1599.6600, -63.140
1599.6800, -63.064
1599.7000, -63.127
1599.7200, -63.121
1599.7400, -63.122
1599.7600, -63.115
1599.7800, -63.150
1599.8000, -63.151
1599.8200, -63.105
1599.8400, -63.217
1599.8600, -63.175
1599.8800, -63.157
1599.9000, -63.220
1599.9200, -63.144
1599.9400, -63.132
1599.9600, -63.177
1599.9800, -63.203
1600.0000, -63.211
