70BCSV 	
// AQ6370B OPTICAL SPECTRUM ANALYZER //                 
25
"CTRWL",1550.000000
"SPAN", 100.000000
"START WL",1500.000000
"STOP WL",1600.000000
"WLFREQ", 0
"REFL",-28.8
"LSCL", 5.0
"RESLN",0.100
"AVG",   1
"SMPLAUTO",      0
"SMPL",       5001
"SMPLINTVL",0.0200
"HIGH1"
"MEAS"
"LSUNT",0
"NMSKH","OFF"
"RESCOR",0
"RESPARM", 9050
"FREQPARM", 9050






"[TRACE DATA]"
1500.0000, -61.653
1500.0200, -61.669
1500.0400, -61.646
1500.0600, -61.640
1500.0800, -61.665
1500.1000, -61.643
1500.1200, -61.626
1500.1400, -61.619
1500.1600, -61.623
1500.1800, -61.612
1500.2000, -61.598
1500.2200, -61.612
1500.2400, -61.624
1500.2600, -61.585
1500.2800, -61.577
1500.3000, -61.595
1500.3200, -61.573
1500.3400, -61.570
1500.3600, -61.573
1500.3800, -61.592
1500.4000, -61.560
1500.4200, -61.496
1500.4400, -61.546
1500.4600, -61.524
1500.4800, -61.533
1500.5000, -61.512
1500.5200, -61.517
1500.5400, -61.529
1500.5600, -61.525
1500.5800, -61.520
1500.6000, -61.515
1500.6200, -61.499
1500.6400, -61.491
1500.6600, -61.506
1500.6800, -61.476
1500.7000, -61.479
1500.7200, -61.487
1500.7400, -61.481
1500.7600, -61.469
1500.7800, -61.441
1500.8000, -61.484
1500.8200, -61.445
1500.8400, -61.455
1500.8600, -61.438
1500.8800, -61.409
1500.9000, -61.468
1500.9200, -61.425
1500.9400, -61.379
1500.9600, -61.432
1500.9800, -61.397
1501.0000, -61.380
1501.0200, -61.385
1501.0400, -61.380
1501.0600, -61.344
1501.0800, -61.363
1501.1000, -61.359
1501.1200, -61.346
1501.1400, -61.354
1501.1600, -61.344
1501.1800, -61.342
1501.2000, -61.329
1501.2200, -61.303
1501.2400, -61.297
1501.2600, -61.311
1501.2800, -61.312
1501.3000, -61.322
1501.3200, -61.279
1501.3400, -61.303
1501.3600, -61.261
1501.3800, -61.296
1501.4000, -61.263
1501.4200, -61.262
1501.4400, -61.262
1501.4600, -61.264
1501.4800, -61.229
1501.5000, -61.243
1501.5200, -61.260
1501.5400, -61.209
1501.5600, -61.251
1501.5800, -61.244
1501.6000, -61.239
1501.6200, -61.197
1501.6400, -61.219
1501.6600, -61.205
1501.6800, -61.195
1501.7000, -61.205
1501.7200, -61.181
1501.7400, -61.181
1501.7600, -61.194
1501.7800, -61.178
1501.8000, -61.178
1501.8200, -61.185
1501.8400, -61.172
1501.8600, -61.184
1501.8800, -61.194
1501.9000, -61.150
1501.9200, -61.154
1501.9400, -61.114
1501.9600, -61.133
1501.9800, -61.068
1502.0000, -61.152
1502.0200, -61.092
1502.0400, -61.074
1502.0600, -61.084
1502.0800, -61.052
1502.1000, -61.096
1502.1200, -61.081
1502.1400, -61.011
1502.1600, -61.058
1502.1800, -61.040
1502.2000, -61.034
1502.2200, -61.017
1502.2400, -61.004
1502.2600, -61.017
1502.2800, -61.028
1502.3000, -60.999
1502.3200, -61.010
1502.3400, -60.994
1502.3600, -60.988
1502.3800, -60.933
1502.4000, -60.988
1502.4200, -60.942
1502.4400, -60.962
1502.4600, -60.927
1502.4800, -60.929
1502.5000, -60.942
1502.5200, -60.947
1502.5400, -60.936
1502.5600, -60.895
1502.5800, -60.924
1502.6000, -60.884
1502.6200, -60.895
1502.6400, -60.875
1502.6600, -60.908
1502.6800, -60.881
1502.7000, -60.868
1502.7200, -60.880
1502.7400, -60.880
1502.7600, -60.869
1502.7800, -60.876
1502.8000, -60.868
1502.8200, -60.843
1502.8400, -60.852
1502.8600, -60.804
1502.8800, -60.805
1502.9000, -60.832
1502.9200, -60.803
1502.9400, -60.784
1502.9600, -60.772
1502.9800, -60.785
1503.0000, -60.765
1503.0200, -60.760
1503.0400, -60.761
1503.0600, -60.751
1503.0800, -60.732
1503.1000, -60.720
1503.1200, -60.744
1503.1400, -60.730
1503.1600, -60.726
1503.1800, -60.738
1503.2000, -60.686
1503.2200, -60.692
1503.2400, -60.707
1503.2600, -60.702
1503.2800, -60.682
1503.3000, -60.677
1503.3200, -60.662
1503.3400, -60.643
1503.3600, -60.655
1503.3800, -60.618
1503.4000, -60.641
1503.4200, -60.642
1503.4400, -60.642
1503.4600, -60.631
1503.4800, -60.604
1503.5000, -60.610
1503.5200, -60.601
1503.5400, -60.599
1503.5600, -60.581
1503.5800, -60.585
1503.6000, -60.544
1503.6200, -60.572
1503.6400, -60.572
1503.6600, -60.568
1503.6800, -60.538
1503.7000, -60.517
1503.7200, -60.547
1503.7400, -60.528
1503.7600, -60.541
1503.7800, -60.526
1503.8000, -60.519
1503.8200, -60.494
1503.8400, -60.495
1503.8600, -60.486
1503.8800, -60.497
1503.9000, -60.468
1503.9200, -60.463
1503.9400, -60.452
1503.9600, -60.435
1503.9800, -60.430
1504.0000, -60.451
1504.0200, -60.457
1504.0400, -60.412
1504.0600, -60.421
1504.0800, -60.399
1504.1000, -60.401
1504.1200, -60.399
1504.1400, -60.362
1504.1600, -60.369
1504.1800, -60.361
1504.2000, -60.359
1504.2200, -60.351
1504.2400, -60.342
1504.2600, -60.325
1504.2800, -60.313
1504.3000, -60.330
1504.3200, -60.308
1504.3400, -60.325
1504.3600, -60.287
1504.3800, -60.315
1504.4000, -60.292
1504.4200, -60.307
1504.4400, -60.282
1504.4600, -60.267
1504.4800, -60.253
1504.5000, -60.250
1504.5200, -60.248
1504.5400, -60.229
1504.5600, -60.223
1504.5800, -60.228
1504.6000, -60.217
1504.6200, -60.200
1504.6400, -60.173
1504.6600, -60.204
1504.6800, -60.206
1504.7000, -60.163
1504.7200, -60.161
1504.7400, -60.167
1504.7600, -60.169
1504.7800, -60.179
1504.8000, -60.172
1504.8200, -60.136
1504.8400, -60.128
1504.8600, -60.132
1504.8800, -60.111
1504.9000, -60.100
1504.9200, -60.115
1504.9400, -60.074
1504.9600, -60.051
1504.9800, -60.069
1505.0000, -60.065
1505.0200, -60.041
1505.0400, -60.064
1505.0600, -60.043
1505.0800, -60.011
1505.1000, -60.041
1505.1200, -60.007
1505.1400, -60.018
1505.1600, -59.992
1505.1800, -59.985
1505.2000, -59.984
1505.2200, -59.987
1505.2400, -59.973
1505.2600, -59.943
1505.2800, -59.916
1505.3000, -59.966
1505.3200, -59.957
1505.3400, -59.951
1505.3600, -59.913
1505.3800, -59.905
1505.4000, -59.904
1505.4200, -59.902
1505.4400, -59.891
1505.4600, -59.898
1505.4800, -59.861
1505.5000, -59.871
1505.5200, -59.848
1505.5400, -59.846
1505.5600, -59.854
1505.5800, -59.832
1505.6000, -59.838
1505.6200, -59.844
1505.6400, -59.824
1505.6600, -59.829
1505.6800, -59.827
1505.7000, -59.806
1505.7200, -59.778
1505.7400, -59.801
1505.7600, -59.762
1505.7800, -59.772
1505.8000, -59.751
1505.8200, -59.742
1505.8400, -59.732
1505.8600, -59.741
1505.8800, -59.709
1505.9000, -59.709
1505.9200, -59.710
1505.9400, -59.687
1505.9600, -59.717
1505.9800, -59.691
1506.0000, -59.641
1506.0200, -59.675
1506.0400, -59.647
1506.0600, -59.649
1506.0800, -59.636
1506.1000, -59.633
1506.1200, -59.628
1506.1400, -59.639
1506.1600, -59.595
1506.1800, -59.602
1506.2000, -59.592
1506.2200, -59.572
1506.2400, -59.565
1506.2600, -59.578
1506.2800, -59.551
1506.3000, -59.562
1506.3200, -59.558
1506.3400, -59.538
1506.3600, -59.531
1506.3800, -59.522
1506.4000, -59.532
1506.4200, -59.506
1506.4400, -59.513
1506.4600, -59.491
1506.4800, -59.488
1506.5000, -59.463
1506.5200, -59.471
1506.5400, -59.482
1506.5600, -59.447
1506.5800, -59.466
1506.6000, -59.440
1506.6200, -59.446
1506.6400, -59.437
1506.6600, -59.440
1506.6800, -59.408
1506.7000, -59.406
1506.7200, -59.410
1506.7400, -59.395
1506.7600, -59.371
1506.7800, -59.353
1506.8000, -59.339
1506.8200, -59.360
1506.8400, -59.339
1506.8600, -59.329
1506.8800, -59.322
1506.9000, -59.315
1506.9200, -59.315
1506.9400, -59.297
1506.9600, -59.291
1506.9800, -59.290
1507.0000, -59.285
1507.0200, -59.253
1507.0400, -59.257
1507.0600, -59.258
1507.0800, -59.229
1507.1000, -59.207
1507.1200, -59.238
1507.1400, -59.220
1507.1600, -59.222
1507.1800, -59.211
1507.2000, -59.200
1507.2200, -59.166
1507.2400, -59.162
1507.2600, -59.176
1507.2800, -59.190
1507.3000, -59.165
1507.3200, -59.152
1507.3400, -59.152
1507.3600, -59.124
1507.3800, -59.122
1507.4000, -59.117
1507.4200, -59.112
1507.4400, -59.092
1507.4600, -59.094
1507.4800, -59.076
1507.5000, -59.070
1507.5200, -59.087
1507.5400, -59.060
1507.5600, -59.072
1507.5800, -59.050
1507.6000, -59.043
1507.6200, -59.036
1507.6400, -59.025
1507.6600, -59.025
1507.6800, -59.007
1507.7000, -58.987
1507.7200, -58.990
1507.7400, -58.970
1507.7600, -58.948
1507.7800, -58.944
1507.8000, -58.947
1507.8200, -58.924
1507.8400, -58.912
1507.8600, -58.913
1507.8800, -58.910
1507.9000, -58.903
1507.9200, -58.880
1507.9400, -58.876
1507.9600, -58.872
1507.9800, -58.859
1508.0000, -58.847
1508.0200, -58.853
1508.0400, -58.841
1508.0600, -58.807
1508.0800, -58.816
1508.1000, -58.807
1508.1200, -58.814
1508.1400, -58.798
1508.1600, -58.788
1508.1800, -58.799
1508.2000, -58.789
1508.2200, -58.757
1508.2400, -58.742
1508.2600, -58.784
1508.2800, -58.741
1508.3000, -58.742
1508.3200, -58.739
1508.3400, -58.709
1508.3600, -58.738
1508.3800, -58.714
1508.4000, -58.680
1508.4200, -58.707
1508.4400, -58.668
1508.4600, -58.662
1508.4800, -58.635
1508.5000, -58.682
1508.5200, -58.663
1508.5400, -58.633
1508.5600, -58.660
1508.5800, -58.635
1508.6000, -58.622
1508.6200, -58.602
1508.6400, -58.608
1508.6600, -58.595
1508.6800, -58.567
1508.7000, -58.545
1508.7200, -58.561
1508.7400, -58.545
1508.7600, -58.545
1508.7800, -58.513
1508.8000, -58.517
1508.8200, -58.525
1508.8400, -58.516
1508.8600, -58.481
1508.8800, -58.478
1508.9000, -58.478
1508.9200, -58.482
1508.9400, -58.452
1508.9600, -58.442
1508.9800, -58.428
1509.0000, -58.416
1509.0200, -58.419
1509.0400, -58.389
1509.0600, -58.396
1509.0800, -58.397
1509.1000, -58.375
1509.1200, -58.397
1509.1400, -58.377
1509.1600, -58.361
1509.1800, -58.363
1509.2000, -58.349
1509.2200, -58.326
1509.2400, -58.320
1509.2600, -58.319
1509.2800, -58.321
1509.3000, -58.295
1509.3200, -58.304
1509.3400, -58.267
1509.3600, -58.272
1509.3800, -58.272
1509.4000, -58.262
1509.4200, -58.226
1509.4400, -58.244
1509.4600, -58.239
1509.4800, -58.221
1509.5000, -58.221
1509.5200, -58.202
1509.5400, -58.180
1509.5600, -58.171
1509.5800, -58.156
1509.6000, -58.173
1509.6200, -58.172
1509.6400, -58.129
1509.6600, -58.122
1509.6800, -58.131
1509.7000, -58.103
1509.7200, -58.109
1509.7400, -58.087
1509.7600, -58.082
1509.7800, -58.080
1509.8000, -58.055
1509.8200, -58.050
1509.8400, -58.040
1509.8600, -58.040
1509.8800, -58.049
1509.9000, -58.017
1509.9200, -57.997
1509.9400, -58.007
1509.9600, -57.987
1509.9800, -57.990
1510.0000, -57.961
1510.0200, -57.971
1510.0400, -57.947
1510.0600, -57.944
1510.0800, -57.931
1510.1000, -57.919
1510.1200, -57.917
1510.1400, -57.912
1510.1600, -57.896
1510.1800, -57.899
1510.2000, -57.869
1510.2200, -57.858
1510.2400, -57.869
1510.2600, -57.856
1510.2800, -57.851
1510.3000, -57.823
1510.3200, -57.813
1510.3400, -57.807
1510.3600, -57.813
1510.3800, -57.776
1510.4000, -57.783
1510.4200, -57.745
1510.4400, -57.751
1510.4600, -57.746
1510.4800, -57.732
1510.5000, -57.717
1510.5200, -57.688
1510.5400, -57.717
1510.5600, -57.713
1510.5800, -57.675
1510.6000, -57.655
1510.6200, -57.667
1510.6400, -57.640
1510.6600, -57.633
1510.6800, -57.620
1510.7000, -57.602
1510.7200, -57.594
1510.7400, -57.601
1510.7600, -57.568
1510.7800, -57.556
1510.8000, -57.544
1510.8200, -57.545
1510.8400, -57.539
1510.8600, -57.526
1510.8800, -57.510
1510.9000, -57.499
1510.9200, -57.492
1510.9400, -57.468
1510.9600, -57.467
1510.9800, -57.471
1511.0000, -57.434
1511.0200, -57.427
1511.0400, -57.408
1511.0600, -57.410
1511.0800, -57.410
1511.1000, -57.405
1511.1200, -57.386
1511.1400, -57.367
1511.1600, -57.357
1511.1800, -57.352
1511.2000, -57.340
1511.2200, -57.332
1511.2400, -57.321
1511.2600, -57.314
1511.2800, -57.306
1511.3000, -57.278
1511.3200, -57.272
1511.3400, -57.269
1511.3600, -57.255
1511.3800, -57.233
1511.4000, -57.219
1511.4200, -57.237
1511.4400, -57.210
1511.4600, -57.182
1511.4800, -57.165
1511.5000, -57.159
1511.5200, -57.169
1511.5400, -57.144
1511.5600, -57.134
1511.5800, -57.122
1511.6000, -57.116
1511.6200, -57.098
1511.6400, -57.090
1511.6600, -57.082
1511.6800, -57.057
1511.7000, -57.057
1511.7200, -57.049
1511.7400, -57.027
1511.7600, -57.016
1511.7800, -57.000
1511.8000, -57.010
1511.8200, -56.984
1511.8400, -56.967
1511.8600, -56.957
1511.8800, -56.946
1511.9000, -56.936
1511.9200, -56.926
1511.9400, -56.916
1511.9600, -56.890
1511.9800, -56.871
1512.0000, -56.871
1512.0200, -56.866
1512.0400, -56.855
1512.0600, -56.851
1512.0800, -56.835
1512.1000, -56.828
1512.1200, -56.814
1512.1400, -56.808
1512.1600, -56.788
1512.1800, -56.781
1512.2000, -56.773
1512.2200, -56.757
1512.2400, -56.740
1512.2600, -56.734
1512.2800, -56.734
1512.3000, -56.722
1512.3200, -56.708
1512.3400, -56.706
1512.3600, -56.676
1512.3800, -56.674
1512.4000, -56.668
1512.4200, -56.656
1512.4400, -56.636
1512.4600, -56.633
1512.4800, -56.616
1512.5000, -56.600
1512.5200, -56.582
1512.5400, -56.563
1512.5600, -56.564
1512.5800, -56.552
1512.6000, -56.541
1512.6200, -56.527
1512.6400, -56.511
1512.6600, -56.511
1512.6800, -56.485
1512.7000, -56.472
1512.7200, -56.463
1512.7400, -56.459
1512.7600, -56.454
1512.7800, -56.408
1512.8000, -56.405
1512.8200, -56.414
1512.8400, -56.398
1512.8600, -56.379
1512.8800, -56.361
1512.9000, -56.372
1512.9200, -56.363
1512.9400, -56.322
1512.9600, -56.330
1512.9800, -56.322
1513.0000, -56.305
1513.0200, -56.288
1513.0400, -56.288
1513.0600, -56.263
1513.0800, -56.258
1513.1000, -56.236
1513.1200, -56.217
1513.1400, -56.225
1513.1600, -56.211
1513.1800, -56.199
1513.2000, -56.192
1513.2200, -56.168
1513.2400, -56.168
1513.2600, -56.154
1513.2800, -56.132
1513.3000, -56.135
1513.3200, -56.113
1513.3400, -56.102
1513.3600, -56.086
1513.3800, -56.068
1513.4000, -56.067
1513.4200, -56.065
1513.4400, -56.043
1513.4600, -56.018
1513.4800, -56.000
1513.5000, -55.998
1513.5200, -55.990
1513.5400, -55.968
1513.5600, -55.964
1513.5800, -55.940
1513.6000, -55.942
1513.6200, -55.923
1513.6400, -55.907
1513.6600, -55.878
1513.6800, -55.895
1513.7000, -55.875
1513.7200, -55.843
1513.7400, -55.839
1513.7600, -55.835
1513.7800, -55.834
1513.8000, -55.793
1513.8200, -55.798
1513.8400, -55.789
1513.8600, -55.772
1513.8800, -55.751
1513.9000, -55.724
1513.9200, -55.711
1513.9400, -55.722
1513.9600, -55.715
1513.9800, -55.701
1514.0000, -55.683
1514.0200, -55.671
1514.0400, -55.655
1514.0600, -55.646
1514.0800, -55.622
1514.1000, -55.614
1514.1200, -55.604
1514.1400, -55.586
1514.1600, -55.589
1514.1800, -55.574
1514.2000, -55.570
1514.2200, -55.543
1514.2400, -55.541
1514.2600, -55.539
1514.2800, -55.517
1514.3000, -55.517
1514.3200, -55.479
1514.3400, -55.456
1514.3600, -55.452
1514.3800, -55.424
1514.4000, -55.431
1514.4200, -55.388
1514.4400, -55.386
1514.4600, -55.380
1514.4800, -55.358
1514.5000, -55.364
1514.5200, -55.332
1514.5400, -55.328
1514.5600, -55.320
1514.5800, -55.286
1514.6000, -55.279
1514.6200, -55.271
1514.6400, -55.267
1514.6600, -55.247
1514.6800, -55.215
1514.7000, -55.212
1514.7200, -55.208
1514.7400, -55.185
1514.7600, -55.174
1514.7800, -55.152
1514.8000, -55.151
1514.8200, -55.147
1514.8400, -55.109
1514.8600, -55.096
1514.8800, -55.083
1514.9000, -55.086
1514.9200, -55.080
1514.9400, -55.058
1514.9600, -55.043
1514.9800, -55.036
1515.0000, -55.001
1515.0200, -55.015
1515.0400, -54.987
1515.0600, -54.972
1515.0800, -54.959
1515.1000, -54.947
1515.1200, -54.929
1515.1400, -54.928
1515.1600, -54.890
1515.1800, -54.895
1515.2000, -54.879
1515.2200, -54.862
1515.2400, -54.858
1515.2600, -54.838
1515.2800, -54.801
1515.3000, -54.799
1515.3200, -54.800
1515.3400, -54.783
1515.3600, -54.768
1515.3800, -54.728
1515.4000, -54.722
1515.4200, -54.716
1515.4400, -54.702
1515.4600, -54.680
1515.4800, -54.655
1515.5000, -54.656
1515.5200, -54.630
1515.5400, -54.614
1515.5600, -54.598
1515.5800, -54.606
1515.6000, -54.590
1515.6200, -54.552
1515.6400, -54.531
1515.6600, -54.542
1515.6800, -54.511
1515.7000, -54.497
1515.7200, -54.485
1515.7400, -54.476
1515.7600, -54.458
1515.7800, -54.453
1515.8000, -54.433
1515.8200, -54.428
1515.8400, -54.408
1515.8600, -54.397
1515.8800, -54.380
1515.9000, -54.360
1515.9200, -54.339
1515.9400, -54.325
1515.9600, -54.322
1515.9800, -54.297
1516.0000, -54.285
1516.0200, -54.264
1516.0400, -54.247
1516.0600, -54.214
1516.0800, -54.228
1516.1000, -54.211
1516.1200, -54.182
1516.1400, -54.184
1516.1600, -54.154
1516.1800, -54.140
1516.2000, -54.123
1516.2200, -54.102
1516.2400, -54.085
1516.2600, -54.072
1516.2800, -54.070
1516.3000, -54.043
1516.3200, -54.024
1516.3400, -54.014
1516.3600, -53.996
1516.3800, -53.967
1516.4000, -53.961
1516.4200, -53.937
1516.4400, -53.914
1516.4600, -53.909
1516.4800, -53.877
1516.5000, -53.869
1516.5200, -53.856
1516.5400, -53.850
1516.5600, -53.817
1516.5800, -53.798
1516.6000, -53.804
1516.6200, -53.766
1516.6400, -53.736
1516.6600, -53.734
1516.6800, -53.708
1516.7000, -53.706
1516.7200, -53.679
1516.7400, -53.642
1516.7600, -53.629
1516.7800, -53.646
1516.8000, -53.617
1516.8200, -53.603
1516.8400, -53.588
1516.8600, -53.580
1516.8800, -53.547
1516.9000, -53.542
1516.9200, -53.520
1516.9400, -53.493
1516.9600, -53.476
1516.9800, -53.463
1517.0000, -53.445
1517.0200, -53.430
1517.0400, -53.418
1517.0600, -53.403
1517.0800, -53.384
1517.1000, -53.357
1517.1200, -53.334
1517.1400, -53.317
1517.1600, -53.311
1517.1800, -53.266
1517.2000, -53.254
1517.2200, -53.257
1517.2400, -53.232
1517.2600, -53.200
1517.2800, -53.169
1517.3000, -53.173
1517.3200, -53.153
1517.3400, -53.125
1517.3600, -53.110
1517.3800, -53.077
1517.4000, -53.062
1517.4200, -53.040
1517.4400, -53.025
1517.4600, -52.999
1517.4800, -53.008
1517.5000, -52.992
1517.5200, -52.943
1517.5400, -52.930
1517.5600, -52.911
1517.5800, -52.891
1517.6000, -52.873
1517.6200, -52.844
1517.6400, -52.838
1517.6600, -52.803
1517.6800, -52.771
1517.7000, -52.775
1517.7200, -52.765
1517.7400, -52.740
1517.7600, -52.724
1517.7800, -52.705
1517.8000, -52.685
1517.8200, -52.673
1517.8400, -52.638
1517.8600, -52.626
1517.8800, -52.595
1517.9000, -52.581
1517.9200, -52.563
1517.9400, -52.538
1517.9600, -52.522
1517.9800, -52.509
1518.0000, -52.487
1518.0200, -52.474
1518.0400, -52.441
1518.0600, -52.420
1518.0800, -52.393
1518.1000, -52.367
1518.1200, -52.340
1518.1400, -52.320
1518.1600, -52.320
1518.1800, -52.301
1518.2000, -52.270
1518.2200, -52.226
1518.2400, -52.222
1518.2600, -52.197
1518.2800, -52.174
1518.3000, -52.162
1518.3200, -52.136
1518.3400, -52.102
1518.3600, -52.084
1518.3800, -52.053
1518.4000, -52.032
1518.4200, -52.030
1518.4400, -52.018
1518.4600, -51.970
1518.4800, -51.943
1518.5000, -51.928
1518.5200, -51.907
1518.5400, -51.881
1518.5600, -51.845
1518.5800, -51.840
1518.6000, -51.809
1518.6200, -51.763
1518.6400, -51.761
1518.6600, -51.755
1518.6800, -51.729
1518.7000, -51.705
1518.7200, -51.690
1518.7400, -51.664
1518.7600, -51.636
1518.7800, -51.601
1518.8000, -51.601
1518.8200, -51.560
1518.8400, -51.533
1518.8600, -51.520
1518.8800, -51.500
1518.9000, -51.471
1518.9200, -51.450
1518.9400, -51.443
1518.9600, -51.418
1518.9800, -51.391
1519.0000, -51.356
1519.0200, -51.332
1519.0400, -51.307
1519.0600, -51.279
1519.0800, -51.227
1519.1000, -51.240
1519.1200, -51.216
1519.1400, -51.179
1519.1600, -51.148
1519.1800, -51.120
1519.2000, -51.104
1519.2200, -51.067
1519.2400, -51.040
1519.2600, -51.018
1519.2800, -50.985
1519.3000, -50.951
1519.3200, -50.929
1519.3400, -50.905
1519.3600, -50.887
1519.3800, -50.872
1519.4000, -50.825
1519.4200, -50.797
1519.4400, -50.778
1519.4600, -50.751
1519.4800, -50.720
1519.5000, -50.682
1519.5200, -50.668
1519.5400, -50.626
1519.5600, -50.584
1519.5800, -50.584
1519.6000, -50.573
1519.6200, -50.539
1519.6400, -50.511
1519.6600, -50.477
1519.6800, -50.449
1519.7000, -50.435
1519.7200, -50.398
1519.7400, -50.378
1519.7600, -50.340
1519.7800, -50.304
1519.8000, -50.285
1519.8200, -50.264
1519.8400, -50.240
1519.8600, -50.212
1519.8800, -50.192
1519.9000, -50.161
1519.9200, -50.134
1519.9400, -50.092
1519.9600, -50.058
1519.9800, -50.033
1520.0000, -50.012
1520.0200, -49.977
1520.0400, -49.940
1520.0600, -49.921
1520.0800, -49.880
1520.1000, -49.824
1520.1200, -49.789
1520.1400, -49.782
1520.1600, -49.747
1520.1800, -49.712
1520.2000, -49.675
1520.2200, -49.628
1520.2400, -49.607
1520.2600, -49.572
1520.2800, -49.550
1520.3000, -49.548
1520.3200, -49.510
1520.3400, -49.457
1520.3600, -49.424
1520.3800, -49.411
1520.4000, -49.370
1520.4200, -49.328
1520.4400, -49.288
1520.4600, -49.274
1520.4800, -49.247
1520.5000, -49.182
1520.5200, -49.139
1520.5400, -49.103
1520.5600, -49.094
1520.5800, -49.088
1520.6000, -49.042
1520.6200, -49.007
1520.6400, -48.982
1520.6600, -48.949
1520.6800, -48.923
1520.7000, -48.884
1520.7200, -48.843
1520.7400, -48.819
1520.7600, -48.781
1520.7800, -48.754
1520.8000, -48.724
1520.8200, -48.687
1520.8400, -48.653
1520.8600, -48.614
1520.8800, -48.574
1520.9000, -48.541
1520.9200, -48.475
1520.9400, -48.463
1520.9600, -48.422
1520.9800, -48.410
1521.0000, -48.374
1521.0200, -48.328
1521.0400, -48.288
1521.0600, -48.263
1521.0800, -48.211
1521.1000, -48.176
1521.1200, -48.121
1521.1400, -48.092
1521.1600, -48.055
1521.1800, -48.012
1521.2000, -47.944
1521.2200, -47.936
1521.2400, -47.919
1521.2600, -47.882
1521.2800, -47.834
1521.3000, -47.793
1521.3200, -47.771
1521.3400, -47.714
1521.3600, -47.676
1521.3800, -47.642
1521.4000, -47.603
1521.4200, -47.562
1521.4400, -47.513
1521.4600, -47.463
1521.4800, -47.426
1521.5000, -47.408
1521.5200, -47.393
1521.5400, -47.361
1521.5600, -47.320
1521.5800, -47.270
1521.6000, -47.237
1521.6200, -47.198
1521.6400, -47.160
1521.6600, -47.109
1521.6800, -47.077
1521.7000, -47.041
1521.7200, -47.002
1521.7400, -46.970
1521.7600, -46.924
1521.7800, -46.887
1521.8000, -46.847
1521.8200, -46.807
1521.8400, -46.765
1521.8600, -46.723
1521.8800, -46.681
1521.9000, -46.618
1521.9200, -46.605
1521.9400, -46.573
1521.9600, -46.522
1521.9800, -46.461
1522.0000, -46.421
1522.0200, -46.406
1522.0400, -46.352
1522.0600, -46.307
1522.0800, -46.271
1522.1000, -46.235
1522.1200, -46.188
1522.1400, -46.135
1522.1600, -46.105
1522.1800, -46.073
1522.2000, -46.041
1522.2200, -45.982
1522.2400, -45.928
1522.2600, -45.911
1522.2800, -45.862
1522.3000, -45.821
1522.3200, -45.771
1522.3400, -45.742
1522.3600, -45.690
1522.3800, -45.630
1522.4000, -45.601
1522.4200, -45.586
1522.4400, -45.541
1522.4600, -45.498
1522.4800, -45.458
1522.5000, -45.418
1522.5200, -45.371
1522.5400, -45.320
1522.5600, -45.283
1522.5800, -45.233
1522.6000, -45.197
1522.6200, -45.158
1522.6400, -45.115
1522.6600, -45.066
1522.6800, -45.030
1522.7000, -44.986
1522.7200, -44.943
1522.7400, -44.917
1522.7600, -44.879
1522.7800, -44.836
1522.8000, -44.789
1522.8200, -44.722
1522.8400, -44.701
1522.8600, -44.659
1522.8800, -44.617
1522.9000, -44.550
1522.9200, -44.506
1522.9400, -44.471
1522.9600, -44.438
1522.9800, -44.398
1523.0000, -44.343
1523.0200, -44.303
1523.0400, -44.263
1523.0600, -44.216
1523.0800, -44.166
1523.1000, -44.131
1523.1200, -44.092
1523.1400, -44.047
1523.1600, -43.993
1523.1800, -43.959
1523.2000, -43.920
1523.2200, -43.873
1523.2400, -43.828
1523.2600, -43.789
1523.2800, -43.756
1523.3000, -43.709
1523.3200, -43.653
1523.3400, -43.623
1523.3600, -43.581
1523.3800, -43.535
1523.4000, -43.493
1523.4200, -43.449
1523.4400, -43.410
1523.4600, -43.364
1523.4800, -43.321
1523.5000, -43.279
1523.5200, -43.234
1523.5400, -43.193
1523.5600, -43.152
1523.5800, -43.111
1523.6000, -43.066
1523.6200, -43.027
1523.6400, -42.981
1523.6600, -42.940
1523.6800, -42.901
1523.7000, -42.859
1523.7200, -42.814
1523.7400, -42.773
1523.7600, -42.720
1523.7800, -42.683
1523.8000, -42.648
1523.8200, -42.607
1523.8400, -42.555
1523.8600, -42.510
1523.8800, -42.470
1523.9000, -42.429
1523.9200, -42.387
1523.9400, -42.340
1523.9600, -42.303
1523.9800, -42.262
1524.0000, -42.223
1524.0200, -42.181
1524.0400, -42.134
1524.0600, -42.094
1524.0800, -42.049
1524.1000, -42.003
1524.1200, -41.964
1524.1400, -41.924
1524.1600, -41.880
1524.1800, -41.835
1524.2000, -41.794
1524.2200, -41.754
1524.2400, -41.707
1524.2600, -41.663
1524.2800, -41.625
1524.3000, -41.589
1524.3200, -41.546
1524.3400, -41.505
1524.3600, -41.463
1524.3800, -41.420
1524.4000, -41.381
1524.4200, -41.336
1524.4400, -41.297
1524.4600, -41.256
1524.4800, -41.218
1524.5000, -41.172
1524.5200, -41.133
1524.5400, -41.092
1524.5600, -41.053
1524.5800, -41.012
1524.6000, -40.974
1524.6200, -40.937
1524.6400, -40.896
1524.6600, -40.854
1524.6800, -40.811
1524.7000, -40.767
1524.7200, -40.727
1524.7400, -40.688
1524.7600, -40.648
1524.7800, -40.610
1524.8000, -40.568
1524.8200, -40.527
1524.8400, -40.488
1524.8600, -40.447
1524.8800, -40.406
1524.9000, -40.363
1524.9200, -40.324
1524.9400, -40.281
1524.9600, -40.241
1524.9800, -40.202
1525.0000, -40.163
1525.0200, -40.122
1525.0400, -40.080
1525.0600, -40.036
1525.0800, -39.992
1525.1000, -39.950
1525.1200, -39.911
1525.1400, -39.873
1525.1600, -39.837
1525.1800, -39.794
1525.2000, -39.750
1525.2200, -39.712
1525.2400, -39.674
1525.2600, -39.633
1525.2800, -39.594
1525.3000, -39.555
1525.3200, -39.515
1525.3400, -39.474
1525.3600, -39.436
1525.3800, -39.394
1525.4000, -39.355
1525.4200, -39.317
1525.4400, -39.277
1525.4600, -39.239
1525.4800, -39.197
1525.5000, -39.158
1525.5200, -39.116
1525.5400, -39.071
1525.5600, -39.032
1525.5800, -38.991
1525.6000, -38.950
1525.6200, -38.913
1525.6400, -38.871
1525.6600, -38.831
1525.6800, -38.789
1525.7000, -38.746
1525.7200, -38.699
1525.7400, -38.657
1525.7600, -38.618
1525.7800, -38.579
1525.8000, -38.538
1525.8200, -38.494
1525.8400, -38.453
1525.8600, -38.417
1525.8800, -38.371
1525.9000, -38.331
1525.9200, -38.296
1525.9400, -38.256
1525.9600, -38.217
1525.9800, -38.176
1526.0000, -38.143
1526.0200, -38.107
1526.0400, -38.066
1526.0600, -38.022
1526.0800, -37.988
1526.1000, -37.953
1526.1200, -37.914
1526.1400, -37.871
1526.1600, -37.834
1526.1800, -37.793
1526.2000, -37.750
1526.2200, -37.712
1526.2400, -37.662
1526.2600, -37.624
1526.2800, -37.585
1526.3000, -37.549
1526.3200, -37.515
1526.3400, -37.475
1526.3600, -37.442
1526.3800, -37.408
1526.4000, -37.367
1526.4200, -37.332
1526.4400, -37.295
1526.4600, -37.256
1526.4800, -37.222
1526.5000, -37.183
1526.5200, -37.142
1526.5400, -37.102
1526.5600, -37.041
1526.5800, -37.011
1526.6000, -36.966
1526.6200, -36.939
1526.6400, -36.895
1526.6600, -36.843
1526.6800, -36.806
1526.7000, -36.770
1526.7200, -36.738
1526.7400, -36.698
1526.7600, -36.656
1526.7800, -36.622
1526.8000, -36.579
1526.8200, -36.541
1526.8400, -36.497
1526.8600, -36.465
1526.8800, -36.435
1526.9000, -36.377
1526.9200, -36.345
1526.9400, -36.305
1526.9600, -36.269
1526.9800, -36.228
1527.0000, -36.181
1527.0200, -36.148
1527.0400, -36.108
1527.0600, -36.058
1527.0800, -36.010
1527.1000, -35.972
1527.1200, -35.957
1527.1400, -35.918
1527.1600, -35.872
1527.1800, -35.831
1527.2000, -35.804
1527.2200, -35.759
1527.2400, -35.724
1527.2600, -35.690
1527.2800, -35.650
1527.3000, -35.609
1527.3200, -35.569
1527.3400, -35.511
1527.3600, -35.480
1527.3800, -35.437
1527.4000, -35.403
1527.4200, -35.363
1527.4400, -35.318
1527.4600, -35.277
1527.4800, -35.226
1527.5000, -35.159
1527.5200, -35.124
1527.5400, -35.073
1527.5600, -35.037
1527.5800, -34.966
1527.6000, -34.915
1527.6200, -34.894
1527.6400, -34.839
1527.6600, -34.801
1527.6800, -34.748
1527.7000, -34.693
1527.7200, -34.654
1527.7400, -34.602
1527.7600, -34.573
1527.7800, -34.514
1527.8000, -34.472
1527.8200, -34.435
1527.8400, -34.369
1527.8600, -34.346
1527.8800, -34.297
1527.9000, -34.271
1527.9200, -34.202
1527.9400, -34.176
1527.9600, -34.119
1527.9800, -34.071
1528.0000, -34.012
1528.0200, -33.955
1528.0400, -33.937
1528.0600, -33.887
1528.0800, -33.845
1528.1000, -33.787
1528.1200, -33.764
1528.1400, -33.707
1528.1600, -33.661
1528.1800, -33.623
1528.2000, -33.576
1528.2200, -33.536
1528.2400, -33.507
1528.2600, -33.451
1528.2800, -33.413
1528.3000, -33.404
1528.3200, -33.349
1528.3400, -33.321
1528.3600, -33.277
1528.3800, -33.234
1528.4000, -33.187
1528.4200, -33.100
1528.4400, -33.063
1528.4600, -33.055
1528.4800, -32.999
1528.5000, -32.964
1528.5200, -32.907
1528.5400, -32.884
1528.5600, -32.842
1528.5800, -32.816
1528.6000, -32.755
1528.6200, -32.710
1528.6400, -32.675
1528.6600, -32.639
1528.6800, -32.592
1528.7000, -32.544
1528.7200, -32.527
1528.7400, -32.482
1528.7600, -32.407
1528.7800, -32.376
1528.8000, -32.333
1528.8200, -32.290
1528.8400, -32.210
1528.8600, -32.148
1528.8800, -32.117
1528.9000, -32.053
1528.9200, -32.014
1528.9400, -31.919
1528.9600, -31.888
1528.9800, -31.874
1529.0000, -31.788
1529.0200, -31.736
1529.0400, -31.685
1529.0600, -31.667
1529.0800, -31.634
1529.1000, -31.578
1529.1200, -31.503
1529.1400, -31.479
1529.1600, -31.423
1529.1800, -31.407
1529.2000, -31.370
1529.2200, -31.292
1529.2400, -31.223
1529.2600, -31.182
1529.2800, -31.154
1529.3000, -31.152
1529.3200, -31.107
1529.3400, -30.990
1529.3600, -31.006
1529.3800, -30.879
1529.4000, -30.880
1529.4200, -30.788
1529.4400, -30.702
1529.4600, -30.689
1529.4800, -30.754
1529.5000, -30.691
1529.5200, -30.589
1529.5400, -30.558
1529.5600, -30.596
1529.5800, -30.431
1529.6000, -30.380
1529.6200, -30.352
1529.6400, -30.266
1529.6600, -30.270
1529.6800, -30.237
1529.7000, -30.184
1529.7200, -30.197
1529.7400, -30.106
1529.7600, -30.149
1529.7800, -30.093
1529.8000, -30.056
1529.8200, -30.017
1529.8400, -30.024
1529.8600, -29.877
1529.8800, -29.801
1529.9000, -29.852
1529.9200, -29.818
1529.9400, -29.857
1529.9600, -29.733
1529.9800, -29.657
1530.0000, -29.740
1530.0200, -29.552
1530.0400, -29.603
1530.0600, -29.610
1530.0800, -29.538
1530.1000, -29.488
1530.1200, -29.626
1530.1400, -29.489
1530.1600, -29.346
1530.1800, -29.724
1530.2000, -29.567
1530.2200, -29.453
1530.2400, -29.451
1530.2600, -29.398
1530.2800, -29.443
1530.3000, -29.442
1530.3200, -29.515
1530.3400, -29.425
1530.3600, -29.314
1530.3800, -29.272
1530.4000, -29.231
1530.4200, -29.126
1530.4400, -29.150
1530.4600, -29.021
1530.4800, -29.002
1530.5000, -29.042
1530.5200, -28.959
1530.5400, -28.718
1530.5600, -28.827
1530.5800, -28.784
1530.6000, -28.745
1530.6200, -28.773
1530.6400, -28.559
1530.6600, -28.688
1530.6800, -28.618
1530.7000, -28.453
1530.7200, -28.396
1530.7400, -28.567
1530.7600, -28.525
1530.7800, -28.393
1530.8000, -28.498
1530.8200, -28.468
1530.8400, -28.501
1530.8600, -28.510
1530.8800, -28.403
1530.9000, -28.227
1530.9200, -28.483
1530.9400, -28.398
1530.9600, -28.381
1530.9800, -28.190
1531.0000, -28.362
1531.0200, -28.396
1531.0400, -28.476
1531.0600, -28.393
1531.0800, -28.385
1531.1000, -27.937
1531.1200, -28.292
1531.1400, -28.257
1531.1600, -28.310
1531.1800, -28.118
1531.2000, -28.040
1531.2200, -28.071
1531.2400, -27.692
1531.2600, -28.007
1531.2800, -27.760
1531.3000, -26.486
1531.3200, -27.111
1531.3400, -26.678
1531.3600, -26.308
1531.3800, -24.752
1531.4000, -26.407
1531.4200, -25.988
1531.4400, -24.726
1531.4600, -26.740
1531.4800, -25.664
1531.5000, -26.618
1531.5200, -25.472
1531.5400, -26.025
1531.5600, -25.062
1531.5800, -25.734
1531.6000, -26.589
1531.6200, -27.469
1531.6400, -26.946
1531.6600, -27.682
1531.6800, -27.525
1531.7000, -27.750
1531.7200, -27.731
1531.7400, -27.887
1531.7600, -27.755
1531.7800, -27.898
1531.8000, -27.970
1531.8200, -27.629
1531.8400, -27.730
1531.8600, -27.338
1531.8800, -26.144
1531.9000, -27.618
1531.9200, -26.965
1531.9400, -25.723
1531.9600, -25.910
1531.9800, -27.347
1532.0000, -24.711
1532.0200, -26.776
1532.0400, -27.309
1532.0600, -27.647
1532.0800, -27.590
1532.1000, -25.302
1532.1200, -25.444
1532.1400, -26.819
1532.1600, -27.621
1532.1800, -27.294
1532.2000, -27.239
1532.2200, -26.059
1532.2400, -27.473
1532.2600, -27.661
1532.2800, -27.743
1532.3000, -27.249
1532.3200, -25.670
1532.3400, -27.938
1532.3600, -26.509
1532.3800, -26.974
1532.4000, -27.535
1532.4200, -27.617
1532.4400, -27.362
1532.4600, -27.505
1532.4800, -27.824
1532.5000, -27.683
1532.5200, -26.345
1532.5400, -27.080
1532.5600, -26.315
1532.5800, -26.844
1532.6000, -26.100
1532.6200, -26.981
1532.6400, -26.766
1532.6600, -27.387
1532.6800, -27.547
1532.7000, -26.214
1532.7200, -26.292
1532.7400, -25.888
1532.7600, -25.650
1532.7800, -27.598
1532.8000, -27.614
1532.8200, -27.002
1532.8400, -26.955
1532.8600, -27.552
1532.8800, -27.030
1532.9000, -26.034
1532.9200, -27.165
1532.9400, -27.569
1532.9600, -27.683
1532.9800, -27.899
1533.0000, -28.159
1533.0200, -27.331
1533.0400, -26.873
1533.0600, -28.466
1533.0800, -27.632
1533.1000, -27.140
1533.1200, -26.925
1533.1400, -27.181
1533.1600, -28.318
1533.1800, -28.440
1533.2000, -27.595
1533.2200, -28.609
1533.2400, -28.005
1533.2600, -27.959
1533.2800, -28.669
1533.3000, -28.367
1533.3200, -27.213
1533.3400, -28.844
1533.3600, -28.417
1533.3800, -28.429
1533.4000, -28.708
1533.4200, -28.944
1533.4400, -29.082
1533.4600, -28.980
1533.4800, -28.914
1533.5000, -28.959
1533.5200, -29.187
1533.5400, -29.414
1533.5600, -29.381
1533.5800, -29.489
1533.6000, -29.399
1533.6200, -29.389
1533.6400, -29.449
1533.6600, -29.827
1533.6800, -29.924
1533.7000, -29.802
1533.7200, -29.972
1533.7400, -29.915
1533.7600, -30.136
1533.7800, -30.220
1533.8000, -30.249
1533.8200, -30.262
1533.8400, -30.329
1533.8600, -30.407
1533.8800, -30.611
1533.9000, -30.774
1533.9200, -30.788
1533.9400, -30.921
1533.9600, -30.804
1533.9800, -30.926
1534.0000, -30.954
1534.0200, -31.221
1534.0400, -31.106
1534.0600, -31.040
1534.0800, -31.270
1534.1000, -31.264
1534.1200, -31.405
1534.1400, -31.362
1534.1600, -31.534
1534.1800, -31.618
1534.2000, -31.589
1534.2200, -31.684
1534.2400, -31.657
1534.2600, -31.858
1534.2800, -31.733
1534.3000, -31.857
1534.3200, -32.031
1534.3400, -32.113
1534.3600, -32.230
1534.3800, -32.230
1534.4000, -32.294
1534.4200, -32.332
1534.4400, -32.361
1534.4600, -32.524
1534.4800, -32.518
1534.5000, -32.603
1534.5200, -32.678
1534.5400, -32.780
1534.5600, -32.797
1534.5800, -32.893
1534.6000, -32.910
1534.6200, -32.978
1534.6400, -33.060
1534.6600, -33.312
1534.6800, -33.239
1534.7000, -33.382
1534.7200, -33.334
1534.7400, -33.336
1534.7600, -33.383
1534.7800, -33.502
1534.8000, -33.670
1534.8200, -33.697
1534.8400, -33.809
1534.8600, -33.771
1534.8800, -33.856
1534.9000, -33.932
1534.9200, -33.972
1534.9400, -34.023
1534.9600, -33.993
1534.9800, -34.079
1535.0000, -34.119
1535.0200, -34.219
1535.0400, -34.264
1535.0600, -34.286
1535.0800, -34.357
1535.1000, -34.363
1535.1200, -34.460
1535.1400, -34.472
1535.1600, -34.488
1535.1800, -34.569
1535.2000, -34.630
1535.2200, -34.670
1535.2400, -34.717
1535.2600, -34.772
1535.2800, -34.816
1535.3000, -34.889
1535.3200, -34.955
1535.3400, -35.009
1535.3600, -35.066
1535.3800, -35.123
1535.4000, -35.179
1535.4200, -35.211
1535.4400, -35.274
1535.4600, -35.351
1535.4800, -35.409
1535.5000, -35.475
1535.5200, -35.533
1535.5400, -35.578
1535.5600, -35.632
1535.5800, -35.670
1535.6000, -35.736
1535.6200, -35.796
1535.6400, -35.853
1535.6600, -35.903
1535.6800, -35.973
1535.7000, -36.042
1535.7200, -36.108
1535.7400, -36.167
1535.7600, -36.229
1535.7800, -36.287
1535.8000, -36.347
1535.8200, -36.380
1535.8400, -36.431
1535.8600, -36.497
1535.8800, -36.539
1535.9000, -36.580
1535.9200, -36.623
1535.9400, -36.679
1535.9600, -36.721
1535.9800, -36.784
1536.0000, -36.835
1536.0200, -36.874
1536.0400, -36.923
1536.0600, -36.954
1536.0800, -36.992
1536.1000, -37.045
1536.1200, -37.108
1536.1400, -37.141
1536.1600, -37.188
1536.1800, -37.236
1536.2000, -37.277
1536.2200, -37.330
1536.2400, -37.371
1536.2600, -37.408
1536.2800, -37.444
1536.3000, -37.477
1536.3200, -37.521
1536.3400, -37.569
1536.3600, -37.611
1536.3800, -37.646
1536.4000, -37.689
1536.4200, -37.731
1536.4400, -37.758
1536.4600, -37.796
1536.4800, -37.841
1536.5000, -37.886
1536.5200, -37.922
1536.5400, -37.972
1536.5600, -38.016
1536.5800, -38.055
1536.6000, -38.093
1536.6200, -38.134
1536.6400, -38.176
1536.6600, -38.211
1536.6800, -38.247
1536.7000, -38.281
1536.7200, -38.315
1536.7400, -38.331
1536.7600, -38.372
1536.7800, -38.408
1536.8000, -38.444
1536.8200, -38.469
1536.8400, -38.498
1536.8600, -38.536
1536.8800, -38.563
1536.9000, -38.609
1536.9200, -38.646
1536.9400, -38.674
1536.9600, -38.706
1536.9800, -38.731
1537.0000, -38.773
1537.0200, -38.799
1537.0400, -38.845
1537.0600, -38.872
1537.0800, -38.894
1537.1000, -38.933
1537.1200, -38.949
1537.1400, -38.991
1537.1600, -39.020
1537.1800, -39.041
1537.2000, -39.063
1537.2200, -39.095
1537.2400, -39.118
1537.2600, -39.140
1537.2800, -39.168
1537.3000, -39.200
1537.3200, -39.229
1537.3400, -39.252
1537.3600, -39.277
1537.3800, -39.304
1537.4000, -39.336
1537.4200, -39.366
1537.4400, -39.381
1537.4600, -39.410
1537.4800, -39.440
1537.5000, -39.459
1537.5200, -39.484
1537.5400, -39.510
1537.5600, -39.538
1537.5800, -39.553
1537.6000, -39.580
1537.6200, -39.605
1537.6400, -39.628
1537.6600, -39.639
1537.6800, -39.669
1537.7000, -39.700
1537.7200, -39.708
1537.7400, -39.729
1537.7600, -39.743
1537.7800, -39.768
1537.8000, -39.781
1537.8200, -39.811
1537.8400, -39.835
1537.8600, -39.846
1537.8800, -39.873
1537.9000, -39.883
1537.9200, -39.907
1537.9400, -39.923
1537.9600, -39.951
1537.9800, -39.969
1538.0000, -39.975
1538.0200, -39.996
1538.0400, -40.005
1538.0600, -40.035
1538.0800, -40.047
1538.1000, -40.072
1538.1200, -40.084
1538.1400, -40.101
1538.1600, -40.122
1538.1800, -40.149
1538.2000, -40.165
1538.2200, -40.180
1538.2400, -40.198
1538.2600, -40.215
1538.2800, -40.227
1538.3000, -40.239
1538.3200, -40.253
1538.3400, -40.271
1538.3600, -40.286
1538.3800, -40.294
1538.4000, -40.311
1538.4200, -40.327
1538.4400, -40.336
1538.4600, -40.354
1538.4800, -40.367
1538.5000, -40.376
1538.5200, -40.391
1538.5400, -40.405
1538.5600, -40.418
1538.5800, -40.431
1538.6000, -40.442
1538.6200, -40.461
1538.6400, -40.472
1538.6600, -40.477
1538.6800, -40.485
1538.7000, -40.501
1538.7200, -40.502
1538.7400, -40.520
1538.7600, -40.530
1538.7800, -40.536
1538.8000, -40.546
1538.8200, -40.551
1538.8400, -40.568
1538.8600, -40.566
1538.8800, -40.582
1538.9000, -40.592
1538.9200, -40.592
1538.9400, -40.602
1538.9600, -40.602
1538.9800, -40.621
1539.0000, -40.623
1539.0200, -40.630
1539.0400, -40.630
1539.0600, -40.635
1539.0800, -40.645
1539.1000, -40.659
1539.1200, -40.671
1539.1400, -40.678
1539.1600, -40.685
1539.1800, -40.683
1539.2000, -40.694
1539.2200, -40.703
1539.2400, -40.701
1539.2600, -40.705
1539.2800, -40.712
1539.3000, -40.720
1539.3200, -40.732
1539.3400, -40.734
1539.3600, -40.737
1539.3800, -40.749
1539.4000, -40.759
1539.4200, -40.765
1539.4400, -40.770
1539.4600, -40.772
1539.4800, -40.778
1539.5000, -40.757
1539.5200, -40.774
1539.5400, -40.788
1539.5600, -40.797
1539.5800, -40.788
1539.6000, -40.792
1539.6200, -40.801
1539.6400, -40.810
1539.6600, -40.812
1539.6800, -40.815
1539.7000, -40.808
1539.7200, -40.811
1539.7400, -40.811
1539.7600, -40.814
1539.7800, -40.825
1539.8000, -40.823
1539.8200, -40.826
1539.8400, -40.821
1539.8600, -40.828
1539.8800, -40.835
1539.9000, -40.836
1539.9200, -40.836
1539.9400, -40.843
1539.9600, -40.837
1539.9800, -40.838
1540.0000, -40.842
1540.0200, -40.838
1540.0400, -40.847
1540.0600, -40.857
1540.0800, -40.861
1540.1000, -40.866
1540.1200, -40.871
1540.1400, -40.874
1540.1600, -40.867
1540.1800, -40.873
1540.2000, -40.870
1540.2200, -40.874
1540.2400, -40.878
1540.2600, -40.882
1540.2800, -40.876
1540.3000, -40.880
1540.3200, -40.873
1540.3400, -40.865
1540.3600, -40.876
1540.3800, -40.880
1540.4000, -40.869
1540.4200, -40.855
1540.4400, -40.871
1540.4600, -40.868
1540.4800, -40.864
1540.5000, -40.847
1540.5200, -40.852
1540.5400, -40.847
1540.5600, -40.849
1540.5800, -40.852
1540.6000, -40.851
1540.6200, -40.846
1540.6400, -40.839
1540.6600, -40.839
1540.6800, -40.846
1540.7000, -40.851
1540.7200, -40.847
1540.7400, -40.832
1540.7600, -40.841
1540.7800, -40.822
1540.8000, -40.835
1540.8200, -40.828
1540.8400, -40.817
1540.8600, -40.819
1540.8800, -40.820
1540.9000, -40.817
1540.9200, -40.812
1540.9400, -40.820
1540.9600, -40.821
1540.9800, -40.814
1541.0000, -40.820
1541.0200, -40.820
1541.0400, -40.812
1541.0600, -40.812
1541.0800, -40.808
1541.1000, -40.806
1541.1200, -40.797
1541.1400, -40.799
1541.1600, -40.791
1541.1800, -40.791
1541.2000, -40.794
1541.2200, -40.796
1541.2400, -40.790
1541.2600, -40.792
1541.2800, -40.791
1541.3000, -40.790
1541.3200, -40.769
1541.3400, -40.775
1541.3600, -40.779
1541.3800, -40.771
1541.4000, -40.763
1541.4200, -40.748
1541.4400, -40.755
1541.4600, -40.735
1541.4800, -40.742
1541.5000, -40.741
1541.5200, -40.733
1541.5400, -40.733
1541.5600, -40.728
1541.5800, -40.718
1541.6000, -40.725
1541.6200, -40.736
1541.6400, -40.727
1541.6600, -40.712
1541.6800, -40.711
1541.7000, -40.706
1541.7200, -40.709
1541.7400, -40.696
1541.7600, -40.692
1541.7800, -40.683
1541.8000, -40.688
1541.8200, -40.686
1541.8400, -40.689
1541.8600, -40.687
1541.8800, -40.682
1541.9000, -40.682
1541.9200, -40.679
1541.9400, -40.676
1541.9600, -40.672
1541.9800, -40.664
1542.0000, -40.667
1542.0200, -40.655
1542.0400, -40.646
1542.0600, -40.645
1542.0800, -40.644
1542.1000, -40.637
1542.1200, -40.639
1542.1400, -40.629
1542.1600, -40.634
1542.1800, -40.633
1542.2000, -40.630
1542.2200, -40.626
1542.2400, -40.603
1542.2600, -40.613
1542.2800, -40.613
1542.3000, -40.606
1542.3200, -40.592
1542.3400, -40.584
1542.3600, -40.591
1542.3800, -40.578
1542.4000, -40.582
1542.4200, -40.574
1542.4400, -40.562
1542.4600, -40.559
1542.4800, -40.556
1542.5000, -40.540
1542.5200, -40.553
1542.5400, -40.558
1542.5600, -40.546
1542.5800, -40.534
1542.6000, -40.530
1542.6200, -40.524
1542.6400, -40.521
1542.6600, -40.511
1542.6800, -40.512
1542.7000, -40.509
1542.7200, -40.511
1542.7400, -40.512
1542.7600, -40.512
1542.7800, -40.508
1542.8000, -40.497
1542.8200, -40.493
1542.8400, -40.496
1542.8600, -40.492
1542.8800, -40.487
1542.9000, -40.482
1542.9200, -40.475
1542.9400, -40.466
1542.9600, -40.461
1542.9800, -40.460
1543.0000, -40.457
1543.0200, -40.457
1543.0400, -40.455
1543.0600, -40.449
1543.0800, -40.446
1543.1000, -40.442
1543.1200, -40.440
1543.1400, -40.421
1543.1600, -40.416
1543.1800, -40.422
1543.2000, -40.412
1543.2200, -40.411
1543.2400, -40.397
1543.2600, -40.396
1543.2800, -40.395
1543.3000, -40.391
1543.3200, -40.391
1543.3400, -40.378
1543.3600, -40.375
1543.3800, -40.386
1543.4000, -40.368
1543.4200, -40.367
1543.4400, -40.378
1543.4600, -40.374
1543.4800, -40.359
1543.5000, -40.360
1543.5200, -40.354
1543.5400, -40.350
1543.5600, -40.342
1543.5800, -40.333
1543.6000, -40.334
1543.6200, -40.337
1543.6400, -40.326
1543.6600, -40.335
1543.6800, -40.339
1543.7000, -40.338
1543.7200, -40.330
1543.7400, -40.314
1543.7600, -40.317
1543.7800, -40.306
1543.8000, -40.305
1543.8200, -40.309
1543.8400, -40.301
1543.8600, -40.299
1543.8800, -40.303
1543.9000, -40.309
1543.9200, -40.302
1543.9400, -40.309
1543.9600, -40.309
1543.9800, -40.300
1544.0000, -40.304
1544.0200, -40.303
1544.0400, -40.299
1544.0600, -40.282
1544.0800, -40.300
1544.1000, -40.299
1544.1200, -40.293
1544.1400, -40.280
1544.1600, -40.276
1544.1800, -40.279
1544.2000, -40.277
1544.2200, -40.276
1544.2400, -40.277
1544.2600, -40.270
1544.2800, -40.271
1544.3000, -40.267
1544.3200, -40.260
1544.3400, -40.273
1544.3600, -40.275
1544.3800, -40.264
1544.4000, -40.253
1544.4200, -40.262
1544.4400, -40.248
1544.4600, -40.249
1544.4800, -40.239
1544.5000, -40.243
1544.5200, -40.246
1544.5400, -40.239
1544.5600, -40.239
1544.5800, -40.244
1544.6000, -40.240
1544.6200, -40.238
1544.6400, -40.234
1544.6600, -40.232
1544.6800, -40.236
1544.7000, -40.238
1544.7200, -40.233
1544.7400, -40.234
1544.7600, -40.233
1544.7800, -40.225
1544.8000, -40.233
1544.8200, -40.234
1544.8400, -40.237
1544.8600, -40.238
1544.8800, -40.218
1544.9000, -40.225
1544.9200, -40.223
1544.9400, -40.222
1544.9600, -40.210
1544.9800, -40.217
1545.0000, -40.219
1545.0200, -40.219
1545.0400, -40.214
1545.0600, -40.203
1545.0800, -40.213
1545.1000, -40.206
1545.1200, -40.205
1545.1400, -40.203
1545.1600, -40.202
1545.1800, -40.203
1545.2000, -40.213
1545.2200, -40.199
1545.2400, -40.201
1545.2600, -40.217
1545.2800, -40.213
1545.3000, -40.202
1545.3200, -40.205
1545.3400, -40.202
1545.3600, -40.201
1545.3800, -40.195
1545.4000, -40.199
1545.4200, -40.208
1545.4400, -40.212
1545.4600, -40.200
1545.4800, -40.188
1545.5000, -40.189
1545.5200, -40.199
1545.5400, -40.195
1545.5600, -40.175
1545.5800, -40.183
1545.6000, -40.192
1545.6200, -40.187
1545.6400, -40.200
1545.6600, -40.198
1545.6800, -40.194
1545.7000, -40.196
1545.7200, -40.203
1545.7400, -40.203
1545.7600, -40.209
1545.7800, -40.203
1545.8000, -40.197
1545.8200, -40.198
1545.8400, -40.199
1545.8600, -40.191
1545.8800, -40.187
1545.9000, -40.205
1545.9200, -40.206
1545.9400, -40.197
1545.9600, -40.192
1545.9800, -40.189
1546.0000, -40.196
1546.0200, -40.190
1546.0400, -40.178
1546.0600, -40.179
1546.0800, -40.174
1546.1000, -40.171
1546.1200, -40.175
1546.1400, -40.166
1546.1600, -40.183
1546.1800, -40.174
1546.2000, -40.181
1546.2200, -40.178
1546.2400, -40.180
1546.2600, -40.175
1546.2800, -40.175
1546.3000, -40.167
1546.3200, -40.174
1546.3400, -40.174
1546.3600, -40.172
1546.3800, -40.164
1546.4000, -40.167
1546.4200, -40.179
1546.4400, -40.185
1546.4600, -40.184
1546.4800, -40.174
1546.5000, -40.188
1546.5200, -40.187
1546.5400, -40.196
1546.5600, -40.191
1546.5800, -40.189
1546.6000, -40.181
1546.6200, -40.195
1546.6400, -40.190
1546.6600, -40.204
1546.6800, -40.200
1546.7000, -40.190
1546.7200, -40.202
1546.7400, -40.201
1546.7600, -40.195
1546.7800, -40.179
1546.8000, -40.193
1546.8200, -40.196
1546.8400, -40.193
1546.8600, -40.181
1546.8800, -40.172
1546.9000, -40.180
1546.9200, -40.183
1546.9400, -40.173
1546.9600, -40.168
1546.9800, -40.170
1547.0000, -40.180
1547.0200, -40.175
1547.0400, -40.172
1547.0600, -40.172
1547.0800, -40.178
1547.1000, -40.176
1547.1200, -40.173
1547.1400, -40.183
1547.1600, -40.178
1547.1800, -40.182
1547.2000, -40.184
1547.2200, -40.189
1547.2400, -40.190
1547.2600, -40.191
1547.2800, -40.194
1547.3000, -40.207
1547.3200, -40.205
1547.3400, -40.211
1547.3600, -40.215
1547.3800, -40.209
1547.4000, -40.213
1547.4200, -40.215
1547.4400, -40.211
1547.4600, -40.214
1547.4800, -40.210
1547.5000, -40.211
1547.5200, -40.212
1547.5400, -40.213
1547.5600, -40.211
1547.5800, -40.220
1547.6000, -40.212
1547.6200, -40.210
1547.6400, -40.217
1547.6600, -40.220
1547.6800, -40.220
1547.7000, -40.229
1547.7200, -40.235
1547.7400, -40.231
1547.7600, -40.231
1547.7800, -40.220
1547.8000, -40.223
1547.8200, -40.229
1547.8400, -40.224
1547.8600, -40.224
1547.8800, -40.219
1547.9000, -40.222
1547.9200, -40.226
1547.9400, -40.231
1547.9600, -40.231
1547.9800, -40.244
1548.0000, -40.243
1548.0200, -40.238
1548.0400, -40.244
1548.0600, -40.240
1548.0800, -40.232
1548.1000, -40.232
1548.1200, -40.237
1548.1400, -40.234
1548.1600, -40.233
1548.1800, -40.232
1548.2000, -40.233
1548.2200, -40.242
1548.2400, -40.240
1548.2600, -40.238
1548.2800, -40.250
1548.3000, -40.242
1548.3200, -40.249
1548.3400, -40.248
1548.3600, -40.258
1548.3800, -40.253
1548.4000, -40.256
1548.4200, -40.256
1548.4400, -40.262
1548.4600, -40.263
1548.4800, -40.275
1548.5000, -40.269
1548.5200, -40.273
1548.5400, -40.270
1548.5600, -40.274
1548.5800, -40.262
1548.6000, -40.272
1548.6200, -40.281
1548.6400, -40.288
1548.6600, -40.286
1548.6800, -40.274
1548.7000, -40.281
1548.7200, -40.289
1548.7400, -40.281
1548.7600, -40.283
1548.7800, -40.286
1548.8000, -40.290
1548.8200, -40.299
1548.8400, -40.310
1548.8600, -40.298
1548.8800, -40.310
1548.9000, -40.302
1548.9200, -40.303
1548.9400, -40.303
1548.9600, -40.309
1548.9800, -40.304
1549.0000, -40.302
1549.0200, -40.307
1549.0400, -40.308
1549.0600, -40.319
1549.0800, -40.316
1549.1000, -40.326
1549.1200, -40.327
1549.1400, -40.330
1549.1600, -40.330
1549.1800, -40.319
1549.2000, -40.328
1549.2200, -40.344
1549.2400, -40.344
1549.2600, -40.355
1549.2800, -40.347
1549.3000, -40.343
1549.3200, -40.342
1549.3400, -40.346
1549.3600, -40.344
1549.3800, -40.353
1549.4000, -40.346
1549.4200, -40.346
1549.4400, -40.355
1549.4600, -40.357
1549.4800, -40.351
1549.5000, -40.371
1549.5200, -40.368
1549.5400, -40.381
1549.5600, -40.381
1549.5800, -40.373
1549.6000, -40.370
1549.6200, -40.379
1549.6400, -40.380
1549.6600, -40.374
1549.6800, -40.383
1549.7000, -40.382
1549.7200, -40.391
1549.7400, -40.385
1549.7600, -40.384
1549.7800, -40.395
1549.8000, -40.406
1549.8200, -40.401
1549.8400, -40.406
1549.8600, -40.409
1549.8800, -40.412
1549.9000, -40.405
1549.9200, -40.412
1549.9400, -40.413
1549.9600, -40.413
1549.9800, -40.404
1550.0000, -40.420
1550.0200, -40.430
1550.0400, -40.426
1550.0600, -40.420
1550.0800, -40.423
1550.1000, -40.423
1550.1200, -40.439
1550.1400, -40.434
1550.1600, -40.441
1550.1800, -40.434
1550.2000, -40.438
1550.2200, -40.433
1550.2400, -40.450
1550.2600, -40.454
1550.2800, -40.464
1550.3000, -40.466
1550.3200, -40.459
1550.3400, -40.472
1550.3600, -40.476
1550.3800, -40.470
1550.4000, -40.471
1550.4200, -40.484
1550.4400, -40.490
1550.4600, -40.490
1550.4800, -40.484
1550.5000, -40.485
1550.5200, -40.489
1550.5400, -40.488
1550.5600, -40.481
1550.5800, -40.483
1550.6000, -40.492
1550.6200, -40.497
1550.6400, -40.498
1550.6600, -40.512
1550.6800, -40.519
1550.7000, -40.521
1550.7200, -40.514
1550.7400, -40.523
1550.7600, -40.530
1550.7800, -40.527
1550.8000, -40.529
1550.8200, -40.541
1550.8400, -40.544
1550.8600, -40.554
1550.8800, -40.553
1550.9000, -40.563
1550.9200, -40.571
1550.9400, -40.571
1550.9600, -40.567
1550.9800, -40.570
1551.0000, -40.559
1551.0200, -40.570
1551.0400, -40.570
1551.0600, -40.579
1551.0800, -40.577
1551.1000, -40.579
1551.1200, -40.582
1551.1400, -40.591
1551.1600, -40.589
1551.1800, -40.602
1551.2000, -40.600
1551.2200, -40.603
1551.2400, -40.612
1551.2600, -40.618
1551.2800, -40.612
1551.3000, -40.615
1551.3200, -40.627
1551.3400, -40.634
1551.3600, -40.633
1551.3800, -40.624
1551.4000, -40.628
1551.4200, -40.632
1551.4400, -40.630
1551.4600, -40.624
1551.4800, -40.625
1551.5000, -40.631
1551.5200, -40.635
1551.5400, -40.640
1551.5600, -40.643
1551.5800, -40.643
1551.6000, -40.649
1551.6200, -40.644
1551.6400, -40.652
1551.6600, -40.659
1551.6800, -40.655
1551.7000, -40.662
1551.7200, -40.659
1551.7400, -40.668
1551.7600, -40.676
1551.7800, -40.686
1551.8000, -40.691
1551.8200, -40.699
1551.8400, -40.699
1551.8600, -40.701
1551.8800, -40.695
1551.9000, -40.693
1551.9200, -40.704
1551.9400, -40.703
1551.9600, -40.710
1551.9800, -40.702
1552.0000, -40.706
1552.0200, -40.708
1552.0400, -40.713
1552.0600, -40.717
1552.0800, -40.730
1552.1000, -40.736
1552.1200, -40.737
1552.1400, -40.732
1552.1600, -40.744
1552.1800, -40.748
1552.2000, -40.764
1552.2200, -40.757
1552.2400, -40.766
1552.2600, -40.767
1552.2800, -40.758
1552.3000, -40.761
1552.3200, -40.767
1552.3400, -40.769
1552.3600, -40.763
1552.3800, -40.763
1552.4000, -40.768
1552.4200, -40.769
1552.4400, -40.773
1552.4600, -40.770
1552.4800, -40.782
1552.5000, -40.783
1552.5200, -40.780
1552.5400, -40.789
1552.5600, -40.791
1552.5800, -40.784
1552.6000, -40.787
1552.6200, -40.793
1552.6400, -40.801
1552.6600, -40.811
1552.6800, -40.815
1552.7000, -40.815
1552.7200, -40.831
1552.7400, -40.833
1552.7600, -40.832
1552.7800, -40.832
1552.8000, -40.835
1552.8200, -40.846
1552.8400, -40.846
1552.8600, -40.847
1552.8800, -40.848
1552.9000, -40.849
1552.9200, -40.846
1552.9400, -40.857
1552.9600, -40.861
1552.9800, -40.865
1553.0000, -40.863
1553.0200, -40.863
1553.0400, -40.867
1553.0600, -40.870
1553.0800, -40.865
1553.1000, -40.874
1553.1200, -40.884
1553.1400, -40.877
1553.1600, -40.885
1553.1800, -40.880
1553.2000, -40.893
1553.2200, -40.890
1553.2400, -40.897
1553.2600, -40.891
1553.2800, -40.901
1553.3000, -40.907
1553.3200, -40.908
1553.3400, -40.910
1553.3600, -40.920
1553.3800, -40.918
1553.4000, -40.907
1553.4200, -40.908
1553.4400, -40.915
1553.4600, -40.922
1553.4800, -40.911
1553.5000, -40.911
1553.5200, -40.919
1553.5400, -40.917
1553.5600, -40.920
1553.5800, -40.926
1553.6000, -40.936
1553.6200, -40.941
1553.6400, -40.947
1553.6600, -40.946
1553.6800, -40.952
1553.7000, -40.955
1553.7200, -40.958
1553.7400, -40.952
1553.7600, -40.958
1553.7800, -40.961
1553.8000, -40.965
1553.8200, -40.972
1553.8400, -40.968
1553.8600, -40.975
1553.8800, -40.971
1553.9000, -40.980
1553.9200, -40.980
1553.9400, -40.981
1553.9600, -40.980
1553.9800, -40.983
1554.0000, -40.992
1554.0200, -40.998
1554.0400, -40.993
1554.0600, -40.996
1554.0800, -40.995
1554.1000, -41.011
1554.1200, -41.016
1554.1400, -41.008
1554.1600, -41.014
1554.1800, -41.017
1554.2000, -41.015
1554.2200, -41.020
1554.2400, -41.021
1554.2600, -41.029
1554.2800, -41.030
1554.3000, -41.023
1554.3200, -41.023
1554.3400, -41.028
1554.3600, -41.034
1554.3800, -41.022
1554.4000, -41.027
1554.4200, -41.026
1554.4400, -41.022
1554.4600, -41.026
1554.4800, -41.024
1554.5000, -41.027
1554.5200, -41.044
1554.5400, -41.045
1554.5600, -41.043
1554.5800, -41.040
1554.6000, -41.046
1554.6200, -41.046
1554.6400, -41.047
1554.6600, -41.049
1554.6800, -41.057
1554.7000, -41.063
1554.7200, -41.070
1554.7400, -41.070
1554.7600, -41.072
1554.7800, -41.075
1554.8000, -41.079
1554.8200, -41.082
1554.8400, -41.084
1554.8600, -41.086
1554.8800, -41.092
1554.9000, -41.097
1554.9200, -41.101
1554.9400, -41.087
1554.9600, -41.092
1554.9800, -41.092
1555.0000, -41.103
1555.0200, -41.103
1555.0400, -41.096
1555.0600, -41.102
1555.0800, -41.102
1555.1000, -41.101
1555.1200, -41.103
1555.1400, -41.104
1555.1600, -41.105
1555.1800, -41.118
1555.2000, -41.111
1555.2200, -41.121
1555.2400, -41.118
1555.2600, -41.124
1555.2800, -41.128
1555.3000, -41.132
1555.3200, -41.132
1555.3400, -41.133
1555.3600, -41.133
1555.3800, -41.138
1555.4000, -41.144
1555.4200, -41.147
1555.4400, -41.147
1555.4600, -41.148
1555.4800, -41.148
1555.5000, -41.154
1555.5200, -41.153
1555.5400, -41.156
1555.5600, -41.155
1555.5800, -41.166
1555.6000, -41.170
1555.6200, -41.171
1555.6400, -41.171
1555.6600, -41.178
1555.6800, -41.181
1555.7000, -41.181
1555.7200, -41.180
1555.7400, -41.179
1555.7600, -41.181
1555.7800, -41.181
1555.8000, -41.182
1555.8200, -41.192
1555.8400, -41.186
1555.8600, -41.184
1555.8800, -41.194
1555.9000, -41.200
1555.9200, -41.198
1555.9400, -41.201
1555.9600, -41.204
1555.9800, -41.208
1556.0000, -41.208
1556.0200, -41.208
1556.0400, -41.214
1556.0600, -41.231
1556.0800, -41.227
1556.1000, -41.226
1556.1200, -41.229
1556.1400, -41.238
1556.1600, -41.239
1556.1800, -41.248
1556.2000, -41.250
1556.2200, -41.247
1556.2400, -41.249
1556.2600, -41.250
1556.2800, -41.259
1556.3000, -41.262
1556.3200, -41.260
1556.3400, -41.270
1556.3600, -41.270
1556.3800, -41.275
1556.4000, -41.274
1556.4200, -41.274
1556.4400, -41.279
1556.4600, -41.283
1556.4800, -41.288
1556.5000, -41.289
1556.5200, -41.289
1556.5400, -41.290
1556.5600, -41.296
1556.5800, -41.297
1556.6000, -41.301
1556.6200, -41.309
1556.6400, -41.312
1556.6600, -41.304
1556.6800, -41.313
1556.7000, -41.322
1556.7200, -41.319
1556.7400, -41.325
1556.7600, -41.319
1556.7800, -41.323
1556.8000, -41.329
1556.8200, -41.334
1556.8400, -41.340
1556.8600, -41.342
1556.8800, -41.345
1556.9000, -41.344
1556.9200, -41.346
1556.9400, -41.354
1556.9600, -41.359
1556.9800, -41.362
1557.0000, -41.360
1557.0200, -41.367
1557.0400, -41.365
1557.0600, -41.369
1557.0800, -41.370
1557.1000, -41.371
1557.1200, -41.369
1557.1400, -41.373
1557.1600, -41.382
1557.1800, -41.389
1557.2000, -41.393
1557.2200, -41.399
1557.2400, -41.402
1557.2600, -41.405
1557.2800, -41.412
1557.3000, -41.413
1557.3200, -41.420
1557.3400, -41.424
1557.3600, -41.427
1557.3800, -41.432
1557.4000, -41.440
1557.4200, -41.447
1557.4400, -41.457
1557.4600, -41.460
1557.4800, -41.475
1557.5000, -41.480
1557.5200, -41.483
1557.5400, -41.485
1557.5600, -41.472
1557.5800, -41.478
1557.6000, -41.492
1557.6200, -41.493
1557.6400, -41.494
1557.6600, -41.497
1557.6800, -41.502
1557.7000, -41.511
1557.7200, -41.522
1557.7400, -41.526
1557.7600, -41.535
1557.7800, -41.533
1557.8000, -41.538
1557.8200, -41.544
1557.8400, -41.546
1557.8600, -41.556
1557.8800, -41.544
1557.9000, -41.543
1557.9200, -41.550
1557.9400, -41.558
1557.9600, -41.564
1557.9800, -41.569
1558.0000, -41.574
1558.0200, -41.577
1558.0400, -41.579
1558.0600, -41.594
1558.0800, -41.603
1558.1000, -41.611
1558.1200, -41.616
1558.1400, -41.622
1558.1600, -41.626
1558.1800, -41.625
1558.2000, -41.631
1558.2200, -41.635
1558.2400, -41.643
1558.2600, -41.653
1558.2800, -41.657
1558.3000, -41.657
1558.3200, -41.666
1558.3400, -41.674
1558.3600, -41.678
1558.3800, -41.691
1558.4000, -41.696
1558.4200, -41.703
1558.4400, -41.703
1558.4600, -41.698
1558.4800, -41.710
1558.5000, -41.713
1558.5200, -41.718
1558.5400, -41.716
1558.5600, -41.723
1558.5800, -41.730
1558.6000, -41.742
1558.6200, -41.747
1558.6400, -41.754
1558.6600, -41.758
1558.6800, -41.765
1558.7000, -41.767
1558.7200, -41.777
1558.7400, -41.792
1558.7600, -41.794
1558.7800, -41.793
1558.8000, -41.799
1558.8200, -41.814
1558.8400, -41.823
1558.8600, -41.829
1558.8800, -41.835
1558.9000, -41.840
1558.9200, -41.847
1558.9400, -41.855
1558.9600, -41.870
1558.9800, -41.879
1559.0000, -41.886
1559.0200, -41.897
1559.0400, -41.906
1559.0600, -41.912
1559.0800, -41.914
1559.1000, -41.926
1559.1200, -41.934
1559.1400, -41.945
1559.1600, -41.956
1559.1800, -41.963
1559.2000, -41.971
1559.2200, -41.983
1559.2400, -41.991
1559.2600, -42.008
1559.2800, -42.016
1559.3000, -42.020
1559.3200, -42.023
1559.3400, -42.022
1559.3600, -42.033
1559.3800, -42.045
1559.4000, -42.047
1559.4200, -42.045
1559.4400, -42.053
1559.4600, -42.070
1559.4800, -42.076
1559.5000, -42.087
1559.5200, -42.096
1559.5400, -42.109
1559.5600, -42.119
1559.5800, -42.128
1559.6000, -42.134
1559.6200, -42.144
1559.6400, -42.153
1559.6600, -42.156
1559.6800, -42.169
1559.7000, -42.174
1559.7200, -42.187
1559.7400, -42.196
1559.7600, -42.207
1559.7800, -42.214
1559.8000, -42.225
1559.8200, -42.225
1559.8400, -42.239
1559.8600, -42.252
1559.8800, -42.255
1559.9000, -42.269
1559.9200, -42.281
1559.9400, -42.285
1559.9600, -42.291
1559.9800, -42.307
1560.0000, -42.312
1560.0200, -42.328
1560.0400, -42.341
1560.0600, -42.353
1560.0800, -42.353
1560.1000, -42.371
1560.1200, -42.377
1560.1400, -42.391
1560.1600, -42.406
1560.1800, -42.418
1560.2000, -42.429
1560.2200, -42.426
1560.2400, -42.436
1560.2600, -42.453
1560.2800, -42.474
1560.3000, -42.481
1560.3200, -42.487
1560.3400, -42.502
1560.3600, -42.517
1560.3800, -42.522
1560.4000, -42.529
1560.4200, -42.537
1560.4400, -42.549
1560.4600, -42.556
1560.4800, -42.571
1560.5000, -42.587
1560.5200, -42.603
1560.5400, -42.610
1560.5600, -42.619
1560.5800, -42.636
1560.6000, -42.652
1560.6200, -42.664
1560.6400, -42.672
1560.6600, -42.684
1560.6800, -42.704
1560.7000, -42.719
1560.7200, -42.721
1560.7400, -42.737
1560.7600, -42.755
1560.7800, -42.762
1560.8000, -42.776
1560.8200, -42.784
1560.8400, -42.792
1560.8600, -42.801
1560.8800, -42.810
1560.9000, -42.826
1560.9200, -42.844
1560.9400, -42.854
1560.9600, -42.865
1560.9800, -42.878
1561.0000, -42.886
1561.0200, -42.904
1561.0400, -42.914
1561.0600, -42.926
1561.0800, -42.934
1561.1000, -42.950
1561.1200, -42.955
1561.1400, -42.975
1561.1600, -42.992
1561.1800, -43.004
1561.2000, -43.007
1561.2200, -43.024
1561.2400, -43.033
1561.2600, -43.052
1561.2800, -43.065
1561.3000, -43.074
1561.3200, -43.089
1561.3400, -43.101
1561.3600, -43.115
1561.3800, -43.132
1561.4000, -43.148
1561.4200, -43.163
1561.4400, -43.174
1561.4600, -43.192
1561.4800, -43.207
1561.5000, -43.222
1561.5200, -43.238
1561.5400, -43.249
1561.5600, -43.267
1561.5800, -43.286
1561.6000, -43.287
1561.6200, -43.304
1561.6400, -43.327
1561.6600, -43.346
1561.6800, -43.360
1561.7000, -43.381
1561.7200, -43.390
1561.7400, -43.401
1561.7600, -43.421
1561.7800, -43.432
1561.8000, -43.450
1561.8200, -43.466
1561.8400, -43.478
1561.8600, -43.489
1561.8800, -43.504
1561.9000, -43.512
1561.9200, -43.542
1561.9400, -43.557
1561.9600, -43.572
1561.9800, -43.577
1562.0000, -43.579
1562.0200, -43.605
1562.0400, -43.619
1562.0600, -43.639
1562.0800, -43.645
1562.1000, -43.663
1562.1200, -43.683
1562.1400, -43.702
1562.1600, -43.719
1562.1800, -43.733
1562.2000, -43.750
1562.2200, -43.760
1562.2400, -43.777
1562.2600, -43.794
1562.2800, -43.818
1562.3000, -43.832
1562.3200, -43.840
1562.3400, -43.859
1562.3600, -43.873
1562.3800, -43.894
1562.4000, -43.913
1562.4200, -43.929
1562.4400, -43.942
1562.4600, -43.958
1562.4800, -43.969
1562.5000, -43.994
1562.5200, -44.009
1562.5400, -44.021
1562.5600, -44.043
1562.5800, -44.059
1562.6000, -44.073
1562.6200, -44.088
1562.6400, -44.107
1562.6600, -44.118
1562.6800, -44.137
1562.7000, -44.153
1562.7200, -44.172
1562.7400, -44.185
1562.7600, -44.207
1562.7800, -44.215
1562.8000, -44.243
1562.8200, -44.261
1562.8400, -44.276
1562.8600, -44.290
1562.8800, -44.299
1562.9000, -44.315
1562.9200, -44.337
1562.9400, -44.354
1562.9600, -44.368
1562.9800, -44.380
1563.0000, -44.403
1563.0200, -44.420
1563.0400, -44.442
1563.0600, -44.458
1563.0800, -44.476
1563.1000, -44.492
1563.1200, -44.507
1563.1400, -44.530
1563.1600, -44.552
1563.1800, -44.567
1563.2000, -44.578
1563.2200, -44.603
1563.2400, -44.614
1563.2600, -44.635
1563.2800, -44.648
1563.3000, -44.667
1563.3200, -44.683
1563.3400, -44.694
1563.3600, -44.708
1563.3800, -44.726
1563.4000, -44.761
1563.4200, -44.780
1563.4400, -44.798
1563.4600, -44.812
1563.4800, -44.835
1563.5000, -44.846
1563.5200, -44.867
1563.5400, -44.881
1563.5600, -44.902
1563.5800, -44.918
1563.6000, -44.935
1563.6200, -44.952
1563.6400, -44.978
1563.6600, -44.995
1563.6800, -45.021
1563.7000, -45.042
1563.7200, -45.062
1563.7400, -45.075
1563.7600, -45.089
1563.7800, -45.101
1563.8000, -45.127
1563.8200, -45.139
1563.8400, -45.154
1563.8600, -45.174
1563.8800, -45.194
1563.9000, -45.213
1563.9200, -45.235
1563.9400, -45.254
1563.9600, -45.273
1563.9800, -45.287
1564.0000, -45.305
1564.0200, -45.327
1564.0400, -45.341
1564.0600, -45.354
1564.0800, -45.370
1564.1000, -45.392
1564.1200, -45.414
1564.1400, -45.429
1564.1600, -45.448
1564.1800, -45.467
1564.2000, -45.484
1564.2200, -45.494
1564.2400, -45.513
1564.2600, -45.539
1564.2800, -45.566
1564.3000, -45.582
1564.3200, -45.601
1564.3400, -45.619
1564.3600, -45.636
1564.3800, -45.653
1564.4000, -45.680
1564.4200, -45.698
1564.4400, -45.716
1564.4600, -45.741
1564.4800, -45.757
1564.5000, -45.775
1564.5200, -45.800
1564.5400, -45.820
1564.5600, -45.838
1564.5800, -45.864
1564.6000, -45.886
1564.6200, -45.903
1564.6400, -45.918
1564.6600, -45.941
1564.6800, -45.954
1564.7000, -45.964
1564.7200, -45.984
1564.7400, -46.006
1564.7600, -46.024
1564.7800, -46.049
1564.8000, -46.063
1564.8200, -46.088
1564.8400, -46.103
1564.8600, -46.126
1564.8800, -46.144
1564.9000, -46.164
1564.9200, -46.186
1564.9400, -46.203
1564.9600, -46.221
1564.9800, -46.243
1565.0000, -46.268
1565.0200, -46.282
1565.0400, -46.305
1565.0600, -46.325
1565.0800, -46.340
1565.1000, -46.352
1565.1200, -46.373
1565.1400, -46.390
1565.1600, -46.421
1565.1800, -46.447
1565.2000, -46.462
1565.2200, -46.481
1565.2400, -46.502
1565.2600, -46.522
1565.2800, -46.542
1565.3000, -46.559
1565.3200, -46.584
1565.3400, -46.605
1565.3600, -46.629
1565.3800, -46.644
1565.4000, -46.669
1565.4200, -46.687
1565.4400, -46.708
1565.4600, -46.730
1565.4800, -46.746
1565.5000, -46.764
1565.5200, -46.784
1565.5400, -46.803
1565.5600, -46.829
1565.5800, -46.840
1565.6000, -46.860
1565.6200, -46.881
1565.6400, -46.907
1565.6600, -46.922
1565.6800, -46.935
1565.7000, -46.958
1565.7200, -46.974
1565.7400, -46.995
1565.7600, -47.018
1565.7800, -47.040
1565.8000, -47.064
1565.8200, -47.077
1565.8400, -47.094
1565.8600, -47.114
1565.8800, -47.144
1565.9000, -47.155
1565.9200, -47.181
1565.9400, -47.201
1565.9600, -47.212
1565.9800, -47.241
1566.0000, -47.254
1566.0200, -47.270
1566.0400, -47.301
1566.0600, -47.326
1566.0800, -47.345
1566.1000, -47.364
1566.1200, -47.382
1566.1400, -47.398
1566.1600, -47.424
1566.1800, -47.436
1566.2000, -47.459
1566.2200, -47.485
1566.2400, -47.505
1566.2600, -47.518
1566.2800, -47.540
1566.3000, -47.560
1566.3200, -47.578
1566.3400, -47.603
1566.3600, -47.623
1566.3800, -47.633
1566.4000, -47.656
1566.4200, -47.679
1566.4400, -47.703
1566.4600, -47.713
1566.4800, -47.737
1566.5000, -47.753
1566.5200, -47.778
1566.5400, -47.800
1566.5600, -47.816
1566.5800, -47.839
1566.6000, -47.859
1566.6200, -47.875
1566.6400, -47.895
1566.6600, -47.920
1566.6800, -47.942
1566.7000, -47.960
1566.7200, -47.976
1566.7400, -48.003
1566.7600, -48.018
1566.7800, -48.034
1566.8000, -48.059
1566.8200, -48.076
1566.8400, -48.096
1566.8600, -48.119
1566.8800, -48.142
1566.9000, -48.161
1566.9200, -48.179
1566.9400, -48.203
1566.9600, -48.220
1566.9800, -48.234
1567.0000, -48.262
1567.0200, -48.280
1567.0400, -48.298
1567.0600, -48.318
1567.0800, -48.339
1567.1000, -48.360
1567.1200, -48.385
1567.1400, -48.400
1567.1600, -48.422
1567.1800, -48.447
1567.2000, -48.468
1567.2200, -48.482
1567.2400, -48.497
1567.2600, -48.518
1567.2800, -48.543
1567.3000, -48.562
1567.3200, -48.575
1567.3400, -48.599
1567.3600, -48.618
1567.3800, -48.636
1567.4000, -48.663
1567.4200, -48.680
1567.4400, -48.695
1567.4600, -48.721
1567.4800, -48.734
1567.5000, -48.758
1567.5200, -48.774
1567.5400, -48.801
1567.5600, -48.826
1567.5800, -48.839
1567.6000, -48.858
1567.6200, -48.885
1567.6400, -48.900
1567.6600, -48.915
1567.6800, -48.940
1567.7000, -48.962
1567.7200, -48.983
1567.7400, -49.001
1567.7600, -49.012
1567.7800, -49.036
1567.8000, -49.067
1567.8200, -49.083
1567.8400, -49.105
1567.8600, -49.119
1567.8800, -49.140
1567.9000, -49.162
1567.9200, -49.182
1567.9400, -49.195
1567.9600, -49.219
1567.9800, -49.235
1568.0000, -49.262
1568.0200, -49.279
1568.0400, -49.303
1568.0600, -49.320
1568.0800, -49.340
1568.1000, -49.358
1568.1200, -49.375
1568.1400, -49.398
1568.1600, -49.420
1568.1800, -49.441
1568.2000, -49.455
1568.2200, -49.477
1568.2400, -49.490
1568.2600, -49.513
1568.2800, -49.534
1568.3000, -49.553
1568.3200, -49.571
1568.3400, -49.593
1568.3600, -49.610
1568.3800, -49.637
1568.4000, -49.652
1568.4200, -49.685
1568.4400, -49.696
1568.4600, -49.713
1568.4800, -49.729
1568.5000, -49.752
1568.5200, -49.767
1568.5400, -49.784
1568.5600, -49.806
1568.5800, -49.822
1568.6000, -49.848
1568.6200, -49.863
1568.6400, -49.885
1568.6600, -49.914
1568.6800, -49.935
1568.7000, -49.952
1568.7200, -49.976
1568.7400, -49.984
1568.7600, -50.011
1568.7800, -50.024
1568.8000, -50.049
1568.8200, -50.068
1568.8400, -50.086
1568.8600, -50.107
1568.8800, -50.126
1568.9000, -50.150
1568.9200, -50.167
1568.9400, -50.191
1568.9600, -50.204
1568.9800, -50.225
1569.0000, -50.243
1569.0200, -50.261
1569.0400, -50.288
1569.0600, -50.306
1569.0800, -50.323
1569.1000, -50.344
1569.1200, -50.356
1569.1400, -50.384
1569.1600, -50.399
1569.1800, -50.413
1569.2000, -50.437
1569.2200, -50.454
1569.2400, -50.476
1569.2600, -50.492
1569.2800, -50.518
1569.3000, -50.535
1569.3200, -50.554
1569.3400, -50.573
1569.3600, -50.585
1569.3800, -50.614
1569.4000, -50.619
1569.4200, -50.643
1569.4400, -50.667
1569.4600, -50.681
1569.4800, -50.703
1569.5000, -50.725
1569.5200, -50.734
1569.5400, -50.762
1569.5600, -50.785
1569.5800, -50.805
1569.6000, -50.816
1569.6200, -50.843
1569.6400, -50.861
1569.6600, -50.880
1569.6800, -50.896
1569.7000, -50.922
1569.7200, -50.933
1569.7400, -50.960
1569.7600, -50.979
1569.7800, -50.997
1569.8000, -51.012
1569.8200, -51.029
1569.8400, -51.048
1569.8600, -51.060
1569.8800, -51.083
1569.9000, -51.108
1569.9200, -51.126
1569.9400, -51.148
1569.9600, -51.162
1569.9800, -51.179
1570.0000, -51.196
1570.0200, -51.219
1570.0400, -51.233
1570.0600, -51.248
1570.0800, -51.273
1570.1000, -51.283
1570.1200, -51.311
1570.1400, -51.323
1570.1600, -51.351
1570.1800, -51.372
1570.2000, -51.388
1570.2200, -51.408
1570.2400, -51.429
1570.2600, -51.440
1570.2800, -51.455
1570.3000, -51.475
1570.3200, -51.496
1570.3400, -51.512
1570.3600, -51.530
1570.3800, -51.553
1570.4000, -51.578
1570.4200, -51.590
1570.4400, -51.608
1570.4600, -51.627
1570.4800, -51.643
1570.5000, -51.664
1570.5200, -51.684
1570.5400, -51.700
1570.5600, -51.722
1570.5800, -51.738
1570.6000, -51.762
1570.6200, -51.780
1570.6400, -51.793
1570.6600, -51.817
1570.6800, -51.841
1570.7000, -51.857
1570.7200, -51.878
1570.7400, -51.892
1570.7600, -51.911
1570.7800, -51.924
1570.8000, -51.949
1570.8200, -51.963
1570.8400, -51.980
1570.8600, -52.003
1570.8800, -52.021
1570.9000, -52.032
1570.9200, -52.045
1570.9400, -52.068
1570.9600, -52.090
1570.9800, -52.116
1571.0000, -52.125
1571.0200, -52.140
1571.0400, -52.171
1571.0600, -52.180
1571.0800, -52.197
1571.1000, -52.213
1571.1200, -52.230
1571.1400, -52.241
1571.1600, -52.262
1571.1800, -52.284
1571.2000, -52.299
1571.2200, -52.319
1571.2400, -52.336
1571.2600, -52.355
1571.2800, -52.378
1571.3000, -52.400
1571.3200, -52.413
1571.3400, -52.436
1571.3600, -52.453
1571.3800, -52.474
1571.4000, -52.486
1571.4200, -52.507
1571.4400, -52.521
1571.4600, -52.543
1571.4800, -52.560
1571.5000, -52.578
1571.5200, -52.599
1571.5400, -52.622
1571.5600, -52.637
1571.5800, -52.646
1571.6000, -52.664
1571.6200, -52.684
1571.6400, -52.703
1571.6600, -52.719
1571.6800, -52.738
1571.7000, -52.755
1571.7200, -52.771
1571.7400, -52.793
1571.7600, -52.805
1571.7800, -52.820
1571.8000, -52.835
1571.8200, -52.862
1571.8400, -52.876
1571.8600, -52.896
1571.8800, -52.906
1571.9000, -52.927
1571.9200, -52.944
1571.9400, -52.964
1571.9600, -52.978
1571.9800, -52.997
1572.0000, -53.017
1572.0200, -53.028
1572.0400, -53.056
1572.0600, -53.067
1572.0800, -53.088
1572.1000, -53.101
1572.1200, -53.120
1572.1400, -53.133
1572.1600, -53.160
1572.1800, -53.175
1572.2000, -53.191
1572.2200, -53.202
1572.2400, -53.229
1572.2600, -53.236
1572.2800, -53.258
1572.3000, -53.269
1572.3200, -53.294
1572.3400, -53.312
1572.3600, -53.329
1572.3800, -53.343
1572.4000, -53.367
1572.4200, -53.374
1572.4400, -53.391
1572.4600, -53.411
1572.4800, -53.429
1572.5000, -53.443
1572.5200, -53.462
1572.5400, -53.479
1572.5600, -53.489
1572.5800, -53.508
1572.6000, -53.521
1572.6200, -53.545
1572.6400, -53.558
1572.6600, -53.566
1572.6800, -53.586
1572.7000, -53.605
1572.7200, -53.615
1572.7400, -53.637
1572.7600, -53.641
1572.7800, -53.667
1572.8000, -53.683
1572.8200, -53.699
1572.8400, -53.718
1572.8600, -53.735
1572.8800, -53.752
1572.9000, -53.766
1572.9200, -53.787
1572.9400, -53.802
1572.9600, -53.819
1572.9800, -53.831
1573.0000, -53.846
1573.0200, -53.869
1573.0400, -53.891
1573.0600, -53.897
1573.0800, -53.918
1573.1000, -53.940
1573.1200, -53.957
1573.1400, -53.966
1573.1600, -53.975
1573.1800, -53.999
1573.2000, -54.013
1573.2200, -54.029
1573.2400, -54.047
1573.2600, -54.059
1573.2800, -54.081
1573.3000, -54.097
1573.3200, -54.114
1573.3400, -54.129
1573.3600, -54.135
1573.3800, -54.153
1573.4000, -54.171
1573.4200, -54.181
1573.4400, -54.193
1573.4600, -54.212
1573.4800, -54.229
1573.5000, -54.245
1573.5200, -54.263
1573.5400, -54.283
1573.5600, -54.293
1573.5800, -54.307
1573.6000, -54.321
1573.6200, -54.340
1573.6400, -54.358
1573.6600, -54.377
1573.6800, -54.383
1573.7000, -54.402
1573.7200, -54.421
1573.7400, -54.434
1573.7600, -54.444
1573.7800, -54.469
1573.8000, -54.477
1573.8200, -54.498
1573.8400, -54.515
1573.8600, -54.513
1573.8800, -54.546
1573.9000, -54.553
1573.9200, -54.568
1573.9400, -54.586
1573.9600, -54.600
1573.9800, -54.618
1574.0000, -54.622
1574.0200, -54.650
1574.0400, -54.648
1574.0600, -54.671
1574.0800, -54.690
1574.1000, -54.705
1574.1200, -54.721
1574.1400, -54.735
1574.1600, -54.754
1574.1800, -54.767
1574.2000, -54.779
1574.2200, -54.788
1574.2400, -54.814
1574.2600, -54.817
1574.2800, -54.845
1574.3000, -54.846
1574.3200, -54.863
1574.3400, -54.886
1574.3600, -54.896
1574.3800, -54.916
1574.4000, -54.919
1574.4200, -54.943
1574.4400, -54.951
1574.4600, -54.968
1574.4800, -54.979
1574.5000, -55.004
1574.5200, -55.015
1574.5400, -55.031
1574.5600, -55.037
1574.5800, -55.062
1574.6000, -55.075
1574.6200, -55.076
1574.6400, -55.105
1574.6600, -55.119
1574.6800, -55.126
1574.7000, -55.146
1574.7200, -55.149
1574.7400, -55.165
1574.7600, -55.197
1574.7800, -55.201
1574.8000, -55.211
1574.8200, -55.232
1574.8400, -55.244
1574.8600, -55.250
1574.8800, -55.284
1574.9000, -55.281
1574.9200, -55.299
1574.9400, -55.310
1574.9600, -55.327
1574.9800, -55.338
1575.0000, -55.370
1575.0200, -55.374
1575.0400, -55.395
1575.0600, -55.398
1575.0800, -55.423
1575.1000, -55.422
1575.1200, -55.437
1575.1400, -55.447
1575.1600, -55.465
1575.1800, -55.478
1575.2000, -55.504
1575.2200, -55.512
1575.2400, -55.526
1575.2600, -55.543
1575.2800, -55.547
1575.3000, -55.572
1575.3200, -55.581
1575.3400, -55.590
1575.3600, -55.607
1575.3800, -55.620
1575.4000, -55.629
1575.4200, -55.643
1575.4400, -55.658
1575.4600, -55.668
1575.4800, -55.693
1575.5000, -55.699
1575.5200, -55.716
1575.5400, -55.720
1575.5600, -55.739
1575.5800, -55.746
1575.6000, -55.767
1575.6200, -55.781
1575.6400, -55.795
1575.6600, -55.805
1575.6800, -55.824
1575.7000, -55.834
1575.7200, -55.847
1575.7400, -55.869
1575.7600, -55.878
1575.7800, -55.883
1575.8000, -55.904
1575.8200, -55.919
1575.8400, -55.918
1575.8600, -55.954
1575.8800, -55.937
1575.9000, -55.978
1575.9200, -55.980
1575.9400, -55.998
1575.9600, -56.013
1575.9800, -56.009
1576.0000, -56.029
1576.0200, -56.057
1576.0400, -56.045
1576.0600, -56.066
1576.0800, -56.087
1576.1000, -56.083
1576.1200, -56.108
1576.1400, -56.116
1576.1600, -56.126
1576.1800, -56.137
1576.2000, -56.157
1576.2200, -56.162
1576.2400, -56.182
1576.2600, -56.197
1576.2800, -56.200
1576.3000, -56.211
1576.3200, -56.243
1576.3400, -56.238
1576.3600, -56.262
1576.3800, -56.259
1576.4000, -56.269
1576.4200, -56.283
1576.4400, -56.299
1576.4600, -56.317
1576.4800, -56.321
1576.5000, -56.330
1576.5200, -56.356
1576.5400, -56.373
1576.5600, -56.378
1576.5800, -56.387
1576.6000, -56.385
1576.6200, -56.413
1576.6400, -56.418
1576.6600, -56.425
1576.6800, -56.449
1576.7000, -56.465
1576.7200, -56.469
1576.7400, -56.478
1576.7600, -56.490
1576.7800, -56.511
1576.8000, -56.526
1576.8200, -56.531
1576.8400, -56.538
1576.8600, -56.550
1576.8800, -56.571
1576.9000, -56.579
1576.9200, -56.588
1576.9400, -56.590
1576.9600, -56.613
1576.9800, -56.620
1577.0000, -56.636
1577.0200, -56.645
1577.0400, -56.655
1577.0600, -56.664
1577.0800, -56.677
1577.1000, -56.685
1577.1200, -56.703
1577.1400, -56.708
1577.1600, -56.717
1577.1800, -56.744
1577.2000, -56.735
1577.2200, -56.755
1577.2400, -56.757
1577.2600, -56.766
1577.2800, -56.791
1577.3000, -56.794
1577.3200, -56.806
1577.3400, -56.821
1577.3600, -56.836
1577.3800, -56.850
1577.4000, -56.868
1577.4200, -56.874
1577.4400, -56.877
1577.4600, -56.903
1577.4800, -56.894
1577.5000, -56.918
1577.5200, -56.925
1577.5400, -56.944
1577.5600, -56.951
1577.5800, -56.968
1577.6000, -56.970
1577.6200, -56.983
1577.6400, -57.006
1577.6600, -57.010
1577.6800, -57.015
1577.7000, -57.023
1577.7200, -57.033
1577.7400, -57.046
1577.7600, -57.057
1577.7800, -57.066
1577.8000, -57.076
1577.8200, -57.101
1577.8400, -57.095
1577.8600, -57.112
1577.8800, -57.122
1577.9000, -57.138
1577.9200, -57.133
1577.9400, -57.154
1577.9600, -57.159
1577.9800, -57.171
1578.0000, -57.183
1578.0200, -57.187
1578.0400, -57.207
1578.0600, -57.219
1578.0800, -57.235
1578.1000, -57.222
1578.1200, -57.262
1578.1400, -57.258
1578.1600, -57.249
1578.1800, -57.279
1578.2000, -57.301
1578.2200, -57.300
1578.2400, -57.310
1578.2600, -57.318
1578.2800, -57.344
1578.3000, -57.332
1578.3200, -57.371
1578.3400, -57.356
1578.3600, -57.390
1578.3800, -57.391
1578.4000, -57.390
1578.4200, -57.405
1578.4400, -57.414
1578.4600, -57.419
1578.4800, -57.441
1578.5000, -57.449
1578.5200, -57.456
1578.5400, -57.467
1578.5600, -57.491
1578.5800, -57.475
1578.6000, -57.495
1578.6200, -57.506
1578.6400, -57.515
1578.6600, -57.523
1578.6800, -57.545
1578.7000, -57.545
1578.7200, -57.538
1578.7400, -57.566
1578.7600, -57.574
1578.7800, -57.589
1578.8000, -57.589
1578.8200, -57.588
1578.8400, -57.619
1578.8600, -57.639
1578.8800, -57.633
1578.9000, -57.641
1578.9200, -57.646
1578.9400, -57.664
1578.9600, -57.670
1578.9800, -57.681
1579.0000, -57.681
1579.0200, -57.698
1579.0400, -57.700
1579.0600, -57.728
1579.0800, -57.730
1579.1000, -57.730
1579.1200, -57.765
1579.1400, -57.749
1579.1600, -57.774
1579.1800, -57.787
1579.2000, -57.782
1579.2200, -57.795
1579.2400, -57.801
1579.2600, -57.830
1579.2800, -57.820
1579.3000, -57.835
1579.3200, -57.854
1579.3400, -57.856
1579.3600, -57.873
1579.3800, -57.877
1579.4000, -57.894
1579.4200, -57.890
1579.4400, -57.907
1579.4600, -57.924
1579.4800, -57.938
1579.5000, -57.931
1579.5200, -57.916
1579.5400, -57.954
1579.5600, -57.959
1579.5800, -57.959
1579.6000, -57.979
1579.6200, -57.967
1579.6400, -57.993
1579.6600, -57.999
1579.6800, -58.020
1579.7000, -58.026
1579.7200, -58.011
1579.7400, -58.055
1579.7600, -58.036
1579.7800, -58.057
1579.8000, -58.080
1579.8200, -58.069
1579.8400, -58.094
1579.8600, -58.069
1579.8800, -58.116
1579.9000, -58.099
1579.9200, -58.120
1579.9400, -58.133
1579.9600, -58.139
1579.9800, -58.142
1580.0000, -58.159
1580.0200, -58.174
1580.0400, -58.152
1580.0600, -58.174
1580.0800, -58.196
1580.1000, -58.191
1580.1200, -58.205
1580.1400, -58.219
1580.1600, -58.234
1580.1800, -58.239
1580.2000, -58.250
1580.2200, -58.227
1580.2400, -58.282
1580.2600, -58.253
1580.2800, -58.276
1580.3000, -58.275
1580.3200, -58.288
1580.3400, -58.303
1580.3600, -58.301
1580.3800, -58.306
1580.4000, -58.321
1580.4200, -58.330
1580.4400, -58.337
1580.4600, -58.353
1580.4800, -58.347
1580.5000, -58.376
1580.5200, -58.381
1580.5400, -58.370
1580.5600, -58.395
1580.5800, -58.396
1580.6000, -58.403
1580.6200, -58.414
1580.6400, -58.423
1580.6600, -58.439
1580.6800, -58.437
1580.7000, -58.439
1580.7200, -58.452
1580.7400, -58.462
1580.7600, -58.480
1580.7800, -58.479
1580.8000, -58.504
1580.8200, -58.514
1580.8400, -58.487
1580.8600, -58.513
1580.8800, -58.510
1580.9000, -58.508
1580.9200, -58.541
1580.9400, -58.545
1580.9600, -58.544
1580.9800, -58.557
1581.0000, -58.562
1581.0200, -58.565
1581.0400, -58.581
1581.0600, -58.599
1581.0800, -58.597
1581.1000, -58.627
1581.1200, -58.621
1581.1400, -58.623
1581.1600, -58.628
1581.1800, -58.642
1581.2000, -58.645
1581.2200, -58.679
1581.2400, -58.641
1581.2600, -58.661
1581.2800, -58.700
1581.3000, -58.656
1581.3200, -58.690
1581.3400, -58.689
1581.3600, -58.709
1581.3800, -58.744
1581.4000, -58.719
1581.4200, -58.698
1581.4400, -58.736
1581.4600, -58.756
1581.4800, -58.766
1581.5000, -58.755
1581.5200, -58.749
1581.5400, -58.783
1581.5600, -58.769
1581.5800, -58.782
1581.6000, -58.805
1581.6200, -58.807
1581.6400, -58.811
1581.6600, -58.818
1581.6800, -58.820
1581.7000, -58.835
1581.7200, -58.842
1581.7400, -58.848
1581.7600, -58.880
1581.7800, -58.852
1581.8000, -58.871
1581.8200, -58.871
1581.8400, -58.891
1581.8600, -58.884
1581.8800, -58.901
1581.9000, -58.907
1581.9200, -58.930
1581.9400, -58.934
1581.9600, -58.933
1581.9800, -58.945
1582.0000, -58.927
1582.0200, -58.950
1582.0400, -58.965
1582.0600, -58.962
1582.0800, -58.974
1582.1000, -58.989
1582.1200, -58.998
1582.1400, -58.994
1582.1600, -59.017
1582.1800, -59.005
1582.2000, -59.023
1582.2200, -59.008
1582.2400, -59.033
1582.2600, -59.032
1582.2800, -59.041
1582.3000, -59.056
1582.3200, -59.065
1582.3400, -59.059
1582.3600, -59.071
1582.3800, -59.073
1582.4000, -59.074
1582.4200, -59.092
1582.4400, -59.096
1582.4600, -59.100
1582.4800, -59.126
1582.5000, -59.117
1582.5200, -59.133
1582.5400, -59.141
1582.5600, -59.132
1582.5800, -59.146
1582.6000, -59.154
1582.6200, -59.149
1582.6400, -59.176
1582.6600, -59.171
1582.6800, -59.186
1582.7000, -59.173
1582.7200, -59.193
1582.7400, -59.217
1582.7600, -59.213
1582.7800, -59.223
1582.8000, -59.225
1582.8200, -59.253
1582.8400, -59.234
1582.8600, -59.245
1582.8800, -59.252
1582.9000, -59.256
1582.9200, -59.254
1582.9400, -59.268
1582.9600, -59.282
1582.9800, -59.282
1583.0000, -59.297
1583.0200, -59.298
1583.0400, -59.304
1583.0600, -59.296
1583.0800, -59.303
1583.1000, -59.344
1583.1200, -59.337
1583.1400, -59.329
1583.1600, -59.348
1583.1800, -59.333
1583.2000, -59.356
1583.2200, -59.366
1583.2400, -59.388
1583.2600, -59.381
1583.2800, -59.367
1583.3000, -59.381
1583.3200, -59.395
1583.3400, -59.418
1583.3600, -59.405
1583.3800, -59.420
1583.4000, -59.403
1583.4200, -59.444
1583.4400, -59.406
1583.4600, -59.460
1583.4800, -59.449
1583.5000, -59.449
1583.5200, -59.487
1583.5400, -59.468
1583.5600, -59.479
1583.5800, -59.483
1583.6000, -59.494
1583.6200, -59.500
1583.6400, -59.506
1583.6600, -59.529
1583.6800, -59.500
1583.7000, -59.529
1583.7200, -59.513
1583.7400, -59.548
1583.7600, -59.528
1583.7800, -59.542
1583.8000, -59.537
1583.8200, -59.554
1583.8400, -59.555
1583.8600, -59.571
1583.8800, -59.577
1583.9000, -59.589
1583.9200, -59.585
1583.9400, -59.600
1583.9600, -59.604
1583.9800, -59.617
1584.0000, -59.627
1584.0200, -59.626
1584.0400, -59.607
1584.0600, -59.639
1584.0800, -59.646
1584.1000, -59.633
1584.1200, -59.644
1584.1400, -59.661
1584.1600, -59.641
1584.1800, -59.646
1584.2000, -59.680
1584.2200, -59.683
1584.2400, -59.697
1584.2600, -59.685
1584.2800, -59.684
1584.3000, -59.699
1584.3200, -59.689
1584.3400, -59.720
1584.3600, -59.726
1584.3800, -59.729
1584.4000, -59.735
1584.4200, -59.738
1584.4400, -59.713
1584.4600, -59.755
1584.4800, -59.754
1584.5000, -59.771
1584.5200, -59.780
1584.5400, -59.755
1584.5600, -59.779
1584.5800, -59.787
1584.6000, -59.793
1584.6200, -59.795
1584.6400, -59.794
1584.6600, -59.807
1584.6800, -59.818
1584.7000, -59.831
1584.7200, -59.824
1584.7400, -59.818
1584.7600, -59.830
1584.7800, -59.823
1584.8000, -59.851
1584.8200, -59.835
1584.8400, -59.858
1584.8600, -59.866
1584.8800, -59.875
1584.9000, -59.883
1584.9200, -59.865
1584.9400, -59.892
1584.9600, -59.883
1584.9800, -59.899
1585.0000, -59.902
1585.0200, -59.898
1585.0400, -59.915
1585.0600, -59.910
1585.0800, -59.909
1585.1000, -59.919
1585.1200, -59.916
1585.1400, -59.923
1585.1600, -59.944
1585.1800, -59.957
1585.2000, -59.956
1585.2200, -59.962
1585.2400, -59.952
1585.2600, -59.970
1585.2800, -60.001
1585.3000, -59.994
1585.3200, -60.003
1585.3400, -59.996
1585.3600, -59.984
1585.3800, -59.988
1585.4000, -59.988
1585.4200, -60.003
1585.4400, -60.024
1585.4600, -60.013
1585.4800, -60.011
1585.5000, -60.039
1585.5200, -60.017
1585.5400, -60.057
1585.5600, -60.034
1585.5800, -60.053
1585.6000, -60.035
1585.6200, -60.045
1585.6400, -60.066
1585.6600, -60.087
1585.6800, -60.096
1585.7000, -60.073
1585.7200, -60.082
1585.7400, -60.097
1585.7600, -60.120
1585.7800, -60.078
1585.8000, -60.121
1585.8200, -60.110
1585.8400, -60.142
1585.8600, -60.115
1585.8800, -60.161
1585.9000, -60.114
1585.9200, -60.120
1585.9400, -60.149
1585.9600, -60.144
1585.9800, -60.160
1586.0000, -60.150
1586.0200, -60.155
1586.0400, -60.214
1586.0600, -60.175
1586.0800, -60.147
1586.1000, -60.200
1586.1200, -60.196
1586.1400, -60.189
1586.1600, -60.186
1586.1800, -60.223
1586.2000, -60.217
1586.2200, -60.223
1586.2400, -60.219
1586.2600, -60.224
1586.2800, -60.235
1586.3000, -60.226
1586.3200, -60.273
1586.3400, -60.269
1586.3600, -60.235
1586.3800, -60.232
1586.4000, -60.290
1586.4200, -60.260
1586.4400, -60.271
1586.4600, -60.283
1586.4800, -60.264
1586.5000, -60.260
1586.5200, -60.301
1586.5400, -60.294
1586.5600, -60.309
1586.5800, -60.301
1586.6000, -60.270
1586.6200, -60.344
1586.6400, -60.349
1586.6600, -60.323
1586.6800, -60.372
1586.7000, -60.319
1586.7200, -60.337
1586.7400, -60.338
1586.7600, -60.377
1586.7800, -60.357
1586.8000, -60.380
1586.8200, -60.364
1586.8400, -60.383
1586.8600, -60.411
1586.8800, -60.378
1586.9000, -60.384
1586.9200, -60.384
1586.9400, -60.410
1586.9600, -60.410
1586.9800, -60.431
1587.0000, -60.409
1587.0200, -60.426
1587.0400, -60.422
1587.0600, -60.441
1587.0800, -60.440
1587.1000, -60.454
1587.1200, -60.444
1587.1400, -60.438
1587.1600, -60.487
1587.1800, -60.459
1587.2000, -60.465
1587.2200, -60.452
1587.2400, -60.495
1587.2600, -60.482
1587.2800, -60.491
1587.3000, -60.495
1587.3200, -60.510
1587.3400, -60.468
1587.3600, -60.506
1587.3800, -60.498
1587.4000, -60.540
1587.4200, -60.524
1587.4400, -60.519
1587.4600, -60.533
1587.4800, -60.537
1587.5000, -60.508
1587.5200, -60.562
1587.5400, -60.534
1587.5600, -60.565
1587.5800, -60.555
1587.6000, -60.552
1587.6200, -60.565
1587.6400, -60.583
1587.6600, -60.578
1587.6800, -60.555
1587.7000, -60.613
1587.7200, -60.602
1587.7400, -60.619
1587.7600, -60.600
1587.7800, -60.616
1587.8000, -60.640
1587.8200, -60.599
1587.8400, -60.619
1587.8600, -60.606
1587.8800, -60.662
1587.9000, -60.650
1587.9200, -60.662
1587.9400, -60.629
1587.9600, -60.660
1587.9800, -60.686
1588.0000, -60.668
1588.0200, -60.669
1588.0400, -60.665
1588.0600, -60.668
1588.0800, -60.712
1588.1000, -60.670
1588.1200, -60.705
1588.1400, -60.686
1588.1600, -60.706
1588.1800, -60.690
1588.2000, -60.691
1588.2200, -60.754
1588.2400, -60.717
1588.2600, -60.698
1588.2800, -60.748
1588.3000, -60.735
1588.3200, -60.743
1588.3400, -60.735
1588.3600, -60.739
1588.3800, -60.739
1588.4000, -60.744
1588.4200, -60.764
1588.4400, -60.762
1588.4600, -60.784
1588.4800, -60.761
1588.5000, -60.790
1588.5200, -60.751
1588.5400, -60.790
1588.5600, -60.794
1588.5800, -60.807
1588.6000, -60.795
1588.6200, -60.810
1588.6400, -60.802
1588.6600, -60.824
1588.6800, -60.848
1588.7000, -60.820
1588.7200, -60.806
1588.7400, -60.838
1588.7600, -60.836
1588.7800, -60.856
1588.8000, -60.823
1588.8200, -60.866
1588.8400, -60.856
1588.8600, -60.863
1588.8800, -60.860
1588.9000, -60.834
1588.9200, -60.890
1588.9400, -60.888
1588.9600, -60.886
1588.9800, -60.881
1589.0000, -60.903
1589.0200, -60.880
1589.0400, -60.901
1589.0600, -60.913
1589.0800, -60.913
1589.1000, -60.874
1589.1200, -60.919
1589.1400, -60.921
1589.1600, -60.896
1589.1800, -60.915
1589.2000, -60.942
1589.2200, -60.933
1589.2400, -60.925
1589.2600, -60.932
1589.2800, -60.934
1589.3000, -60.944
1589.3200, -60.979
1589.3400, -60.975
1589.3600, -60.998
1589.3800, -60.965
1589.4000, -60.977
1589.4200, -60.961
1589.4400, -61.013
1589.4600, -60.987
1589.4800, -60.965
1589.5000, -60.992
1589.5200, -61.044
1589.5400, -60.978
1589.5600, -61.032
1589.5800, -61.022
1589.6000, -61.022
1589.6200, -61.022
1589.6400, -61.014
1589.6600, -61.043
1589.6800, -61.046
1589.7000, -61.026
1589.7200, -61.038
1589.7400, -61.058
1589.7600, -61.042
1589.7800, -61.052
1589.8000, -61.045
1589.8200, -61.069
1589.8400, -61.084
1589.8600, -61.067
1589.8800, -61.077
1589.9000, -61.082
1589.9200, -61.105
1589.9400, -61.069
1589.9600, -61.138
1589.9800, -61.084
1590.0000, -61.124
1590.0200, -61.111
1590.0400, -61.093
1590.0600, -61.124
1590.0800, -61.094
1590.1000, -61.181
1590.1200, -61.123
1590.1400, -61.131
1590.1600, -61.163
1590.1800, -61.164
1590.2000, -61.169
1590.2200, -61.115
1590.2400, -61.153
1590.2600, -61.154
1590.2800, -61.165
1590.3000, -61.166
1590.3200, -61.176
1590.3400, -61.160
1590.3600, -61.173
1590.3800, -61.193
1590.4000, -61.242
1590.4200, -61.182
1590.4400, -61.211
1590.4600, -61.204
1590.4800, -61.214
1590.5000, -61.254
1590.5200, -61.222
1590.5400, -61.210
1590.5600, -61.195
1590.5800, -61.262
1590.6000, -61.227
1590.6200, -61.240
1590.6400, -61.231
1590.6600, -61.251
1590.6800, -61.269
1590.7000, -61.278
1590.7200, -61.267
1590.7400, -61.275
1590.7600, -61.307
1590.7800, -61.275
1590.8000, -61.289
1590.8200, -61.295
1590.8400, -61.248
1590.8600, -61.335
1590.8800, -61.280
1590.9000, -61.311
1590.9200, -61.283
1590.9400, -61.296
1590.9600, -61.326
1590.9800, -61.338
1591.0000, -61.325
1591.0200, -61.308
1591.0400, -61.359
1591.0600, -61.380
1591.0800, -61.330
1591.1000, -61.330
1591.1200, -61.337
1591.1400, -61.375
1591.1600, -61.400
1591.1800, -61.355
1591.2000, -61.378
1591.2200, -61.368
1591.2400, -61.436
1591.2600, -61.387
1591.2800, -61.373
1591.3000, -61.422
1591.3200, -61.378
1591.3400, -61.446
1591.3600, -61.421
1591.3800, -61.401
1591.4000, -61.426
1591.4200, -61.418
1591.4400, -61.421
1591.4600, -61.429
1591.4800, -61.449
1591.5000, -61.417
1591.5200, -61.432
1591.5400, -61.454
1591.5600, -61.465
1591.5800, -61.459
1591.6000, -61.497
1591.6200, -61.451
1591.6400, -61.511
1591.6600, -61.497
1591.6800, -61.410
1591.7000, -61.498
1591.7200, -61.503
1591.7400, -61.535
1591.7600, -61.474
1591.7800, -61.497
1591.8000, -61.501
1591.8200, -61.504
1591.8400, -61.544
1591.8600, -61.492
1591.8800, -61.529
1591.9000, -61.505
1591.9200, -61.520
1591.9400, -61.573
1591.9600, -61.529
1591.9800, -61.546
1592.0000, -61.574
1592.0200, -61.586
1592.0400, -61.554
1592.0600, -61.604
1592.0800, -61.597
1592.1000, -61.559
1592.1200, -61.593
1592.1400, -61.592
1592.1600, -61.592
1592.1800, -61.599
1592.2000, -61.590
1592.2200, -61.586
1592.2400, -61.591
1592.2600, -61.606
1592.2800, -61.624
1592.3000, -61.619
1592.3200, -61.637
1592.3400, -61.619
1592.3600, -61.626
1592.3800, -61.632
1592.4000, -61.648
1592.4200, -61.630
1592.4400, -61.644
1592.4600, -61.657
1592.4800, -61.646
1592.5000, -61.665
1592.5200, -61.668
1592.5400, -61.689
1592.5600, -61.643
1592.5800, -61.675
1592.6000, -61.698
1592.6200, -61.678
1592.6400, -61.683
1592.6600, -61.682
1592.6800, -61.715
1592.7000, -61.683
1592.7200, -61.712
1592.7400, -61.723
1592.7600, -61.741
1592.7800, -61.722
1592.8000, -61.727
1592.8200, -61.702
1592.8400, -61.721
1592.8600, -61.757
1592.8800, -61.755
1592.9000, -61.735
1592.9200, -61.751
1592.9400, -61.746
1592.9600, -61.754
1592.9800, -61.776
1593.0000, -61.726
1593.0200, -61.808
1593.0400, -61.731
1593.0600, -61.751
1593.0800, -61.810
1593.1000, -61.749
1593.1200, -61.776
1593.1400, -61.802
1593.1600, -61.767
1593.1800, -61.785
1593.2000, -61.806
1593.2200, -61.803
1593.2400, -61.791
1593.2600, -61.839
1593.2800, -61.810
1593.3000, -61.817
1593.3200, -61.780
1593.3400, -61.820
1593.3600, -61.843
1593.3800, -61.874
1593.4000, -61.825
1593.4200, -61.821
1593.4400, -61.870
1593.4600, -61.860
1593.4800, -61.864
1593.5000, -61.832
1593.5200, -61.868
1593.5400, -61.890
1593.5600, -61.831
1593.5800, -61.879
1593.6000, -61.911
1593.6200, -61.856
1593.6400, -61.907
1593.6600, -61.899
1593.6800, -61.892
1593.7000, -61.884
1593.7200, -61.935
1593.7400, -61.862
1593.7600, -61.918
1593.7800, -61.932
1593.8000, -61.924
1593.8200, -61.937
1593.8400, -61.952
1593.8600, -61.975
1593.8800, -61.910
1593.9000, -61.946
1593.9200, -61.965
1593.9400, -61.949
1593.9600, -61.926
1593.9800, -61.972
1594.0000, -61.951
1594.0200, -61.983
1594.0400, -61.971
1594.0600, -61.953
1594.0800, -61.988
1594.1000, -62.001
1594.1200, -61.970
1594.1400, -61.997
1594.1600, -61.964
1594.1800, -62.012
1594.2000, -62.002
1594.2200, -62.026
1594.2400, -61.970
1594.2600, -61.990
1594.2800, -62.040
1594.3000, -62.023
1594.3200, -62.029
1594.3400, -62.011
1594.3600, -62.031
1594.3800, -62.034
1594.4000, -62.041
1594.4200, -62.053
1594.4400, -62.053
1594.4600, -62.109
1594.4800, -62.011
1594.5000, -62.083
1594.5200, -62.078
1594.5400, -62.050
1594.5600, -62.117
1594.5800, -62.081
1594.6000, -62.102
1594.6200, -62.098
1594.6400, -62.132
1594.6600, -62.110
1594.6800, -62.097
1594.7000, -62.102
1594.7200, -62.129
1594.7400, -62.102
1594.7600, -62.073
1594.7800, -62.173
1594.8000, -62.135
1594.8200, -62.128
1594.8400, -62.163
1594.8600, -62.141
1594.8800, -62.154
1594.9000, -62.168
1594.9200, -62.133
1594.9400, -62.164
1594.9600, -62.148
1594.9800, -62.126
1595.0000, -62.174
1595.0200, -62.171
1595.0400, -62.187
1595.0600, -62.221
1595.0800, -62.184
1595.1000, -62.214
1595.1200, -62.210
1595.1400, -62.210
1595.1600, -62.215
1595.1800, -62.204
1595.2000, -62.205
1595.2200, -62.222
1595.2400, -62.201
1595.2600, -62.218
1595.2800, -62.231
1595.3000, -62.219
1595.3200, -62.214
1595.3400, -62.215
1595.3600, -62.274
1595.3800, -62.239
1595.4000, -62.290
1595.4200, -62.234
1595.4400, -62.272
1595.4600, -62.271
1595.4800, -62.304
1595.5000, -62.295
1595.5200, -62.280
1595.5400, -62.284
1595.5600, -62.344
1595.5800, -62.287
1595.6000, -62.285
1595.6200, -62.321
1595.6400, -62.321
1595.6600, -62.349
1595.6800, -62.318
1595.7000, -62.315
1595.7200, -62.336
1595.7400, -62.331
1595.7600, -62.306
1595.7800, -62.353
1595.8000, -62.385
1595.8200, -62.304
1595.8400, -62.351
1595.8600, -62.404
1595.8800, -62.346
1595.9000, -62.343
1595.9200, -62.386
1595.9400, -62.366
1595.9600, -62.390
1595.9800, -62.430
1596.0000, -62.372
1596.0200, -62.368
1596.0400, -62.420
1596.0600, -62.386
1596.0800, -62.401
1596.1000, -62.401
1596.1200, -62.406
1596.1400, -62.424
1596.1600, -62.424
1596.1800, -62.454
1596.2000, -62.428
1596.2200, -62.421
1596.2400, -62.474
1596.2600, -62.455
1596.2800, -62.398
1596.3000, -62.429
1596.3200, -62.500
1596.3400, -62.456
1596.3600, -62.524
1596.3800, -62.428
1596.4000, -62.485
1596.4200, -62.472
1596.4400, -62.503
1596.4600, -62.437
1596.4800, -62.484
1596.5000, -62.469
1596.5200, -62.501
1596.5400, -62.500
1596.5600, -62.501
1596.5800, -62.488
1596.6000, -62.524
1596.6200, -62.484
1596.6400, -62.517
1596.6600, -62.531
1596.6800, -62.542
1596.7000, -62.500
1596.7200, -62.543
1596.7400, -62.545
1596.7600, -62.502
1596.7800, -62.539
1596.8000, -62.538
1596.8200, -62.570
1596.8400, -62.531
1596.8600, -62.546
1596.8800, -62.565
1596.9000, -62.583
1596.9200, -62.551
1596.9400, -62.649
1596.9600, -62.541
1596.9800, -62.547
1597.0000, -62.596
1597.0200, -62.590
1597.0400, -62.548
1597.0600, -62.592
1597.0800, -62.624
1597.1000, -62.624
1597.1200, -62.644
1597.1400, -62.574
1597.1600, -62.615
1597.1800, -62.607
1597.2000, -62.650
1597.2200, -62.626
1597.2400, -62.616
1597.2600, -62.628
1597.2800, -62.657
1597.3000, -62.608
1597.3200, -62.660
1597.3400, -62.632
1597.3600, -62.661
1597.3800, -62.664
1597.4000, -62.642
1597.4200, -62.693
1597.4400, -62.649
1597.4600, -62.717
1597.4800, -62.683
1597.5000, -62.670
1597.5200, -62.658
1597.5400, -62.680
1597.5600, -62.713
1597.5800, -62.691
1597.6000, -62.722
1597.6200, -62.701
1597.6400, -62.708
1597.6600, -62.691
1597.6800, -62.674
1597.7000, -62.784
1597.7200, -62.726
1597.7400, -62.725
1597.7600, -62.720
1597.7800, -62.747
1597.8000, -62.718
1597.8200, -62.745
1597.8400, -62.772
1597.8600, -62.749
1597.8800, -62.749
1597.9000, -62.777
1597.9200, -62.764
1597.9400, -62.784
1597.9600, -62.797
1597.9800, -62.779
1598.0000, -62.806
1598.0200, -62.752
1598.0400, -62.773
1598.0600, -62.763
1598.0800, -62.792
1598.1000, -62.798
1598.1200, -62.814
1598.1400, -62.802
1598.1600, -62.816
1598.1800, -62.831
1598.2000, -62.804
1598.2200, -62.795
1598.2400, -62.852
1598.2600, -62.866
1598.2800, -62.852
1598.3000, -62.863
1598.3200, -62.840
1598.3400, -62.881
1598.3600, -62.893
1598.3800, -62.832
1598.4000, -62.858
1598.4200, -62.856
1598.4400, -62.902
1598.4600, -62.840
1598.4800, -62.922
1598.5000, -62.871
1598.5200, -62.896
1598.5400, -62.895
1598.5600, -62.932
1598.5800, -62.894
1598.6000, -62.888
1598.6200, -62.898
1598.6400, -62.974
1598.6600, -62.915
1598.6800, -62.849
1598.7000, -62.930
1598.7200, -62.921
1598.7400, -62.943
1598.7600, -62.961
1598.7800, -62.945
1598.8000, -62.948
1598.8200, -62.932
1598.8400, -62.965
1598.8600, -62.962
1598.8800, -62.940
1598.9000, -62.999
1598.9200, -62.931
1598.9400, -62.985
1598.9600, -62.982
1598.9800, -63.010
1599.0000, -62.991
1599.0200, -63.009
1599.0400, -62.960
1599.0600, -63.044
1599.0800, -63.021
1599.1000, -63.028
1599.1200, -63.068
1599.1400, -62.978
1599.1600, -63.043
1599.1800, -62.980
1599.2000, -63.045
1599.2200, -63.078
1599.2400, -63.050
1599.2600, -63.041
1599.2800, -63.053
1599.3000, -63.068
1599.3200, -63.049
1599.3400, -63.077
1599.3600, -63.069
1599.3800, -63.066
1599.4000, -63.092
1599.4200, -63.030
1599.4400, -63.103
1599.4600, -63.102
1599.4800, -63.082
1599.5000, -63.081
1599.5200, -63.135
1599.5400, -63.098
1599.5600, -63.116
1599.5800, -63.145
1599.6000, -63.152
1599.6200, -63.091
1599.6400, -63.140
1599.6600, -63.093
1599.6800, -63.120
1599.7000, -63.111
1599.7200, -63.095
1599.7400, -63.148
1599.7600, -63.184
1599.7800, -63.149
1599.8000, -63.204
1599.8200, -63.169
1599.8400, -63.171
1599.8600, -63.124
1599.8800, -63.225
1599.9000, -63.172
1599.9200, -63.211
1599.9400, -63.204
1599.9600, -63.195
1599.9800, -63.176
1600.0000, -63.183
